time,seconds_elapsed,z,y,x
1768576268030384400,0.04738427734375,-0.035125732421875,-0.0189666748046875,0.99774169921875
1768576268040384500,0.057384521484375,-0.0327911376953125,-0.020477294921875,0.9989471435546875
1768576268050384600,0.067384521484375,-0.033721923828125,-0.0186767578125,1.0014495849609375
1768576268060384500,0.077384521484375,-0.0347900390625,-0.0166168212890625,1.0004730224609375
1768576268070383600,0.087383544921875,-0.0307464599609375,-0.0154266357421875,0.999267578125
1768576268080383500,0.097383544921875,-0.0311126708984375,-0.017486572265625,0.998046875
1768576268090383600,0.107383544921875,-0.032745361328125,-0.017333984375,0.998931884765625
1768576268100383500,0.117383544921875,-0.0332489013671875,-0.0182342529296875,1.002227783203125
1768576268110383600,0.127383544921875,-0.029571533203125,-0.0182037353515625,1.002197265625
1768576268120382500,0.137382568359375,-0.030914306640625,-0.0173492431640625,1.0009307861328125
1768576268130382600,0.147382568359375,-0.0340728759765625,-0.0170135498046875,1.0013275146484375
1768576268140382500,0.157382568359375,-0.0338592529296875,-0.017486572265625,0.9991455078125
1768576268150382600,0.167382568359375,-0.02923583984375,-0.0149383544921875,0.99639892578125
1768576268160382500,0.177382568359375,-0.0290069580078125,-0.0178680419921875,0.99957275390625
1768576268170381600,0.187381591796875,-0.031036376953125,-0.0178985595703125,1.0010528564453125
1768576268180381400,0.19738134765625,-0.032196044921875,-0.0172882080078125,1.001190185546875
1768576268190381600,0.207381591796875,-0.0345458984375,-0.0164642333984375,1.00360107421875
1768576268200381400,0.21738134765625,-0.0357818603515625,-0.0146026611328125,1.0068359375
1768576268210381600,0.227381591796875,-0.0331573486328125,-0.01446533203125,1.0050201416015625
1768576268220380700,0.237380615234375,-0.0295867919921875,-0.016204833984375,1.005615234375
1768576268230380500,0.247380615234375,-0.0360870361328125,-0.0153656005859375,1.0052490234375
1768576268240380400,0.25738037109375,-0.0363006591796875,-0.0164337158203125,0.9989166259765625
1768576268250380500,0.267380615234375,-0.0319671630859375,-0.0160980224609375,1.0002288818359375
1768576268260380400,0.27738037109375,-0.034637451171875,-0.0169830322265625,1.00103759765625
1768576268270379500,0.287379638671875,-0.0374298095703125,-0.01702880859375,0.9993896484375
1768576268280379600,0.297379638671875,-0.038360595703125,-0.01654052734375,1.000091552734375
1768576268290379500,0.307379638671875,-0.03277587890625,-0.018768310546875,0.9991912841796875
1768576268300379400,0.31737939453125,-0.0383758544921875,-0.0142364501953125,0.9978485107421875
1768576268310379500,0.327379638671875,-0.039703369140625,-0.0159912109375,1.0017547607421875
1768576268320378600,0.337378662109375,-0.0338897705078125,-0.0171966552734375,1.00433349609375
1768576268330378500,0.34737841796875,-0.0381317138671875,-0.016265869140625,1.0048675537109375
1768576268340378600,0.357378662109375,-0.0361328125,-0.01519775390625,1.0017242431640625
1768576268350378500,0.36737841796875,-0.0400543212890625,-0.016021728515625,1.0002593994140625
1768576268360378600,0.377378662109375,-0.0388031005859375,-0.016510009765625,1.00030517578125
1768576268370377500,0.38737744140625,-0.0368194580078125,-0.016326904296875,0.9999542236328125
1768576268380377600,0.397377685546875,-0.038726806640625,-0.015838623046875,1.000823974609375
1768576268390377500,0.40737744140625,-0.038330078125,-0.01531982421875,0.9994659423828125
1768576268400377600,0.417377685546875,-0.0382843017578125,-0.016754150390625,0.9994354248046875
1768576268410376400,0.42737646484375,-0.0381011962890625,-0.017913818359375,0.9991912841796875
1768576268420376600,0.43737646484375,-0.0417327880859375,-0.0159454345703125,1.0006103515625
1768576268430376400,0.44737646484375,-0.0385284423828125,-0.0166168212890625,1.001129150390625
1768576268440376600,0.45737646484375,-0.0375213623046875,-0.014739990234375,1.0025787353515625
1768576268450376400,0.46737646484375,-0.0361175537109375,-0.0151214599609375,1.00146484375
1768576268460375600,0.47737548828125,-0.032196044921875,-0.015777587890625,1.00177001953125
1768576268470375400,0.48737548828125,-0.035247802734375,-0.017822265625,1.0035400390625
1768576268480375600,0.49737548828125,-0.03936767578125,-0.01751708984375,1.002532958984375
1768576268490375400,0.50737548828125,-0.0396575927734375,-0.0168609619140625,1.00262451171875
1768576268500375600,0.51737548828125,-0.0407867431640625,-0.01739501953125,1.002349853515625
1768576268510374700,0.527374755859375,-0.035797119140625,-0.0178375244140625,1.003631591796875
1768576268520374500,0.53737451171875,-0.0361175537109375,-0.02020263671875,1.0019378662109375
1768576268530374400,0.54737451171875,-0.035888671875,-0.017669677734375,1.000396728515625
1768576268540374500,0.55737451171875,-0.0370635986328125,-0.0172576904296875,0.9981231689453125
1768576268550374400,0.56737451171875,-0.036041259765625,-0.0169219970703125,0.9988861083984375
1768576268560373500,0.57737353515625,-0.03826904296875,-0.0182647705078125,0.9962158203125
1768576268570373600,0.58737353515625,-0.0406036376953125,-0.01715087890625,0.9988250732421875
1768576268580373500,0.59737353515625,-0.038482666015625,-0.019989013671875,1
1768576268590373600,0.60737353515625,-0.0413818359375,-0.0206146240234375,1.002227783203125
1768576268600373500,0.61737353515625,-0.0401153564453125,-0.018463134765625,1.0058746337890625
1768576268610372600,0.62737255859375,-0.0351715087890625,-0.0189971923828125,1.0043487548828125
1768576268620372500,0.63737255859375,-0.0362091064453125,-0.0168304443359375,1.0013427734375
1768576268630372600,0.64737255859375,-0.037017822265625,-0.0163726806640625,1.002471923828125
1768576268640372500,0.65737255859375,-0.0422210693359375,-0.0150146484375,1.0008697509765625
1768576268650372600,0.66737255859375,-0.0444183349609375,-0.015625,0.9983673095703125
1768576268660371500,0.677371337890625,-0.0418701171875,-0.014007568359375,1.0019378662109375
1768576268670371600,0.68737158203125,-0.0417938232421875,-0.016021728515625,0.9993133544921875
1768576268680371500,0.697371337890625,-0.044586181640625,-0.015380859375,0.9977874755859375
1768576268690371600,0.70737158203125,-0.04083251953125,-0.017120361328125,0.9990386962890625
1768576268700371500,0.717371337890625,-0.04266357421875,-0.01776123046875,0.9995269775390625
1768576268710370600,0.72737060546875,-0.0430755615234375,-0.0160675048828125,1.0019683837890625
1768576268720370400,0.737370361328125,-0.043975830078125,-0.0179595947265625,1.0003204345703125
1768576268730370600,0.74737060546875,-0.044708251953125,-0.0198822021484375,0.9991302490234375
1768576268740370400,0.757370361328125,-0.04559326171875,-0.019744873046875,0.99932861328125
1768576268750369500,0.76736962890625,-0.0457763671875,-0.019805908203125,0.998291015625
1768576268760369700,0.77736962890625,-0.0408935546875,-0.02032470703125,0.9979400634765625
1768576268770369500,0.78736962890625,-0.038330078125,-0.020599365234375,1.0000762939453125
1768576268780369400,0.797369384765625,-0.039306640625,-0.02093505859375,1.0029144287109375
1768576268790369500,0.80736962890625,-0.039276123046875,-0.01885986328125,1.0039215087890625
1768576268800368600,0.81736865234375,-0.039520263671875,-0.018096923828125,1.003631591796875
1768576268810368500,0.827368408203125,-0.0383758544921875,-0.017425537109375,1.0016021728515625
1768576268820368600,0.83736865234375,-0.0416259765625,-0.017364501953125,0.9980621337890625
1768576268830368500,0.847368408203125,-0.044830322265625,-0.01763916015625,0.9984588623046875
1768576268840368400,0.857368408203125,-0.0437164306640625,-0.01666259765625,0.999176025390625
1768576268850367500,0.867367431640625,-0.0447235107421875,-0.0163726806640625,0.999725341796875
1768576268860367600,0.87736767578125,-0.0422821044921875,-0.017608642578125,0.9995269775390625
1768576268870367500,0.887367431640625,-0.0390777587890625,-0.0194244384765625,0.99920654296875
1768576268880367600,0.89736767578125,-0.0413818359375,-0.0172576904296875,0.9962921142578125
1768576268890367500,0.907367431640625,-0.0372467041015625,-0.016204833984375,1.0018157958984375
1768576268900366600,0.91736669921875,-0.040283203125,-0.0164337158203125,1.0056304931640625
1768576268910366500,0.927366455078125,-0.0415496826171875,-0.0147552490234375,1.0053253173828125
1768576268920366600,0.93736669921875,-0.039703369140625,-0.0138092041015625,1.0048065185546875
1768576268930366500,0.947366455078125,-0.0388031005859375,-0.0145721435546875,1.005279541015625
1768576268940366600,0.95736669921875,-0.0421142578125,-0.017181396484375,1.0027618408203125
1768576268950365400,0.967365478515625,-0.0451202392578125,-0.0176849365234375,0.996795654296875
1768576268960365600,0.977365478515625,-0.0460052490234375,-0.0161895751953125,0.9949798583984375
1768576268970365400,0.987365478515625,-0.0459442138671875,-0.01605224609375,0.9978790283203125
1768576268980365600,0.997365478515625,-0.03814697265625,-0.018524169921875,1.00152587890625
1768576268990365400,1.007365478515625,-0.04327392578125,-0.01806640625,1.0008544921875
1768576269000364500,1.017364501953125,-0.041412353515625,-0.019256591796875,1.0009765625
1768576269010364400,1.027364501953125,-0.040771484375,-0.019561767578125,0.9974517822265625
1768576269020364500,1.037364501953125,-0.0420074462890625,-0.0189056396484375,0.998016357421875
1768576269030364400,1.047364501953125,-0.04302978515625,-0.0174560546875,1.00067138671875
1768576269040364500,1.057364501953125,-0.0457000732421875,-0.0146636962890625,1.0023345947265625
1768576269050363600,1.06736376953125,-0.043212890625,-0.0127410888671875,1.0032806396484375
1768576269060363500,1.077363525390625,-0.0405120849609375,-0.014312744140625,1.0059967041015625
1768576269070363600,1.08736376953125,-0.03802490234375,-0.016510009765625,1.00396728515625
1768576269080363500,1.097363525390625,-0.0421295166015625,-0.0191802978515625,0.99969482421875
1768576269090362600,1.107362548828125,-0.0435638427734375,-0.0195770263671875,0.998809814453125
1768576269100362500,1.117362548828125,-0.0405120849609375,-0.02044677734375,0.9966888427734375
1768576269110362600,1.127362548828125,-0.03955078125,-0.0186767578125,0.99530029296875
1768576269120362500,1.137362548828125,-0.03936767578125,-0.017547607421875,0.9969940185546875
1768576269130362600,1.147362548828125,-0.042236328125,-0.015777587890625,1.0015106201171875
1768576269140361500,1.157361572265625,-0.0440216064453125,-0.0142974853515625,1.0011749267578125
1768576269150361600,1.167361572265625,-0.0413665771484375,-0.016082763671875,1.002960205078125
1768576269160361500,1.177361572265625,-0.0432281494140625,-0.01873779296875,1.0018157958984375
1768576269170361600,1.187361572265625,-0.04681396484375,-0.015869140625,0.9990997314453125
1768576269180361500,1.197361572265625,-0.0396881103515625,-0.01483154296875,1.000091552734375
1768576269190360600,1.207360595703125,-0.0396728515625,-0.0155181884765625,1.0040130615234375
1768576269200360400,1.2173603515625,-0.043182373046875,-0.017120361328125,1.0026397705078125
1768576269210360600,1.227360595703125,-0.0426177978515625,-0.018218994140625,1.0015716552734375
1768576269220360400,1.2373603515625,-0.04034423828125,-0.01873779296875,1.001220703125
1768576269230360600,1.247360595703125,-0.0410614013671875,-0.0173187255859375,0.99725341796875
1768576269240359400,1.257359375,-0.0397796630859375,-0.0172119140625,0.9986419677734375
1768576269250359600,1.267359619140625,-0.040679931640625,-0.018402099609375,0.998565673828125
1768576269260359400,1.277359375,-0.045623779296875,-0.018890380859375,0.998443603515625
1768576269270359600,1.287359619140625,-0.04693603515625,-0.020355224609375,0.99957275390625
1768576269280359400,1.297359375,-0.0449676513671875,-0.0222015380859375,1.00201416015625
1768576269290358500,1.307358642578125,-0.042083740234375,-0.0199127197265625,1.00311279296875
1768576269300358700,1.317358642578125,-0.03546142578125,-0.018402099609375,1.004150390625
1768576269310358500,1.327358642578125,-0.0358734130859375,-0.0165252685546875,1.0007476806640625
1768576269320358400,1.3373583984375,-0.039703369140625,-0.014434814453125,1.0017547607421875
1768576269330358500,1.347358642578125,-0.0437469482421875,-0.0142059326171875,1.0010986328125
1768576269340357600,1.357357666015625,-0.0457611083984375,-0.0153350830078125,1.0005645751953125
1768576269350357500,1.367357421875,-0.04736328125,-0.015838623046875,0.99871826171875
1768576269360357600,1.377357666015625,-0.0453338623046875,-0.0157012939453125,0.9986572265625
1768576269370357500,1.387357421875,-0.0442047119140625,-0.0160369873046875,0.9985198974609375
1768576269380357400,1.397357421875,-0.043243408203125,-0.016876220703125,0.998504638671875
1768576269390356500,1.4073564453125,-0.0423583984375,-0.018341064453125,1.0008544921875
1768576269400356600,1.417356689453125,-0.0425262451171875,-0.0185546875,1.003173828125
1768576269410356500,1.4273564453125,-0.044677734375,-0.0187835693359375,0.99993896484375
1768576269420356600,1.437356689453125,-0.04486083984375,-0.0167236328125,0.9994964599609375
1768576269430355500,1.44735546875,-0.0451812744140625,-0.01898193359375,1.0032806396484375
1768576269440355600,1.45735546875,-0.0465240478515625,-0.017822265625,1.00335693359375
1768576269450355500,1.46735546875,-0.0489959716796875,-0.01763916015625,1.002349853515625
1768576269460355600,1.47735546875,-0.04754638671875,-0.0179595947265625,1.0012969970703125
1768576269470355500,1.48735546875,-0.0450286865234375,-0.0192108154296875,1.0010986328125
1768576269480354600,1.4973544921875,-0.0467681884765625,-0.0196685791015625,0.99969482421875
1768576269490354400,1.5073544921875,-0.04705810546875,-0.019927978515625,0.9980926513671875
1768576269500354600,1.5173544921875,-0.0433807373046875,-0.020050048828125,1.0005950927734375
1768576269510354400,1.5273544921875,-0.046051025390625,-0.02032470703125,1.0006866455078125
1768576269520354600,1.5373544921875,-0.04754638671875,-0.017913818359375,0.997833251953125
1768576269530353700,1.547353759765625,-0.04473876953125,-0.0178070068359375,0.9989776611328125
1768576269540353500,1.557353515625,-0.0467071533203125,-0.017669677734375,1.0020599365234375
1768576269550353400,1.567353515625,-0.04656982421875,-0.0161590576171875,0.99945068359375
1768576269560353500,1.577353515625,-0.0465850830078125,-0.0164794921875,0.9990997314453125
1768576269570353400,1.587353515625,-0.048797607421875,-0.0172119140625,1.00018310546875
1768576269580352500,1.5973525390625,-0.046539306640625,-0.0184326171875,1.000518798828125
1768576269590352600,1.6073525390625,-0.04669189453125,-0.018310546875,0.999847412109375
1768576269600352500,1.6173525390625,-0.0454254150390625,-0.0181427001953125,1.00018310546875
1768576269610352600,1.6273525390625,-0.0406341552734375,-0.0172576904296875,1.00244140625
1768576269620352500,1.6373525390625,-0.041351318359375,-0.0167999267578125,1.0041046142578125
1768576269630351600,1.6473515625,-0.0433502197265625,-0.0193939208984375,1.0042877197265625
1768576269640351500,1.6573515625,-0.04327392578125,-0.0191192626953125,1.0013427734375
1768576269650351600,1.6673515625,-0.042755126953125,-0.0195159912109375,0.9989471435546875
1768576269660351500,1.6773515625,-0.043487548828125,-0.0188140869140625,0.9981842041015625
1768576269670351600,1.6873515625,-0.04498291015625,-0.017669677734375,0.99755859375
1768576269680350500,1.6973505859375,-0.0452117919921875,-0.019256591796875,0.997772216796875
1768576269690350600,1.7073505859375,-0.0466461181640625,-0.020294189453125,0.9995880126953125
1768576269700350500,1.7173505859375,-0.0447998046875,-0.0192108154296875,0.999420166015625
1768576269710350600,1.7273505859375,-0.04656982421875,-0.0169219970703125,1.001373291015625
1768576269720350500,1.7373505859375,-0.0449066162109375,-0.01690673828125,1.000701904296875
1768576269730349600,1.747349609375,-0.045928955078125,-0.0149688720703125,1.0032958984375
1768576269740349400,1.757349365234375,-0.0459747314453125,-0.01434326171875,1.0019989013671875
1768576269750349600,1.767349609375,-0.045501708984375,-0.0160980224609375,0.99896240234375
1768576269760349400,1.777349365234375,-0.046478271484375,-0.0159149169921875,0.9967041015625
1768576269770349600,1.787349609375,-0.045928955078125,-0.0159912109375,0.9998931884765625
1768576269780348400,1.797348388671875,-0.0476531982421875,-0.0162506103515625,0.997222900390625
1768576269790348500,1.8073486328125,-0.047088623046875,-0.015106201171875,0.9971771240234375
1768576269800348400,1.817348388671875,-0.0448760986328125,-0.0169677734375,1.0003814697265625
1768576269810348500,1.8273486328125,-0.044952392578125,-0.0175323486328125,1.0020751953125
1768576269820347600,1.83734765625,-0.0439910888671875,-0.01776123046875,1.000152587890625
1768576269830347500,1.847347412109375,-0.0439605712890625,-0.0170440673828125,1.00140380859375
1768576269840347600,1.85734765625,-0.0457305908203125,-0.0163421630859375,0.998565673828125
1768576269850347500,1.867347412109375,-0.046661376953125,-0.0177459716796875,0.9983978271484375
1768576269860347400,1.877347412109375,-0.046173095703125,-0.0152130126953125,0.9988250732421875
1768576269870346500,1.887346435546875,-0.0443572998046875,-0.0177764892578125,1.00091552734375
1768576269880346600,1.8973466796875,-0.0451202392578125,-0.01776123046875,1.0024261474609375
1768576269890346500,1.907346435546875,-0.0472412109375,-0.014892578125,1.002716064453125
1768576269900346600,1.9173466796875,-0.0450286865234375,-0.0159912109375,1.0049591064453125
1768576269910346500,1.927346435546875,-0.04595947265625,-0.0160675048828125,1.0015869140625
1768576269920345600,1.937345703125,-0.0445556640625,-0.01318359375,1.00048828125
1768576269930345500,1.947345458984375,-0.0404510498046875,-0.0113372802734375,0.9995269775390625
1768576269940345600,1.957345703125,-0.04156494140625,-0.013336181640625,0.998504638671875
1768576269950345500,1.967345458984375,-0.0463714599609375,-0.0164794921875,0.9990234375
1768576269960345600,1.977345703125,-0.0482177734375,-0.0184173583984375,0.99932861328125
1768576269970344400,1.987344482421875,-0.0471649169921875,-0.0198516845703125,0.9998626708984375
1768576269980344600,1.997344482421875,-0.0438385009765625,-0.0187835693359375,1.000885009765625
1768576269990344400,2.007344482421875,-0.0426177978515625,-0.0187835693359375,1.0013885498046875
1768576270000344600,2.017344482421875,-0.04010009765625,-0.017730712890625,1.002685546875
1768576270010344400,2.027344482421875,-0.0379180908203125,-0.01708984375,1.002532958984375
1768576270020343600,2.037343505859375,-0.041839599609375,-0.01629638671875,1.00030517578125
1768576270030343400,2.047343505859375,-0.044952392578125,-0.0162506103515625,0.999725341796875
1768576270040343800,2.05734375,-0.046661376953125,-0.017913818359375,0.9993896484375
1768576270050343700,2.06734375,-0.0468292236328125,-0.01568603515625,0.9996337890625
1768576270060343800,2.07734375,-0.0432891845703125,-0.01495361328125,1.0007476806640625
1768576270070342700,2.0873427734375,-0.0444183349609375,-0.0138397216796875,1.0006103515625
1768576270080342800,2.0973427734375,-0.042449951171875,-0.014007568359375,1.000762939453125
1768576270090342700,2.1073427734375,-0.0410003662109375,-0.0146331787109375,1.0009918212890625
1768576270100342800,2.1173427734375,-0.0412750244140625,-0.01690673828125,1.0017547607421875
1768576270110342700,2.1273427734375,-0.04302978515625,-0.0158538818359375,1.0003204345703125
1768576270120341800,2.137341796875,-0.04254150390625,-0.0177154541015625,1.00201416015625
1768576270130342000,2.147341796875,-0.0400543212890625,-0.017303466796875,1.0016021728515625
1768576270140341800,2.157341796875,-0.04254150390625,-0.016387939453125,0.9996795654296875
1768576270150341600,2.167341552734375,-0.044464111328125,-0.017059326171875,0.9993133544921875
1768576270160341800,2.177341796875,-0.044219970703125,-0.017364501953125,1.0001373291015625
1768576270170340900,2.1873408203125,-0.042633056640625,-0.0177154541015625,1.0004730224609375
1768576270180340700,2.1973408203125,-0.041961669921875,-0.0189971923828125,1.0001373291015625
1768576270190340900,2.2073408203125,-0.043853759765625,-0.0196075439453125,0.9986724853515625
1768576270200340700,2.2173408203125,-0.0405731201171875,-0.02056884765625,1.00177001953125
1768576270210340900,2.2273408203125,-0.040283203125,-0.0195159912109375,1.0015869140625
1768576270220339700,2.237339599609375,-0.0407867431640625,-0.01800537109375,1.0005340576171875
1768576270230339800,2.24733984375,-0.0396575927734375,-0.017181396484375,1.0014190673828125
1768576270240339700,2.257339599609375,-0.0389404296875,-0.0169830322265625,0.9992523193359375
1768576270250339800,2.26733984375,-0.0383148193359375,-0.01617431640625,0.9986114501953125
1768576270260339700,2.277339599609375,-0.037872314453125,-0.015655517578125,0.9977569580078125
1768576270270338800,2.2873388671875,-0.04144287109375,-0.0157928466796875,1.0001373291015625
1768576270280338700,2.297338623046875,-0.038543701171875,-0.016021728515625,1.000396728515625
1768576270290338800,2.3073388671875,-0.0391693115234375,-0.0156707763671875,1.00042724609375
1768576270300338700,2.317338623046875,-0.0407257080078125,-0.017425537109375,0.9997406005859375
1768576270310338800,2.3273388671875,-0.0411376953125,-0.017120361328125,1.001068115234375
1768576270320337700,2.337337646484375,-0.0382080078125,-0.015838623046875,1.003021240234375
1768576270330337800,2.347337890625,-0.0430145263671875,-0.015380859375,1.0011138916015625
1768576270340337700,2.357337646484375,-0.040679931640625,-0.017242431640625,1.0007171630859375
1768576270350337800,2.367337890625,-0.03997802734375,-0.019622802734375,1.0008392333984375
1768576270360337000,2.3773369140625,-0.0413970947265625,-0.0191650390625,1.0013885498046875
1768576270370336800,2.387336669921875,-0.0402374267578125,-0.01971435546875,1.0007171630859375
1768576270380336600,2.397336669921875,-0.040618896484375,-0.017547607421875,1.000885009765625
1768576270390336800,2.407336669921875,-0.0388336181640625,-0.014251708984375,1.0008392333984375
1768576270400336600,2.417336669921875,-0.040771484375,-0.0130615234375,1
1768576270410335700,2.427335693359375,-0.04327392578125,-0.0132904052734375,0.9990386962890625
1768576270420335900,2.4373359375,-0.0416107177734375,-0.0120391845703125,0.999755859375
1768576270430335700,2.447335693359375,-0.0420379638671875,-0.0134429931640625,0.998992919921875
1768576270440336000,2.4573359375,-0.0441741943359375,-0.0130615234375,0.996978759765625
1768576270450335700,2.467335693359375,-0.0413360595703125,-0.0160980224609375,0.998291015625
1768576270460334800,2.4773349609375,-0.038543701171875,-0.016357421875,0.9991912841796875
1768576270470334700,2.487334716796875,-0.04058837890625,-0.0162200927734375,0.9996337890625
1768576270480334800,2.4973349609375,-0.0404052734375,-0.0171356201171875,1.0016326904296875
1768576270490334700,2.507334716796875,-0.0411224365234375,-0.016632080078125,1.0027313232421875
1768576270500334800,2.5173349609375,-0.0467529296875,-0.0152740478515625,1.001861572265625
1768576270510333700,2.527333740234375,-0.0451812744140625,-0.01470947265625,1.002288818359375
1768576270520333800,2.537333740234375,-0.042510986328125,-0.016632080078125,1.0025177001953125
1768576270530333700,2.547333740234375,-0.04119873046875,-0.01513671875,0.999664306640625
1768576270540333800,2.557333740234375,-0.040924072265625,-0.01580810546875,0.9987945556640625
1768576270550333700,2.567333740234375,-0.040771484375,-0.0186920166015625,1.0014495849609375
1768576270560332800,2.577332763671875,-0.037750244140625,-0.0194244384765625,1.00238037109375
1768576270570332700,2.587332763671875,-0.0386962890625,-0.018310546875,1.0023956298828125
1768576270580332800,2.597332763671875,-0.043792724609375,-0.018951416015625,1.00225830078125
1768576270590332700,2.607332763671875,-0.043060302734375,-0.0167694091796875,0.99981689453125
1768576270600332800,2.617332763671875,-0.0420684814453125,-0.014739990234375,1.001678466796875
1768576270610331600,2.62733154296875,-0.043121337890625,-0.0153961181640625,1.0019683837890625
1768576270620331800,2.637331787109375,-0.04241943359375,-0.0181121826171875,1.0026397705078125
1768576270630331600,2.64733154296875,-0.04058837890625,-0.0176239013671875,1.0013885498046875
1768576270640331800,2.657331787109375,-0.03839111328125,-0.01629638671875,1.0007476806640625
1768576270650331600,2.66733154296875,-0.0403289794921875,-0.0157470703125,0.9993133544921875
1768576270660330800,2.677330810546875,-0.04351806640625,-0.0166168212890625,1.000091552734375
1768576270670331000,2.687330810546875,-0.0411224365234375,-0.017852783203125,1.000213623046875
1768576270680330800,2.697330810546875,-0.0391998291015625,-0.01873779296875,1.0004119873046875
1768576270690330600,2.70733056640625,-0.0413055419921875,-0.0196990966796875,1.00030517578125
1768576270700330800,2.717330810546875,-0.0431671142578125,-0.01953125,1.001434326171875
1768576270710329900,2.727329833984375,-0.0440826416015625,-0.019195556640625,1.001953125
1768576270720329700,2.737329833984375,-0.0402374267578125,-0.018585205078125,1.0010833740234375
1768576270730329900,2.747329833984375,-0.0399932861328125,-0.0163726806640625,0.9979248046875
1768576270740329700,2.757329833984375,-0.044403076171875,-0.015472412109375,0.997100830078125
1768576270750329900,2.767329833984375,-0.0445709228515625,-0.015716552734375,0.9992523193359375
1768576270760328700,2.77732861328125,-0.040618896484375,-0.014007568359375,1.0003509521484375
1768576270770328800,2.787328857421875,-0.0439453125,-0.0136260986328125,0.999176025390625
1768576270780328700,2.79732861328125,-0.045074462890625,-0.0147857666015625,1.001129150390625
1768576270790328800,2.807328857421875,-0.041656494140625,-0.017425537109375,1.00238037109375
1768576270800328700,2.81732861328125,-0.0419158935546875,-0.02044677734375,1.001922607421875
1768576270810327800,2.827327880859375,-0.0396881103515625,-0.022247314453125,0.9995574951171875
1768576270820327700,2.83732763671875,-0.04620361328125,-0.0203704833984375,0.9966583251953125
1768576270830327800,2.847327880859375,-0.044952392578125,-0.0181732177734375,1.0026702880859375
1768576270840327700,2.85732763671875,-0.041656494140625,-0.0162353515625,1.003448486328125
1768576270850327800,2.867327880859375,-0.0431671142578125,-0.0160369873046875,1.00213623046875
1768576270860326700,2.87732666015625,-0.0463409423828125,-0.0160369873046875,1.00335693359375
1768576270870326800,2.887326904296875,-0.043914794921875,-0.0162811279296875,1.003662109375
1768576270880326700,2.89732666015625,-0.04339599609375,-0.0173797607421875,0.9998626708984375
1768576270890326800,2.907326904296875,-0.0418853759765625,-0.0180816650390625,0.998779296875
1768576270900326700,2.91732666015625,-0.04058837890625,-0.017303466796875,0.99847412109375
1768576270910325800,2.92732568359375,-0.0401763916015625,-0.0185546875,0.9991912841796875
1768576270920325600,2.93732568359375,-0.04156494140625,-0.0211334228515625,0.9989776611328125
1768576270930325800,2.94732568359375,-0.0460205078125,-0.0221405029296875,0.9969024658203125
1768576270940325600,2.95732568359375,-0.0466766357421875,-0.021270751953125,0.99981689453125
1768576270950325800,2.96732568359375,-0.04339599609375,-0.020294189453125,1.001495361328125
1768576270960324900,2.977324951171875,-0.041534423828125,-0.01690673828125,0.9972991943359375
1768576270970324700,2.98732470703125,-0.0416107177734375,-0.0165863037109375,0.99920654296875
1768576270980324900,2.997324951171875,-0.043609619140625,-0.0155792236328125,1.0000762939453125
1768576270990324700,3.00732470703125,-0.0439605712890625,-0.0146026611328125,1.002349853515625
1768576271000324600,3.01732470703125,-0.04412841796875,-0.014251708984375,1.00311279296875
1768576271010323700,3.02732373046875,-0.045654296875,-0.0137481689453125,1.0042266845703125
1768576271020323800,3.03732373046875,-0.0485076904296875,-0.0150146484375,1.0017852783203125
1768576271030323700,3.04732373046875,-0.0463104248046875,-0.0162353515625,1.0001068115234375
1768576271040324000,3.057323974609375,-0.043975830078125,-0.0182952880859375,0.9993133544921875
1768576271050324000,3.067323974609375,-0.0432281494140625,-0.0191650390625,0.9993896484375
1768576271060323000,3.077322998046875,-0.044097900390625,-0.0203704833984375,1.0000152587890625
1768576271070323000,3.087322998046875,-0.04803466796875,-0.02197265625,0.9991607666015625
1768576271080323000,3.097322998046875,-0.0462799072265625,-0.019073486328125,0.9988861083984375
1768576271090323000,3.107322998046875,-0.0425567626953125,-0.0188751220703125,0.9997711181640625
1768576271100323000,3.117322998046875,-0.0455780029296875,-0.0180511474609375,0.9986572265625
1768576271110322000,3.127322021484375,-0.0480194091796875,-0.0175933837890625,0.99932861328125
1768576271120322000,3.137322021484375,-0.0489501953125,-0.016143798828125,1.002655029296875
1768576271130322000,3.147322021484375,-0.050750732421875,-0.01434326171875,1.00091552734375
1768576271140322000,3.157322021484375,-0.05035400390625,-0.0146942138671875,1.00146484375
1768576271150322000,3.167322021484375,-0.0478515625,-0.0163421630859375,1.0006256103515625
1768576271160321000,3.177321044921875,-0.04595947265625,-0.0164947509765625,0.9990081787109375
1768576271170321000,3.18732080078125,-0.04510498046875,-0.0176239013671875,1.000335693359375
1768576271180321000,3.197321044921875,-0.048980712890625,-0.0150146484375,0.999908447265625
1768576271190321000,3.20732080078125,-0.0443572998046875,-0.0159759521484375,0.9983062744140625
1768576271200321000,3.217321044921875,-0.043609619140625,-0.0146636962890625,0.9998321533203125
1768576271210320000,3.22731982421875,-0.0479278564453125,-0.016876220703125,0.998504638671875
1768576271220320000,3.237320068359375,-0.0492095947265625,-0.0160064697265625,0.9989776611328125
1768576271230319900,3.24731982421875,-0.0464324951171875,-0.0170745849609375,1.000732421875
1768576271240320000,3.257320068359375,-0.04425048828125,-0.0163726806640625,1.003204345703125
1768576271250320000,3.26731982421875,-0.0443572998046875,-0.0154571533203125,1.0018768310546875
1768576271260319000,3.277319091796875,-0.04522705078125,-0.0134735107421875,1.0001678466796875
1768576271270319000,3.287319091796875,-0.047454833984375,-0.01275634765625,1.0009765625
1768576271280319000,3.297319091796875,-0.0487213134765625,-0.013458251953125,1.0001983642578125
1768576271290318800,3.30731884765625,-0.0494842529296875,-0.01385498046875,0.9985809326171875
1768576271300319000,3.317319091796875,-0.049407958984375,-0.01422119140625,0.9980316162109375
1768576271310318000,3.327318115234375,-0.0448150634765625,-0.0139923095703125,0.998443603515625
1768576271320318000,3.33731787109375,-0.0454864501953125,-0.01251220703125,1.0005645751953125
1768576271330318000,3.347318115234375,-0.04498291015625,-0.012908935546875,1.0019073486328125
1768576271340318000,3.35731787109375,-0.046051025390625,-0.0141143798828125,1.0013427734375
1768576271350318000,3.367318115234375,-0.04486083984375,-0.0146484375,0.9990234375
1768576271360317000,3.37731689453125,-0.0454254150390625,-0.012725830078125,0.997222900390625
1768576271370317000,3.387317138671875,-0.0429229736328125,-0.0115814208984375,0.9980316162109375
1768576271380317000,3.39731689453125,-0.0417938232421875,-0.01373291015625,0.9998626708984375
1768576271390317000,3.407317138671875,-0.0449676513671875,-0.014892578125,1.001129150390625
1768576271400317000,3.41731689453125,-0.0458984375,-0.01409912109375,1.002471923828125
1768576271410316000,3.42731591796875,-0.0435791015625,-0.0159454345703125,1.0037689208984375
1768576271420316000,3.43731591796875,-0.0472564697265625,-0.0144195556640625,1.001617431640625
1768576271430316000,3.44731591796875,-0.046478271484375,-0.01300048828125,1.0037841796875
1768576271440316000,3.45731591796875,-0.0396728515625,-0.013214111328125,1.0075836181640625
1768576271450316000,3.46731591796875,-0.0428466796875,-0.010162353515625,0.9968109130859375
1768576271460315000,3.47731494140625,-0.042724609375,-0.01385498046875,0.992431640625
1768576271470315000,3.48731494140625,-0.042083740234375,-0.014556884765625,1.000152587890625
1768576271480315000,3.49731494140625,-0.0456085205078125,-0.013519287109375,0.9990997314453125
1768576271490315000,3.50731494140625,-0.047119140625,-0.0137176513671875,0.9983673095703125
1768576271500315000,3.51731494140625,-0.045806884765625,-0.0133819580078125,1.001495361328125
1768576271510314000,3.52731396484375,-0.0433349609375,-0.0128021240234375,1.0002593994140625
1768576271520313900,3.53731396484375,-0.0414886474609375,-0.013580322265625,1.00164794921875
1768576271530314000,3.54731396484375,-0.0418548583984375,-0.0139923095703125,1.00048828125
1768576271540313900,3.55731396484375,-0.04388427734375,-0.0148468017578125,0.9988555908203125
1768576271550314000,3.56731396484375,-0.040374755859375,-0.0150299072265625,1.0019683837890625
1768576271560313000,3.57731298828125,-0.0425262451171875,-0.0152130126953125,1.000732421875
1768576271570313000,3.58731298828125,-0.0411834716796875,-0.016082763671875,1.0004425048828125
1768576271580313000,3.59731298828125,-0.0376739501953125,-0.018035888671875,1.003173828125
1768576271590313000,3.60731298828125,-0.040802001953125,-0.0184783935546875,1.003631591796875
1768576271600312800,3.617312744140625,-0.0414886474609375,-0.016143798828125,1.0001068115234375
1768576271610312000,3.62731201171875,-0.040374755859375,-0.0162811279296875,0.9983978271484375
1768576271620312000,3.63731201171875,-0.038604736328125,-0.014434814453125,0.996917724609375
1768576271630312000,3.64731201171875,-0.0412445068359375,-0.0151824951171875,0.9956817626953125
1768576271640312000,3.65731201171875,-0.0417022705078125,-0.01690673828125,0.9962921142578125
1768576271650312000,3.66731201171875,-0.0378265380859375,-0.0150146484375,0.998931884765625
1768576271660311000,3.67731103515625,-0.0382843017578125,-0.0156097412109375,1.000244140625
1768576271670311000,3.687310791015625,-0.0407867431640625,-0.0147705078125,1.0004119873046875
1768576271680311000,3.69731103515625,-0.0391387939453125,-0.0162506103515625,1.0027008056640625
1768576271690311000,3.707310791015625,-0.0372467041015625,-0.014434814453125,1.003082275390625
1768576271700311000,3.71731103515625,-0.0371551513671875,-0.015472412109375,1.00262451171875
1768576271710310000,3.727309814453125,-0.0360565185546875,-0.016448974609375,1.002105712890625
1768576271720310000,3.73731005859375,-0.0344390869140625,-0.015106201171875,1.0042266845703125
1768576271730310000,3.747309814453125,-0.0376434326171875,-0.0164794921875,1.0011749267578125
1768576271740310000,3.75731005859375,-0.035552978515625,-0.01361083984375,1.003936767578125
1768576271750310000,3.767309814453125,-0.036407470703125,-0.0137939453125,1.001708984375
1768576271760309000,3.77730908203125,-0.0354461669921875,-0.0153961181640625,1.0023040771484375
1768576271770308900,3.787308837890625,-0.0323333740234375,-0.0145721435546875,1.002227783203125
1768576271780309000,3.79730908203125,-0.03326416015625,-0.0151824951171875,1.000885009765625
1768576271790308900,3.807308837890625,-0.0362548828125,-0.015472412109375,0.9996185302734375
1768576271800309000,3.81730908203125,-0.0359954833984375,-0.0158233642578125,0.9997100830078125
1768576271810308000,3.82730810546875,-0.034088134765625,-0.015899658203125,1.0002288818359375
1768576271820308000,3.837307861328125,-0.034332275390625,-0.013946533203125,1.0008697509765625
1768576271830307800,3.847307861328125,-0.0351409912109375,-0.0122833251953125,1.001678466796875
1768576271840308000,3.857307861328125,-0.034698486328125,-0.0106353759765625,1.001678466796875
1768576271850307800,3.867307861328125,-0.0340728759765625,-0.0107421875,1.0017242431640625
1768576271860307000,3.877306884765625,-0.0333099365234375,-0.0124969482421875,1.0014801025390625
1768576271870307000,3.88730712890625,-0.0359954833984375,-0.01361083984375,1.001708984375
1768576271880307000,3.897306884765625,-0.03631591796875,-0.011993408203125,1.0007171630859375
1768576271890307000,3.90730712890625,-0.0373077392578125,-0.0116729736328125,0.9998931884765625
1768576271900307000,3.917306884765625,-0.0367279052734375,-0.01129150390625,0.999298095703125
1768576271910306000,3.92730615234375,-0.03717041015625,-0.0117340087890625,1.000518798828125
1768576271920306000,3.937305908203125,-0.0368804931640625,-0.010955810546875,0.9993743896484375
1768576271930306000,3.94730615234375,-0.0348052978515625,-0.0106964111328125,0.9993743896484375
1768576271940306000,3.957305908203125,-0.0330047607421875,-0.009063720703125,1.0008544921875
1768576271950306000,3.96730615234375,-0.033416748046875,-0.0095672607421875,1.0000152587890625
1768576271960305000,3.977304931640625,-0.0322418212890625,-0.009521484375,1.002899169921875
1768576271970305000,3.987304931640625,-0.03570556640625,-0.011962890625,1.00323486328125
1768576271980305000,3.997304931640625,-0.0367431640625,-0.0123138427734375,1.0020294189453125
1768576271990305000,4.007304931640625,-0.0366668701171875,-0.014495849609375,1.0011138916015625
1768576272000305000,4.017304931640625,-0.0359344482421875,-0.0134735107421875,1.0011138916015625
1768576272010304000,4.027303955078125,-0.03680419921875,-0.0126953125,1.0004119873046875
1768576272020304000,4.037303955078125,-0.0349884033203125,-0.0123443603515625,0.9997711181640625
1768576272030304000,4.047303955078125,-0.035491943359375,-0.011627197265625,1.000335693359375
1768576272040303900,4.057303955078125,-0.0360107421875,-0.0110931396484375,1.001983642578125
1768576272050304000,4.067303955078125,-0.0338897705078125,-0.01153564453125,1.0022735595703125
1768576272060302800,4.077302734375,-0.0334320068359375,-0.012481689453125,1.001495361328125
1768576272070302700,4.087302734375,-0.0356903076171875,-0.0128631591796875,1.0003509521484375
1768576272080302800,4.097302734375,-0.0374298095703125,-0.0126190185546875,1.0003662109375
1768576272090303000,4.107302978515625,-0.0319976806640625,-0.01312255859375,1.0008392333984375
1768576272100302800,4.117302734375,-0.0299224853515625,-0.0168914794921875,1.00030517578125
1768576272110301700,4.1273017578125,-0.032440185546875,-0.0175933837890625,1.00262451171875
1768576272120301800,4.1373017578125,-0.039886474609375,-0.0177459716796875,1.0027008056640625
1768576272130302000,4.147302001953125,-0.032379150390625,-0.0153961181640625,1.0019989013671875
1768576272140301800,4.1573017578125,-0.0294952392578125,-0.014556884765625,0.9998779296875
1768576272150302000,4.167302001953125,-0.02911376953125,-0.0124664306640625,0.998016357421875
1768576272160300800,4.17730078125,-0.0347900390625,-0.01263427734375,0.99957275390625
1768576272170300700,4.18730078125,-0.0391387939453125,-0.0099029541015625,1.001251220703125
1768576272180301000,4.197301025390625,-0.0370635986328125,-0.010955810546875,1.002685546875
1768576272190301000,4.207301025390625,-0.0380401611328125,-0.0123748779296875,1.0021514892578125
1768576272200301000,4.217301025390625,-0.03466796875,-0.01312255859375,1.0024261474609375
1768576272210299600,4.227299560546875,-0.03265380859375,-0.01568603515625,1.0042877197265625
1768576272220299800,4.2372998046875,-0.035430908203125,-0.015228271484375,1.0023651123046875
1768576272230300000,4.2472998046875,-0.0360870361328125,-0.01715087890625,0.9983367919921875
1768576272240300000,4.257300048828125,-0.0349578857421875,-0.0175933837890625,1.0010833740234375
1768576272250300000,4.2672998046875,-0.03167724609375,-0.01507568359375,1.00213623046875
1768576272260298800,4.277298828125,-0.0301055908203125,-0.0138092041015625,1.0003509521484375
1768576272270299000,4.287298828125,-0.0337982177734375,-0.0138702392578125,1.0006866455078125
1768576272280299000,4.297299072265625,-0.03607177734375,-0.0139007568359375,1.000885009765625
1768576272290299000,4.307298828125,-0.035675048828125,-0.014251708984375,1.001312255859375
1768576272300299000,4.317299072265625,-0.0355377197265625,-0.014678955078125,1.0011138916015625
1768576272310297600,4.327297607421875,-0.034393310546875,-0.0149078369140625,0.999664306640625
1768576272320298000,4.337298095703125,-0.03558349609375,-0.0133819580078125,1.001373291015625
1768576272330297900,4.3472978515625,-0.036102294921875,-0.0149383544921875,1.00128173828125
1768576272340298000,4.357298095703125,-0.0354156494140625,-0.0147857666015625,1.0016937255859375
1768576272350297900,4.3672978515625,-0.037017822265625,-0.0153045654296875,1.0012359619140625
1768576272360296700,4.377296630859375,-0.037689208984375,-0.015594482421875,1.0013275146484375
1768576272370296800,4.387296875,-0.0380859375,-0.01568603515625,0.99871826171875
1768576272380297000,4.397296875,-0.0369415283203125,-0.013916015625,0.998443603515625
1768576272390296800,4.407296875,-0.0378570556640625,-0.011962890625,0.999786376953125
1768576272400297000,4.417296875,-0.03717041015625,-0.01190185546875,0.9992828369140625
1768576272410295800,4.4272958984375,-0.0373382568359375,-0.0077056884765625,1.0006103515625
1768576272420296000,4.4372958984375,-0.0385894775390625,-0.0089874267578125,1.0015411376953125
1768576272430296000,4.447296142578125,-0.0388946533203125,-0.008209228515625,1.002105712890625
1768576272440296000,4.4572958984375,-0.038665771484375,-0.0106658935546875,1.0038909912109375
1768576272450295800,4.4672958984375,-0.0411224365234375,-0.012786865234375,1.0025634765625
1768576272460294700,4.477294677734375,-0.037078857421875,-0.0147552490234375,1.0012054443359375
1768576272470295000,4.487294921875,-0.0359954833984375,-0.015472412109375,0.9994049072265625
1768576272480295000,4.497294921875,-0.0386810302734375,-0.0173797607421875,0.9993743896484375
1768576272490295000,4.507294921875,-0.0377655029296875,-0.016510009765625,0.9998779296875
1768576272500295000,4.517294921875,-0.03497314453125,-0.0162200927734375,1.0004730224609375
1768576272510293800,4.527293701171875,-0.039031982421875,-0.0160980224609375,1.0006103515625
1768576272520294000,4.5372939453125,-0.0382843017578125,-0.0146484375,1.0012664794921875
1768576272530294000,4.5472939453125,-0.0374298095703125,-0.0139312744140625,1.0005645751953125
1768576272540294000,4.5572939453125,-0.0389556884765625,-0.01336669921875,0.9989471435546875
1768576272550294000,4.5672939453125,-0.0402069091796875,-0.0114288330078125,0.999237060546875
1768576272560292600,4.577292724609375,-0.0398406982421875,-0.011962890625,1.0003204345703125
1768576272570293000,4.58729296875,-0.039581298828125,-0.0107879638671875,1.00048828125
1768576272580292900,4.59729296875,-0.0410919189453125,-0.010589599609375,1.0005340576171875
1768576272590293000,4.60729296875,-0.0396270751953125,-0.01141357421875,1.000701904296875
1768576272600292900,4.61729296875,-0.038421630859375,-0.013824462890625,1.00213623046875
1768576272610292000,4.6272919921875,-0.0366973876953125,-0.01434326171875,1.00177001953125
1768576272620291800,4.637291748046875,-0.0389404296875,-0.01422119140625,1.0003662109375
1768576272630292000,4.6472919921875,-0.0387115478515625,-0.0146636962890625,0.9993896484375
1768576272640291800,4.657291748046875,-0.0393524169921875,-0.013336181640625,0.9996795654296875
1768576272650292000,4.6672919921875,-0.0381011962890625,-0.0127410888671875,0.9995574951171875
1768576272660291000,4.677291015625,-0.03790283203125,-0.0113983154296875,1.000030517578125
1768576272670291000,4.687291015625,-0.0366363525390625,-0.010345458984375,0.99945068359375
1768576272680290800,4.697290771484375,-0.0384979248046875,-0.010284423828125,1.0006103515625
1768576272690291000,4.707291015625,-0.041748046875,-0.011474609375,1.002777099609375
1768576272700290800,4.717290771484375,-0.0405731201171875,-0.01507568359375,1.0055694580078125
1768576272710290000,4.7272900390625,-0.043731689453125,-0.0148773193359375,1.0050506591796875
1768576272720290000,4.7372900390625,-0.0458831787109375,-0.016387939453125,1.0034332275390625
1768576272730290000,4.7472900390625,-0.0431060791015625,-0.0156402587890625,1.00274658203125
1768576272740290000,4.7572900390625,-0.041412353515625,-0.0148468017578125,1.000732421875
1768576272750290000,4.7672900390625,-0.0429229736328125,-0.014129638671875,0.9987335205078125
1768576272760289000,4.7772890625,-0.04241943359375,-0.0135040283203125,1.0012054443359375
1768576272770289000,4.787288818359375,-0.0461273193359375,-0.013458251953125,1.0004119873046875
1768576272780289000,4.7972890625,-0.04486083984375,-0.014739990234375,1.000091552734375
1768576272790289000,4.807288818359375,-0.0434112548828125,-0.0168304443359375,1.0001373291015625
1768576272800289000,4.8172890625,-0.0419158935546875,-0.01739501953125,1.0004730224609375
1768576272810287900,4.827287841796875,-0.035064697265625,-0.015350341796875,1.0016937255859375
1768576272820288000,4.8372880859375,-0.03717041015625,-0.01446533203125,1.0008544921875
1768576272830288000,4.847287841796875,-0.041473388671875,-0.01275634765625,0.9991302490234375
1768576272840288000,4.8572880859375,-0.0451812744140625,-0.0125732421875,0.9982452392578125
1768576272850287900,4.867287841796875,-0.0466461181640625,-0.0103912353515625,0.99945068359375
1768576272860287000,4.877286865234375,-0.04632568359375,-0.00970458984375,0.9999847412109375
1768576272870286800,4.887286865234375,-0.04248046875,-0.0116424560546875,0.9999847412109375
1768576272880287000,4.897286865234375,-0.0443115234375,-0.01348876953125,0.9991302490234375
1768576272890286800,4.907286865234375,-0.0422210693359375,-0.0149993896484375,0.99951171875
1768576272900287000,4.917286865234375,-0.040008544921875,-0.016204833984375,1.0004425048828125
1768576272910285800,4.927285888671875,-0.03997802734375,-0.0170135498046875,1.001220703125
1768576272920286000,4.937285888671875,-0.0391693115234375,-0.0157470703125,1.0016326904296875
1768576272930285800,4.947285888671875,-0.039215087890625,-0.013671875,1.0031280517578125
1768576272940286000,4.957285888671875,-0.0402069091796875,-0.01373291015625,1.002777099609375
1768576272950285800,4.967285888671875,-0.041778564453125,-0.012908935546875,1.0017242431640625
1768576272960285000,4.977284912109375,-0.042144775390625,-0.0146636962890625,0.99908447265625
1768576272970285000,4.98728515625,-0.042266845703125,-0.0145416259765625,0.9995269775390625
1768576272980285000,4.997284912109375,-0.039764404296875,-0.0150146484375,0.9991912841796875
1768576272990284800,5.007284912109375,-0.0403594970703125,-0.013671875,1.000091552734375
1768576273000285000,5.017284912109375,-0.0425567626953125,-0.0133514404296875,0.9980926513671875
1768576273010284000,5.027283935546875,-0.0430450439453125,-0.0125732421875,0.9982757568359375
1768576273020284000,5.037283935546875,-0.0440673828125,-0.0110931396484375,0.9998931884765625
1768576273030284000,5.047283935546875,-0.043853759765625,-0.01214599609375,1.0024871826171875
1768576273040283400,5.057283447265625,-0.0430450439453125,-0.012939453125,1.0049896240234375
1768576273050282500,5.067282470703125,-0.0429840087890625,-0.0136260986328125,1.0044097900390625
1768576273060282400,5.077282470703125,-0.0418243408203125,-0.010894775390625,1.000762939453125
1768576273070282500,5.087282470703125,-0.041015625,-0.0099945068359375,0.9977569580078125
1768576273080282400,5.097282470703125,-0.0435638427734375,-0.009185791015625,0.9984283447265625
1768576273090282500,5.107282470703125,-0.041107177734375,-0.0097808837890625,0.9995880126953125
1768576273100281600,5.117281494140625,-0.0412139892578125,-0.0113372802734375,0.9996185302734375
1768576273110281500,5.127281494140625,-0.0438690185546875,-0.0116729736328125,0.99981689453125
1768576273120281300,5.13728125,-0.04205322265625,-0.0119476318359375,0.99920654296875
1768576273130281500,5.147281494140625,-0.0413360595703125,-0.013824462890625,1.00128173828125
1768576273140281300,5.15728125,-0.040802001953125,-0.0138702392578125,1.001251220703125
1768576273150281500,5.167281494140625,-0.038543701171875,-0.01544189453125,1.001739501953125
1768576273160280600,5.177280517578125,-0.039093017578125,-0.0142669677734375,1.001922607421875
1768576273170280400,5.187280517578125,-0.04144287109375,-0.014556884765625,1.0027923583984375
1768576273180280300,5.1972802734375,-0.04278564453125,-0.014129638671875,1.00152587890625
1768576273190280400,5.207280517578125,-0.044708251953125,-0.013641357421875,1.0001983642578125
1768576273200279600,5.217279541015625,-0.0428924560546875,-0.01312255859375,0.999053955078125
1768576273210279400,5.227279541015625,-0.0424041748046875,-0.012115478515625,0.998260498046875
1768576273220279600,5.237279541015625,-0.042144775390625,-0.011749267578125,0.998046875
1768576273230279400,5.247279541015625,-0.0394439697265625,-0.0104217529296875,0.999267578125
1768576273240279600,5.257279541015625,-0.041259765625,-0.011627197265625,1.0001068115234375
1768576273250278400,5.2672783203125,-0.0432891845703125,-0.0132904052734375,1.0000152587890625
1768576273260278500,5.277278564453125,-0.0417022705078125,-0.012481689453125,1.000335693359375
1768576273270278400,5.2872783203125,-0.042449951171875,-0.0133514404296875,1.00042724609375
1768576273280278500,5.297278564453125,-0.0415191650390625,-0.01422119140625,1.0015716552734375
1768576273290278400,5.3072783203125,-0.0397186279296875,-0.01373291015625,1.0020904541015625
1768576273300277500,5.317277587890625,-0.04083251953125,-0.012603759765625,1.0013275146484375
1768576273310277400,5.32727734375,-0.0413055419921875,-0.013397216796875,0.99847412109375
1768576273320277500,5.337277587890625,-0.0436553955078125,-0.0135040283203125,0.998443603515625
1768576273330277400,5.34727734375,-0.0428619384765625,-0.0136871337890625,0.998870849609375
1768576273340277500,5.357277587890625,-0.0419158935546875,-0.013702392578125,0.999481201171875
1768576273350276400,5.3672763671875,-0.0396728515625,-0.0128021240234375,1.00103759765625
1768576273360276500,5.3772763671875,-0.039825439453125,-0.0107879638671875,1.0023345947265625
1768576273370276400,5.3872763671875,-0.041961669921875,-0.01043701171875,1.0047760009765625
1768576273380276500,5.3972763671875,-0.042877197265625,-0.0129547119140625,1.003173828125
1768576273390276400,5.4072763671875,-0.0442962646484375,-0.0147857666015625,1.0011749267578125
1768576273400275500,5.417275390625,-0.0410919189453125,-0.0146484375,1.0013580322265625
1768576273410275600,5.427275634765625,-0.0390167236328125,-0.016937255859375,0.9993896484375
1768576273420275500,5.437275390625,-0.0396728515625,-0.016845703125,0.9981689453125
1768576273430275300,5.447275390625,-0.0408935546875,-0.0162506103515625,0.998779296875
1768576273440275500,5.457275390625,-0.0416259765625,-0.0139007568359375,0.9992218017578125
1768576273450274600,5.467274658203125,-0.041046142578125,-0.014495849609375,0.999755859375
1768576273460274400,5.4772744140625,-0.0433197021484375,-0.0144195556640625,1.0013275146484375
1768576273470274600,5.487274658203125,-0.0456390380859375,-0.0147247314453125,1.00311279296875
1768576273480274400,5.4972744140625,-0.0402984619140625,-0.0141754150390625,1.0041961669921875
1768576273490274300,5.5072744140625,-0.0347137451171875,-0.0135345458984375,1.003662109375
1768576273500273400,5.5172734375,-0.0399932861328125,-0.011993408203125,0.999542236328125
1768576273510273500,5.5272734375,-0.0430755615234375,-0.0116119384765625,1.0005035400390625
1768576273520273400,5.5372734375,-0.0434112548828125,-0.01165771484375,1.001068115234375
1768576273530273500,5.5472734375,-0.0461273193359375,-0.0112762451171875,1.00103759765625
1768576273540273400,5.5572734375,-0.0433807373046875,-0.011566162109375,0.9988861083984375
1768576273550272500,5.5672724609375,-0.0440826416015625,-0.0130767822265625,0.9980316162109375
1768576273560272400,5.5772724609375,-0.0406036376953125,-0.0127410888671875,0.9979400634765625
1768576273570272500,5.5872724609375,-0.0401153564453125,-0.0122222900390625,1.000396728515625
1768576273580272400,5.5972724609375,-0.0417633056640625,-0.0118255615234375,1.001068115234375
1768576273590272500,5.6072724609375,-0.0383758544921875,-0.0133514404296875,1.003936767578125
1768576273600271400,5.617271240234375,-0.0397186279296875,-0.01416015625,1.0009765625
1768576273610271500,5.627271484375,-0.041107177734375,-0.0141143798828125,1.000579833984375
1768576273620271400,5.637271240234375,-0.0382080078125,-0.0140533447265625,1.0013275146484375
1768576273630271500,5.647271484375,-0.0378875732421875,-0.012908935546875,1.0012359619140625
1768576273640271400,5.657271240234375,-0.037139892578125,-0.013580322265625,1.003204345703125
1768576273650270500,5.6672705078125,-0.04095458984375,-0.0121002197265625,1.00439453125
1768576273660270300,5.677270263671875,-0.0438385009765625,-0.012939453125,1.0000457763671875
1768576273670270500,5.6872705078125,-0.0426788330078125,-0.01385498046875,0.9985809326171875
1768576273680270300,5.697270263671875,-0.0427703857421875,-0.0164337158203125,0.998992919921875
1768576273690270500,5.7072705078125,-0.0429229736328125,-0.0161895751953125,0.9972076416015625
1768576273700269600,5.71726953125,-0.0415496826171875,-0.0152740478515625,0.9983978271484375
1768576273710269400,5.72726953125,-0.040740966796875,-0.0149078369140625,0.999420166015625
1768576273720269600,5.73726953125,-0.0407257080078125,-0.0128326416015625,1.0007476806640625
1768576273730269400,5.74726953125,-0.0403900146484375,-0.0129241943359375,1.002197265625
1768576273740269300,5.757269287109375,-0.042327880859375,-0.0132598876953125,1.0016937255859375
1768576273750268400,5.767268310546875,-0.041748046875,-0.011688232421875,1.002410888671875
1768576273760268500,5.7772685546875,-0.0419464111328125,-0.013397216796875,1.0004119873046875
1768576273770268400,5.787268310546875,-0.0396881103515625,-0.013031005859375,1.0015106201171875
1768576273780268500,5.7972685546875,-0.04107666015625,-0.01275634765625,1.0009765625
1768576273790268400,5.807268310546875,-0.042236328125,-0.013031005859375,0.9978790283203125
1768576273800267500,5.817267578125,-0.038818359375,-0.0117034912109375,0.99957275390625
1768576273810267400,5.827267333984375,-0.0369873046875,-0.013916015625,1.0009002685546875
1768576273820267500,5.837267578125,-0.0389556884765625,-0.013885498046875,0.9995880126953125
1768576273830267400,5.847267333984375,-0.0392913818359375,-0.0166015625,0.998931884765625
1768576273840267500,5.857267578125,-0.042755126953125,-0.0175323486328125,0.99951171875
1768576273850266400,5.867266357421875,-0.0412750244140625,-0.0171966552734375,0.99957275390625
1768576273860266500,5.8772666015625,-0.037994384765625,-0.015411376953125,0.9998321533203125
1768576273870266400,5.887266357421875,-0.038482666015625,-0.0149688720703125,1.0004119873046875
1768576273880266500,5.8972666015625,-0.0404205322265625,-0.012481689453125,1.0002899169921875
1768576273890266400,5.907266357421875,-0.0389404296875,-0.0121612548828125,0.999847412109375
1768576273900265500,5.917265380859375,-0.03900146484375,-0.0119781494140625,1.00048828125
1768576273910265300,5.927265380859375,-0.0370025634765625,-0.0123291015625,1.0019378662109375
1768576273920265500,5.937265380859375,-0.0372772216796875,-0.011138916015625,1.001068115234375
1768576273930265300,5.947265380859375,-0.0374603271484375,-0.013824462890625,0.998626708984375
1768576273940265500,5.957265380859375,-0.036834716796875,-0.0138092041015625,0.99945068359375
1768576273950264600,5.9672646484375,-0.034088134765625,-0.0135498046875,1.0006561279296875
1768576273960264400,5.977264404296875,-0.0356597900390625,-0.013702392578125,1.0007781982421875
1768576273970264300,5.987264404296875,-0.034698486328125,-0.01385498046875,1.002197265625
1768576273980264400,5.997264404296875,-0.0353851318359375,-0.0140533447265625,1.000091552734375
1768576273990264300,6.007264404296875,-0.0369720458984375,-0.0121307373046875,0.999114990234375
1768576274000263400,6.017263427734375,-0.0337982177734375,-0.011260986328125,0.99932861328125
1768576274010263600,6.027263671875,-0.032806396484375,-0.0117950439453125,0.99761962890625
1768576274020263400,6.037263427734375,-0.03155517578125,-0.0125579833984375,0.9977264404296875
1768576274030263300,6.04726318359375,-0.0319061279296875,-0.0145111083984375,1.00018310546875
1768576274040263400,6.057263427734375,-0.031341552734375,-0.01605224609375,0.9981842041015625
1768576274050262500,6.067262451171875,-0.03094482421875,-0.0139007568359375,0.996063232421875
1768576274060262400,6.077262451171875,-0.02996826171875,-0.01434326171875,0.996826171875
1768576274070262500,6.087262451171875,-0.024658203125,-0.0143280029296875,0.998321533203125
1768576274080262400,6.097262451171875,-0.02410888671875,-0.0134124755859375,0.9983062744140625
1768576274090262500,6.107262451171875,-0.0212249755859375,-0.014190673828125,0.997802734375
1768576274100261400,6.117261474609375,-0.01953125,-0.0171051025390625,0.994232177734375
1768576274110261500,6.127261474609375,-0.0152587890625,-0.0154876708984375,0.9919281005859375
1768576274120261400,6.137261474609375,-0.0166015625,-0.015045166015625,0.9924163818359375
1768576274130261500,6.147261474609375,-0.018829345703125,-0.015289306640625,0.9915008544921875
1768576274140261400,6.157261474609375,-0.0179290771484375,-0.0145111083984375,0.9898529052734375
1768576274150260500,6.167260498046875,-0.016448974609375,-0.0144805908203125,0.988800048828125
1768576274160260400,6.17726025390625,-0.0151214599609375,-0.014373779296875,0.99053955078125
1768576274170260500,6.187260498046875,-0.0145721435546875,-0.0122833251953125,0.9914703369140625
1768576274180260400,6.19726025390625,-0.0146026611328125,-0.009857177734375,0.993621826171875
1768576274190260500,6.207260498046875,-0.015289306640625,-0.0112457275390625,0.9926910400390625
1768576274200259300,6.21725927734375,-0.01812744140625,-0.0098419189453125,0.994659423828125
1768576274210259500,6.227259521484375,-0.025115966796875,-0.0111083984375,0.996826171875
1768576274220259300,6.23725927734375,-0.0279998779296875,-0.011505126953125,0.997955322265625
1768576274230259500,6.247259521484375,-0.0241546630859375,-0.012054443359375,0.996734619140625
1768576274240259300,6.25725927734375,-0.01513671875,-0.009246826171875,0.9931793212890625
1768576274250258400,6.267258544921875,-0.010223388671875,-0.0009765625,1.001678466796875
1768576274260258600,6.277258544921875,-0.004608154296875,-0.00396728515625,0.999298095703125
1768576274270258400,6.287258544921875,-0.008636474609375,0.00634765625,0.9987030029296875
1768576274280258300,6.29725830078125,0.0010528564453125,0.00042724609375,0.9921875
1768576274290258400,6.307258544921875,0.009307861328125,-0.0032196044921875,0.9813385009765625
1768576274300257500,6.317257568359375,0.0214080810546875,0.016693115234375,1.0192108154296875
1768576274310257400,6.32725732421875,0.0481414794921875,-0.020721435546875,0.998931884765625
1768576274320257500,6.337257568359375,0.0166778564453125,-0.0249481201171875,1.01446533203125
1768576274330257400,6.34725732421875,-0.00653076171875,-0.0201263427734375,1.0170440673828125
1768576274340257300,6.35725732421875,-0.015869140625,-0.02703857421875,0.9868011474609375
1768576274350256400,6.36725634765625,-0.01544189453125,-0.0110626220703125,0.9916534423828125
1768576274360256500,6.377256591796875,-0.0085296630859375,-0.0080413818359375,0.9988250732421875
1768576274370256400,6.38725634765625,-0.0009002685546875,-0.0093841552734375,0.995147705078125
1768576274380256500,6.397256591796875,0.0033721923828125,-0.0058441162109375,0.9879913330078125
1768576274390256400,6.40725634765625,-0.004302978515625,-0.00732421875,0.9936981201171875
1768576274400255500,6.41725537109375,0.002044677734375,-0.009307861328125,1.0054931640625
1768576274410255400,6.42725537109375,0.00927734375,-0.0074005126953125,1.0068206787109375
1768576274420255500,6.43725537109375,0.015411376953125,-0.004852294921875,0.997406005859375
1768576274430255400,6.44725537109375,0.0269622802734375,-0.006195068359375,0.994964599609375
1768576274440255500,6.45725537109375,0.0257568359375,-0.0073089599609375,0.9943084716796875
1768576274450254300,6.46725439453125,0.0233306884765625,-0.0079345703125,0.9977569580078125
1768576274460254500,6.47725439453125,0.0191650390625,-0.009246826171875,1.00250244140625
1768576274470254300,6.48725439453125,0.016815185546875,-0.01263427734375,1.000244140625
1768576274480254500,6.49725439453125,0.016265869140625,-0.01513671875,0.9998626708984375
1768576274490254300,6.50725439453125,0.02569580078125,-0.0132598876953125,0.99810791015625
1768576274500253400,6.51725341796875,0.0372161865234375,-0.0114288330078125,0.9961395263671875
1768576274510253300,6.52725341796875,0.0540618896484375,-0.0123748779296875,1.00244140625
1768576274520253400,6.53725341796875,0.0485382080078125,-0.01202392578125,0.991943359375
1768576274530253300,6.54725341796875,0.0528106689453125,-0.0102691650390625,0.9853057861328125
1768576274540253400,6.55725341796875,0.059356689453125,-0.01263427734375,0.9818572998046875
1768576274550252500,6.56725244140625,0.057464599609375,-0.0121612548828125,0.974945068359375
1768576274560252400,6.57725244140625,0.06756591796875,-0.0143890380859375,0.9753875732421875
1768576274570252500,6.58725244140625,0.0671844482421875,-0.014007568359375,0.981781005859375
1768576274580252400,6.59725244140625,0.05572509765625,-0.014373779296875,0.9815826416015625
1768576274590252300,6.607252197265625,0.0487823486328125,-0.0130462646484375,0.9864959716796875
1768576274600251400,6.61725146484375,0.0519256591796875,-0.0127716064453125,0.9935150146484375
1768576274610251500,6.62725146484375,0.0532379150390625,-0.0134735107421875,0.9887237548828125
1768576274620251400,6.63725146484375,0.0606689453125,-0.0128631591796875,0.982147216796875
1768576274630251500,6.64725146484375,0.0725555419921875,-0.01104736328125,0.9808349609375
1768576274640251400,6.65725146484375,0.085906982421875,-0.0124359130859375,0.9818572998046875
1768576274650250500,6.66725048828125,0.090484619140625,-0.0140380859375,0.9810333251953125
1768576274660250400,6.67725048828125,0.0886383056640625,-0.0108642578125,0.9815673828125
1768576274670250500,6.68725048828125,0.07257080078125,-0.010498046875,0.9809417724609375
1768576274680250400,6.69725048828125,0.066864013671875,-0.012176513671875,0.984039306640625
1768576274690250500,6.70725048828125,0.0634918212890625,-0.0115203857421875,0.983489990234375
1768576274700249300,6.717249267578125,0.0663909912109375,-0.0148162841796875,0.9807891845703125
1768576274710249500,6.72724951171875,0.0656890869140625,-0.01763916015625,0.984405517578125
1768576274720249300,6.737249267578125,0.0758209228515625,-0.0233917236328125,0.9745941162109375
1768576274730249500,6.74724951171875,0.07879638671875,-0.025054931640625,0.9620361328125
1768576274740249300,6.757249267578125,0.0859527587890625,-0.020965576171875,0.9618377685546875
1768576274750248400,6.76724853515625,0.096923828125,-0.019805908203125,0.961761474609375
1768576274760248300,6.777248291015625,0.0933990478515625,-0.0188140869140625,0.9617919921875
1768576274770248400,6.78724853515625,0.0953521728515625,-0.0193328857421875,0.950103759765625
1768576274780248300,6.797248291015625,0.1075592041015625,-0.01873779296875,0.954986572265625
1768576274790248400,6.80724853515625,0.1070404052734375,-0.0121612548828125,0.9781341552734375
1768576274800247600,6.81724755859375,0.0971527099609375,-0.0180206298828125,0.9944305419921875
1768576274810247400,6.827247314453125,0.09173583984375,-0.0246429443359375,1.0001068115234375
1768576274820247300,6.837247314453125,0.098876953125,-0.0286102294921875,1.010589599609375
1768576274830247400,6.847247314453125,0.094207763671875,-0.0391998291015625,0.999847412109375
1768576274840247300,6.857247314453125,0.0944366455078125,-0.0458526611328125,0.9846343994140625
1768576274850246400,6.867246337890625,0.0918426513671875,-0.04998779296875,0.96575927734375
1768576274860246500,6.87724658203125,0.0700225830078125,-0.051727294921875,0.95806884765625
1768576274870246400,6.887246337890625,0.0543670654296875,-0.0393524169921875,0.9778900146484375
1768576274880246500,6.89724658203125,0.080596923828125,-0.033966064453125,0.9793853759765625
1768576274890246400,6.907246337890625,0.1087188720703125,-0.0324249267578125,0.9876861572265625
1768576274900245500,6.91724560546875,0.1216583251953125,-0.0330352783203125,0.9955596923828125
1768576274910245400,6.927245361328125,0.095184326171875,-0.0292816162109375,0.983551025390625
1768576274920245500,6.93724560546875,0.0818634033203125,-0.034759521484375,0.97210693359375
1768576274930245400,6.947245361328125,0.0927276611328125,-0.0304107666015625,0.962615966796875
1768576274940245500,6.95724560546875,0.0970611572265625,-0.0246734619140625,0.9477386474609375
1768576274950244400,6.967244384765625,0.096405029296875,-0.0342864990234375,0.9432220458984375
1768576274960244500,6.977244384765625,0.1018524169921875,-0.0350494384765625,0.95623779296875
1768576274970244400,6.987244384765625,0.0946197509765625,-0.03460693359375,0.9606475830078125
1768576274980244500,6.997244384765625,0.1012420654296875,-0.042327880859375,0.9663238525390625
1768576274990244400,7.007244384765625,0.1011199951171875,-0.0470428466796875,0.971282958984375
1768576275000243500,7.017243408203125,0.097564697265625,-0.0527801513671875,0.9573211669921875
1768576275010243300,7.027243408203125,0.1160888671875,-0.0595550537109375,0.9531097412109375
1768576275020243500,7.037243408203125,0.122161865234375,-0.0748138427734375,0.9479522705078125
1768576275030243300,7.047243408203125,0.1528778076171875,-0.0995025634765625,0.9091644287109375
1768576275040243500,7.057243408203125,0.1500244140625,-0.1186065673828125,0.9109039306640625
1768576275050242300,7.0672421875,0.1196136474609375,-0.0998687744140625,0.9479522705078125
1768576275060242200,7.0772421875,0.0948333740234375,-0.0826263427734375,0.9875946044921875
1768576275070242000,7.087241943359375,0.09857177734375,-0.0662078857421875,1.0105438232421875
1768576275080242200,7.0972421875,0.10003662109375,-0.0443572998046875,1.0186767578125
1768576275090242000,7.107241943359375,0.0934906005859375,-0.0281219482421875,1.0192718505859375
1768576275100241200,7.1172412109375,0.118865966796875,-0.0270233154296875,1.0228729248046875
1768576275110241300,7.1272412109375,0.12713623046875,-0.037353515625,1.0092010498046875
1768576275120241200,7.1372412109375,0.1153106689453125,-0.044830322265625,0.9833984375
1768576275130241300,7.1472412109375,0.1097564697265625,-0.052154541015625,0.964935302734375
1768576275140241200,7.1572412109375,0.0890655517578125,-0.0606536865234375,0.9529571533203125
1768576275150240300,7.167240234375,0.0767822265625,-0.06231689453125,0.9438629150390625
1768576275160240000,7.177240234375,0.0813140869140625,-0.0706787109375,0.960784912109375
1768576275170240300,7.187240234375,0.0724334716796875,-0.0774993896484375,0.9916229248046875
1768576275180240100,7.197240234375,0.072357177734375,-0.0575714111328125,1.0149993896484375
1768576275190240300,7.207240234375,0.0953521728515625,-0.043243408203125,0.993927001953125
1768576275200239000,7.217239013671875,0.0978851318359375,-0.0363922119140625,0.955078125
1768576275210239200,7.2272392578125,0.1042938232421875,-0.0319061279296875,0.942169189453125
1768576275220239000,7.237239013671875,0.1164093017578125,-0.0334014892578125,0.98028564453125
1768576275230239200,7.2472392578125,0.104949951171875,-0.0480804443359375,1.00469970703125
1768576275240239000,7.257239013671875,0.0909881591796875,-0.0554046630859375,1.043212890625
1768576275250238200,7.26723828125,0.082489013671875,-0.073822021484375,1.0293426513671875
1768576275260238000,7.277238037109375,0.065643310546875,-0.0635528564453125,1.0137786865234375
1768576275270238200,7.28723828125,0.07208251953125,-0.0592498779296875,1.00054931640625
1768576275280238000,7.297238037109375,0.08135986328125,-0.0615997314453125,0.9837493896484375
1768576275290238200,7.30723828125,0.09576416015625,-0.086944580078125,0.92877197265625
1768576275300237000,7.317237060546875,0.07977294921875,-0.0430908203125,0.9944305419921875
1768576275310237200,7.3272373046875,0.129425048828125,-0.022705078125,1.0609893798828125
1768576275320237000,7.337237060546875,0.1436920166015625,-0.0602874755859375,1.005401611328125
1768576275330237200,7.3472373046875,0.1283111572265625,-0.0632476806640625,0.9982452392578125
1768576275340236300,7.357236328125,0.1158447265625,-0.0742034912109375,0.9844512939453125
1768576275350236200,7.367236083984375,0.115386962890625,-0.0766448974609375,0.979156494140625
1768576275360236300,7.377236328125,0.11138916015625,-0.084259033203125,0.973236083984375
1768576275370236200,7.387236083984375,0.0745697021484375,-0.092041015625,0.9626922607421875
1768576275380236000,7.397236083984375,0.057708740234375,-0.089752197265625,0.959930419921875
1768576275390235100,7.407235107421875,0.06390380859375,-0.0998077392578125,0.946075439453125
1768576275400235300,7.4172353515625,0.06451416015625,-0.08782958984375,0.9376373291015625
1768576275410235100,7.427235107421875,0.0689544677734375,-0.078094482421875,0.9327239990234375
1768576275420235300,7.4372353515625,0.0903472900390625,-0.08612060546875,0.9279632568359375
1768576275430235100,7.447235107421875,0.10272216796875,-0.0833282470703125,0.94049072265625
1768576275440235300,7.4572353515625,0.0811614990234375,-0.067718505859375,0.97198486328125
1768576275450234000,7.467234130859375,0.081451416015625,-0.0690155029296875,0.97467041015625
1768576275460234200,7.477234130859375,0.071197509765625,-0.0797576904296875,0.969818115234375
1768576275470234000,7.487234130859375,0.07672119140625,-0.0959625244140625,0.9559783935546875
1768576275480234200,7.497234130859375,0.0572357177734375,-0.1011810302734375,0.932891845703125
1768576275490233000,7.507233154296875,0.039520263671875,-0.0927886962890625,0.9306640625
1768576275500233200,7.517233154296875,0.0561065673828125,-0.0847930908203125,0.9272003173828125
1768576275510233000,7.527233154296875,0.0713958740234375,-0.0732269287109375,0.9338531494140625
1768576275520233200,7.537233154296875,0.0727386474609375,-0.080078125,0.9434356689453125
1768576275530233000,7.547233154296875,0.051422119140625,-0.0781402587890625,0.954925537109375
1768576275540232200,7.557232177734375,0.03253173828125,-0.080963134765625,0.961212158203125
1768576275550232000,7.567232177734375,0.0104217529296875,-0.087646484375,0.9780120849609375
1768576275560232200,7.577232177734375,0.027313232421875,-0.0767822265625,0.9942169189453125
1768576275570232000,7.587232177734375,0.007843017578125,-0.0808868408203125,0.982147216796875
1768576275580232200,7.597232177734375,0.0021820068359375,-0.082916259765625,0.971527099609375
1768576275590231300,7.607231201171875,0.0053253173828125,-0.07586669921875,0.98150634765625
1768576275600231200,7.617231201171875,0.0075225830078125,-0.0765533447265625,0.9942169189453125
1768576275610231000,7.62723095703125,0.0178375244140625,-0.0792694091796875,0.991455078125
1768576275620231200,7.637231201171875,0.0150909423828125,-0.0719451904296875,1.0158843994140625
1768576275630231000,7.64723095703125,0.0152587890625,-0.084716796875,1.0500946044921875
1768576275640230100,7.657230224609375,0.010406494140625,-0.0957794189453125,1.0618438720703125
1768576275650230300,7.667230224609375,-0.0074462890625,-0.0966644287109375,1.0669708251953125
1768576275660230100,7.677230224609375,-0.01165771484375,-0.0985260009765625,1.049652099609375
1768576275670230300,7.687230224609375,-0.0157928466796875,-0.08734130859375,1.0408935546875
1768576275680230100,7.697230224609375,-0.019500732421875,-0.08831787109375,1.04022216796875
1768576275690229200,7.707229248046875,-0.006866455078125,-0.0844573974609375,1.0295562744140625
1768576275700229000,7.71722900390625,-0.002349853515625,-0.088409423828125,1.0069122314453125
1768576275710229200,7.727229248046875,0.0008697509765625,-0.0965423583984375,0.992828369140625
1768576275720229000,7.73722900390625,-0.017333984375,-0.0894622802734375,1.00067138671875
1768576275730229200,7.747229248046875,-0.03228759765625,-0.1008148193359375,1.0135498046875
1768576275740228000,7.75722802734375,-0.0421600341796875,-0.1033782958984375,1.0155181884765625
1768576275750228200,7.767228271484375,-0.0428009033203125,-0.1012420654296875,1.026275634765625
1768576275760228000,7.77722802734375,-0.0493621826171875,-0.1076812744140625,1.0332489013671875
1768576275770228200,7.787228271484375,-0.0499267578125,-0.11279296875,1.0264129638671875
1768576275780228000,7.79722802734375,-0.053558349609375,-0.1092071533203125,1.0240478515625
1768576275790227200,7.807227294921875,-0.058074951171875,-0.1082763671875,1.02947998046875
1768576275800227000,7.81722705078125,-0.0616607666015625,-0.108734130859375,1.0179595947265625
1768576275810227200,7.827227294921875,-0.074493408203125,-0.0980072021484375,1.015838623046875
1768576275820227000,7.83722705078125,-0.079345703125,-0.102508544921875,1.020355224609375
1768576275830227200,7.847227294921875,-0.0832366943359375,-0.110382080078125,1.0289154052734375
1768576275840226000,7.85722607421875,-0.086944580078125,-0.1112213134765625,1.02996826171875
1768576275850226200,7.86722607421875,-0.088409423828125,-0.112518310546875,1.0259246826171875
1768576275860226000,7.87722607421875,-0.1085052490234375,-0.108306884765625,1.0281219482421875
1768576275870226200,7.88722607421875,-0.13916015625,-0.094879150390625,1.030975341796875
1768576275880226000,7.89722607421875,-0.15484619140625,-0.0867462158203125,1.0267486572265625
1768576275890225200,7.90722509765625,-0.1614990234375,-0.079071044921875,1.0249786376953125
1768576275900225300,7.917225341796875,-0.174163818359375,-0.072296142578125,1.0176849365234375
1768576275910225200,7.92722509765625,-0.1846771240234375,-0.0641326904296875,1.0070343017578125
1768576275920225000,7.93722509765625,-0.2001953125,-0.0560302734375,1.005279541015625
1768576275930225200,7.94722509765625,-0.2141265869140625,-0.0531463623046875,1.003265380859375
1768576275940224300,7.957224365234375,-0.2275238037109375,-0.0483551025390625,0.9912261962890625
1768576275950224100,7.96722412109375,-0.2369384765625,-0.0511016845703125,0.9912872314453125
1768576275960224300,7.977224365234375,-0.2464752197265625,-0.0563201904296875,0.9988250732421875
1768576275970224000,7.98722412109375,-0.25494384765625,-0.058502197265625,0.9962158203125
1768576275980224300,7.997224365234375,-0.2672271728515625,-0.059783935546875,0.9975433349609375
1768576275990223000,8.00722314453125,-0.2794036865234375,-0.0588226318359375,1.001373291015625
1768576276000223200,8.01722314453125,-0.2862091064453125,-0.0581817626953125,1.0105743408203125
1768576276010223000,8.02722314453125,-0.2920989990234375,-0.0604095458984375,1.0243682861328125
1768576276020223200,8.03722314453125,-0.3014068603515625,-0.0579071044921875,1.027252197265625
1768576276030223000,8.04722314453125,-0.3158111572265625,-0.0560302734375,1.0285491943359375
1768576276040222200,8.05722216796875,-0.333221435546875,-0.0509490966796875,1.0372161865234375
1768576276050221600,8.0672216796875,-0.3499755859375,-0.0431976318359375,1.0380401611328125
1768576276060221700,8.0772216796875,-0.3672943115234375,-0.0355682373046875,1.0374298095703125
1768576276070221600,8.0872216796875,-0.38299560546875,-0.032562255859375,1.0406341552734375
1768576276080221700,8.0972216796875,-0.3916168212890625,-0.0272369384765625,1.0420379638671875
1768576276090220800,8.107220703125,-0.3963623046875,-0.0275421142578125,1.040740966796875
1768576276100220700,8.117220703125,-0.4069671630859375,-0.0303192138671875,1.042877197265625
1768576276110220500,8.127220458984375,-0.4175262451171875,-0.02764892578125,1.040771484375
1768576276120220700,8.137220703125,-0.436614990234375,-0.0257110595703125,1.027618408203125
1768576276130220500,8.147220458984375,-0.44378662109375,-0.0258636474609375,1.0100860595703125
1768576276140219600,8.1572197265625,-0.4568939208984375,-0.0260772705078125,0.996124267578125
1768576276150219800,8.1672197265625,-0.4637451171875,-0.0241241455078125,0.976165771484375
1768576276160219600,8.1772197265625,-0.4609832763671875,-0.0167388916015625,0.95220947265625
1768576276170219800,8.1872197265625,-0.4560089111328125,-0.0110626220703125,0.9286041259765625
1768576276180219600,8.1972197265625,-0.464996337890625,-0.0048980712890625,0.9124755859375
1768576276190218800,8.20721875,-0.4667816162109375,-0.0072174072265625,0.9022979736328125
1768576276200218600,8.217218505859375,-0.46368408203125,-0.0065460205078125,0.8860626220703125
1768576276210218800,8.22721875,-0.452728271484375,-0.00457763671875,0.8699798583984375
1768576276220218600,8.237218505859374,-0.449737548828125,-0.000946044921875,0.85748291015625
1768576276230218800,8.24721875,-0.450347900390625,-0.0042266845703125,0.84814453125
1768576276240217600,8.257217529296875,-0.4492034912109375,-0.0083160400390625,0.847137451171875
1768576276250217700,8.2672177734375,-0.4454193115234375,-0.0181732177734375,0.847808837890625
1768576276260217600,8.277217529296875,-0.4382476806640625,-0.0274810791015625,0.8538055419921875
1768576276270217700,8.2872177734375,-0.42132568359375,-0.0389251708984375,0.8540191650390625
1768576276280217600,8.297217529296875,-0.42071533203125,-0.04345703125,0.850860595703125
1768576276290216700,8.307216796875,-0.41650390625,-0.0399627685546875,0.8564453125
1768576276300216600,8.317216552734376,-0.4203338623046875,-0.0258636474609375,0.86962890625
1768576276310216700,8.327216796875,-0.435638427734375,-0.0130767822265625,0.879638671875
1768576276320216600,8.337216552734375,-0.4366607666015625,0.0011749267578125,0.8961029052734375
1768576276330216700,8.347216796875,-0.436676025390625,-0.00830078125,0.90234375
1768576276340215800,8.3572158203125,-0.4306793212890625,-0.01483154296875,0.909210205078125
1768576276350215700,8.367215576171875,-0.4337158203125,-0.0179290771484375,0.91290283203125
1768576276360215600,8.377215576171874,-0.44873046875,-0.01019287109375,0.918701171875
1768576276370215700,8.387215576171876,-0.4598236083984375,0.0035858154296875,0.925323486328125
1768576276380215600,8.397215576171876,-0.461578369140625,0.0149688720703125,0.9277496337890625
1768576276390214700,8.407214599609375,-0.463958740234375,0.017974853515625,0.931365966796875
1768576276400214800,8.41721484375,-0.4819793701171875,0.0218658447265625,0.9228668212890625
1768576276410214700,8.427214599609375,-0.4886322021484375,0.02398681640625,0.9109344482421875
1768576276420214500,8.437214599609375,-0.4843292236328125,0.029205322265625,0.8973388671875
1768576276430214700,8.447214599609374,-0.481536865234375,0.0403594970703125,0.894439697265625
1768576276440213800,8.4572138671875,-0.4801483154296875,0.03985595703125,0.8923492431640625
1768576276450213600,8.467213623046876,-0.4790496826171875,0.034759521484375,0.89263916015625
1768576276460213800,8.4772138671875,-0.48187255859375,0.0330047607421875,0.8878021240234375
1768576276470213600,8.487213623046875,-0.474578857421875,0.032684326171875,0.8860015869140625
1768576276480213800,8.4972138671875,-0.474212646484375,0.0308380126953125,0.885772705078125
1768576276490212600,8.507212646484374,-0.4765625,0.035858154296875,0.88189697265625
1768576276500212700,8.517212646484374,-0.473876953125,0.037933349609375,0.877105712890625
1768576276510212600,8.527212646484376,-0.465362548828125,0.035614013671875,0.880584716796875
1768576276520212700,8.537212646484376,-0.4797515869140625,0.03692626953125,0.886322021484375
1768576276530212600,8.547212646484375,-0.4966278076171875,0.0385894775390625,0.883636474609375
1768576276540211700,8.557211669921875,-0.5033721923828125,0.0400238037109375,0.87994384765625
1768576276550211600,8.567211669921875,-0.5085906982421875,0.0430145263671875,0.880157470703125
1768576276560211700,8.577211669921875,-0.514984130859375,0.04730224609375,0.8774871826171875
1768576276570211600,8.587211669921874,-0.5194549560546875,0.048187255859375,0.869964599609375
1768576276580211700,8.597211669921874,-0.5258941650390625,0.050445556640625,0.859100341796875
1768576276590210600,8.60721044921875,-0.512359619140625,0.0518646240234375,0.8560333251953125
1768576276600210700,8.617210693359375,-0.5029754638671875,0.0513153076171875,0.8603668212890625
1768576276610210600,8.62721044921875,-0.5135345458984375,0.056182861328125,0.8684844970703125
1768576276620210700,8.637210693359375,-0.5150299072265625,0.059234619140625,0.874755859375
1768576276630209800,8.647209716796874,-0.5113372802734375,0.061981201171875,0.887908935546875
1768576276640209700,8.657209716796874,-0.5054779052734375,0.0623016357421875,0.8881988525390625
1768576276650209800,8.667209716796876,-0.4917755126953125,0.0571136474609375,0.8858642578125
1768576276660209700,8.677209716796876,-0.4817352294921875,0.0575714111328125,0.87005615234375
1768576276670209500,8.68720947265625,-0.466766357421875,0.049530029296875,0.8579559326171875
1768576276680208600,8.697208740234375,-0.4555206298828125,0.04522705078125,0.8510284423828125
1768576276690208800,8.707208740234375,-0.462158203125,0.0440673828125,0.85296630859375
1768576276700208600,8.717208740234375,-0.4701995849609375,0.0455474853515625,0.8589630126953125
1768576276710208800,8.727208740234374,-0.4804840087890625,0.047454833984375,0.8639068603515625
1768576276720208600,8.737208740234376,-0.4940185546875,0.043121337890625,0.8648834228515625
1768576276730207700,8.747207763671875,-0.5150909423828125,0.040374755859375,0.8665008544921875
1768576276740207600,8.75720751953125,-0.5138702392578125,0.0422515869140625,0.8691864013671875
1768576276750207700,8.767207763671875,-0.50048828125,0.0400238037109375,0.858306884765625
1768576276760207600,8.77720751953125,-0.48870849609375,0.0397796630859375,0.8590545654296875
1768576276770207700,8.787207763671875,-0.4789276123046875,0.0355377197265625,0.8638153076171875
1768576276780206600,8.79720654296875,-0.4685821533203125,0.03375244140625,0.8695068359375
1768576276790206700,8.807206787109376,-0.4663543701171875,0.031036376953125,0.876922607421875
1768576276800206600,8.81720654296875,-0.4807586669921875,0.0279541015625,0.8844757080078125
1768576276810206700,8.827206787109375,-0.4878997802734375,0.0229949951171875,0.8852996826171875
1768576276820206600,8.83720654296875,-0.4927215576171875,0.0240478515625,0.879241943359375
1768576276830205700,8.847205810546875,-0.4928436279296875,0.0279083251953125,0.876068115234375
1768576276840205600,8.85720556640625,-0.488861083984375,0.0242462158203125,0.8719024658203125
1768576276850205700,8.867205810546874,-0.4908905029296875,0.0276641845703125,0.8651123046875
1768576276860205600,8.87720556640625,-0.497955322265625,0.02984619140625,0.859832763671875
1768576276870205700,8.887205810546876,-0.496612548828125,0.0291595458984375,0.86480712890625
1768576276880204800,8.897204833984375,-0.4915618896484375,0.0324249267578125,0.87286376953125
1768576276890204700,8.90720458984375,-0.486907958984375,0.03369140625,0.8745269775390625
1768576276900204500,8.91720458984375,-0.490020751953125,0.0384368896484375,0.879638671875
1768576276910204700,8.92720458984375,-0.492218017578125,0.039581298828125,0.8841094970703125
1768576276920204500,8.93720458984375,-0.4888458251953125,0.04254150390625,0.8860931396484375
1768576276930203600,8.94720361328125,-0.4802703857421875,0.044921875,0.89117431640625
1768576276940203800,8.957203857421876,-0.4752655029296875,0.05072021484375,0.8931121826171875
1768576276950203600,8.96720361328125,-0.478973388671875,0.048004150390625,0.88580322265625
1768576276960203500,8.97720361328125,-0.48101806640625,0.0454559326171875,0.8780975341796875
1768576276970203600,8.98720361328125,-0.49224853515625,0.047607421875,0.873077392578125
1768576276980202800,8.99720263671875,-0.4971923828125,0.0496826171875,0.8728485107421875
1768576276990202600,9.00720263671875,-0.5021209716796875,0.04669189453125,0.868804931640625
1768576277000202800,9.01720263671875,-0.4980926513671875,0.043060302734375,0.8644866943359375
1768576277010202600,9.02720263671875,-0.486724853515625,0.0463409423828125,0.8648529052734375
1768576277020202800,9.03720263671875,-0.4911651611328125,0.042205810546875,0.860504150390625
1768576277030201600,9.04720166015625,-0.490875244140625,0.043304443359375,0.863494873046875
1768576277040201700,9.05720166015625,-0.4907684326171875,0.0435333251953125,0.871795654296875
1768576277050202600,9.06720263671875,-0.4902801513671875,0.04412841796875,0.8736419677734375
1768576277060202500,9.077202392578124,-0.4880523681640625,0.042694091796875,0.8743896484375
1768576277070202600,9.08720263671875,-0.4808807373046875,0.04150390625,0.875732421875
1768576277080201700,9.09720166015625,-0.4806365966796875,0.043670654296875,0.874053955078125
1768576277090201600,9.10720166015625,-0.4792022705078125,0.0450286865234375,0.86981201171875
1768576277100201700,9.11720166015625,-0.47784423828125,0.0455780029296875,0.87176513671875
1768576277110201600,9.12720166015625,-0.4757537841796875,0.04833984375,0.874908447265625
1768576277120201500,9.137201416015625,-0.4679412841796875,0.0482025146484375,0.8701019287109375
1768576277130200600,9.14720068359375,-0.4716796875,0.0478057861328125,0.8695831298828125
1768576277140200700,9.15720068359375,-0.4769134521484375,0.0506744384765625,0.87603759765625
1768576277150200600,9.16720068359375,-0.476287841796875,0.0507049560546875,0.8775787353515625
1768576277160200700,9.17720068359375,-0.481109619140625,0.0511627197265625,0.878387451171875
1768576277170200600,9.18720068359375,-0.4810333251953125,0.0524749755859375,0.8763885498046875
1768576277180199700,9.19719970703125,-0.479644775390625,0.0525360107421875,0.87579345703125
1768576277190199600,9.207199462890625,-0.48077392578125,0.053436279296875,0.878875732421875
1768576277200199700,9.21719970703125,-0.4776763916015625,0.049896240234375,0.8760986328125
1768576277210199600,9.227199462890624,-0.4743804931640625,0.048309326171875,0.8767852783203125
1768576277220199700,9.23719970703125,-0.480438232421875,0.0479888916015625,0.877532958984375
1768576277230198500,9.247198486328125,-0.473236083984375,0.04888916015625,0.875457763671875
1768576277240198700,9.25719873046875,-0.4668426513671875,0.0494232177734375,0.8780975341796875
1768576277250198500,9.267198486328125,-0.4594879150390625,0.0518035888671875,0.8833770751953125
1768576277260198700,9.27719873046875,-0.4612274169921875,0.0499420166015625,0.8868408203125
1768576277270197500,9.287197509765624,-0.46795654296875,0.0488128662109375,0.8884124755859375
1768576277280197600,9.29719775390625,-0.4743804931640625,0.04949951171875,0.8865966796875
1768576277290197500,9.307197509765626,-0.476837158203125,0.04833984375,0.881622314453125
1768576277300197600,9.31719775390625,-0.4782562255859375,0.046905517578125,0.8787384033203125
1768576277310197500,9.327197509765625,-0.47686767578125,0.04779052734375,0.87725830078125
1768576277320196600,9.337196533203125,-0.47381591796875,0.0472259521484375,0.877105712890625
1768576277330196700,9.34719677734375,-0.472625732421875,0.04437255859375,0.876068115234375
1768576277340196600,9.357196533203124,-0.4707794189453125,0.04217529296875,0.8793792724609375
1768576277350196500,9.367196533203124,-0.462310791015625,0.0419921875,0.8886871337890625
1768576277360196600,9.377196533203126,-0.4537200927734375,0.043182373046875,0.89129638671875
1768576277370195700,9.38719580078125,-0.4556732177734375,0.0455169677734375,0.894500732421875
1768576277380195600,9.397195556640625,-0.4586181640625,0.0497894287109375,0.8934173583984375
1768576277390195700,9.40719580078125,-0.4592742919921875,0.05279541015625,0.8927001953125
1768576277400195600,9.417195556640625,-0.463043212890625,0.0518341064453125,0.8924407958984375
1768576277410195700,9.42719580078125,-0.46026611328125,0.0510406494140625,0.88848876953125
1768576277420194600,9.437194580078126,-0.448272705078125,0.0491180419921875,0.8892822265625
1768576277430194700,9.447194580078126,-0.4487457275390625,0.0470733642578125,0.8879852294921875
1768576277440194600,9.457194580078125,-0.442535400390625,0.0434112548828125,0.891845703125
1768576277450194700,9.467194580078125,-0.439788818359375,0.038543701171875,0.8924713134765625
1768576277460194600,9.477194580078125,-0.4481658935546875,0.0376129150390625,0.890716552734375
1768576277470193700,9.487193603515625,-0.452239990234375,0.035858154296875,0.8936614990234375
1768576277480193500,9.497193603515624,-0.456329345703125,0.03375244140625,0.8932647705078125
1768576277490193700,9.507193603515624,-0.4640350341796875,0.033203125,0.8925018310546875
1768576277500193500,9.517193603515626,-0.4617919921875,0.033843994140625,0.8929443359375
1768576277510193700,9.527193603515625,-0.461700439453125,0.03594970703125,0.8932952880859375
1768576277520192500,9.537192626953125,-0.461761474609375,0.0375518798828125,0.8924407958984375
1768576277530192600,9.547192626953125,-0.462249755859375,0.035888671875,0.890380859375
1768576277540192500,9.557192626953125,-0.463592529296875,0.037261962890625,0.8855743408203125
1768576277550192600,9.567192626953124,-0.4631805419921875,0.0403289794921875,0.8829345703125
1768576277560192500,9.577192626953124,-0.4594573974609375,0.0425872802734375,0.8825836181640625
1768576277570191600,9.587191650390626,-0.4597015380859375,0.0424957275390625,0.88482666015625
1768576277580191500,9.59719140625,-0.4617462158203125,0.0440216064453125,0.8860321044921875
1768576277590191600,9.607191650390625,-0.4593505859375,0.043060302734375,0.8877716064453125
1768576277600191500,9.61719140625,-0.458160400390625,0.0442352294921875,0.8880767822265625
1768576277610191600,9.627191650390625,-0.456512451171875,0.04852294921875,0.88458251953125
1768576277620190700,9.637190673828124,-0.4516448974609375,0.048248291015625,0.8851165771484375
1768576277630190600,9.647190673828124,-0.4523773193359375,0.048553466796875,0.889434814453125
1768576277640190700,9.657190673828126,-0.457183837890625,0.0484161376953125,0.893402099609375
1768576277650190600,9.667190673828125,-0.4509124755859375,0.0475616455078125,0.90057373046875
1768576277660190500,9.6771904296875,-0.4525299072265625,0.045501708984375,0.9019012451171875
1768576277670189600,9.687189453125,-0.4521484375,0.0441131591796875,0.899566650390625
1768576277680189700,9.697189697265625,-0.447479248046875,0.0472412109375,0.8956146240234375
1768576277690189600,9.707189453125,-0.44000244140625,0.0449371337890625,0.895111083984375
1768576277700189700,9.717189697265624,-0.43817138671875,0.0482940673828125,0.8959503173828125
1768576277710189600,9.727189453125,-0.44024658203125,0.049285888671875,0.897674560546875
1768576277720188700,9.737188720703125,-0.445556640625,0.0485382080078125,0.8993072509765625
1768576277730188500,9.7471884765625,-0.4454803466796875,0.04705810546875,0.90032958984375
1768576277740188700,9.757188720703125,-0.4401397705078125,0.04901123046875,0.8997802734375
1768576277750188500,9.7671884765625,-0.4318389892578125,0.0460052490234375,0.8976898193359375
1768576277760188700,9.777188720703125,-0.4266815185546875,0.0477752685546875,0.8964385986328125
1768576277770187500,9.7871875,-0.43194580078125,0.046478271484375,0.8962554931640625
1768576277780187600,9.797187744140626,-0.441864013671875,0.0463409423828125,0.89544677734375
1768576277790187500,9.8071875,-0.446807861328125,0.048583984375,0.894561767578125
1768576277800187600,9.817187744140625,-0.454437255859375,0.04986572265625,0.8966217041015625
1768576277810186800,9.827186767578125,-0.452392578125,0.0464324951171875,0.895050048828125
1768576277820186600,9.8371865234375,-0.4575958251953125,0.0476531982421875,0.8949737548828125
1768576277830186500,9.8471865234375,-0.4566192626953125,0.047698974609375,0.894989013671875
1768576277840186600,9.8571865234375,-0.449249267578125,0.0449371337890625,0.89361572265625
1768576277850186500,9.8671865234375,-0.4480743408203125,0.0424041748046875,0.8950958251953125
1768576277860185600,9.877185546875,-0.450897216796875,0.040679931640625,0.8908233642578125
1768576277870185700,9.887185791015625,-0.4597015380859375,0.040283203125,0.8849029541015625
1768576277880185600,9.897185546875,-0.4614105224609375,0.0393218994140625,0.88165283203125
1768576277890185500,9.907185546875,-0.4619598388671875,0.0400390625,0.8809814453125
1768576277900185600,9.917185546875,-0.46099853515625,0.04229736328125,0.8837738037109375
1768576277910184700,9.927184814453126,-0.456695556640625,0.04327392578125,0.8855743408203125
1768576277920184600,9.9371845703125,-0.452667236328125,0.0426025390625,0.888763427734375
1768576277930184700,9.947184814453125,-0.45172119140625,0.0422821044921875,0.890411376953125
1768576277940184600,9.9571845703125,-0.452301025390625,0.0424652099609375,0.8943328857421875
1768576277950184700,9.967184814453125,-0.456298828125,0.04168701171875,0.8950347900390625
1768576277960183600,9.97718359375,-0.4542999267578125,0.042633056640625,0.894012451171875
1768576277970183700,9.98718359375,-0.4550628662109375,0.04144287109375,0.893890380859375
1768576277980183600,9.99718359375,-0.4566497802734375,0.039093017578125,0.8930816650390625
1768576277990183700,10.00718359375,-0.457122802734375,0.0407562255859375,0.89312744140625
1768576278000183600,10.01718359375,-0.4550018310546875,0.0393829345703125,0.8920440673828125
1768576278010182700,10.0271826171875,-0.4557647705078125,0.0375518798828125,0.891082763671875
1768576278020182500,10.0371826171875,-0.4552154541015625,0.039306640625,0.89105224609375
1768576278030182700,10.0471826171875,-0.453887939453125,0.0384521484375,0.8901824951171875
1768576278040182500,10.0571826171875,-0.45501708984375,0.0397491455078125,0.8905029296875
1768576278050182000,10.067181884765626,-0.4538726806640625,0.040130615234375,0.8911285400390625
1768576278060181000,10.077180908203125,-0.4534759521484375,0.0416107177734375,0.8931732177734375
1768576278070180900,10.087180908203125,-0.454925537109375,0.0429229736328125,0.894500732421875
1768576278080181000,10.097180908203125,-0.45343017578125,0.042144775390625,0.8922119140625
1768576278090180900,10.107180908203125,-0.451080322265625,0.0422821044921875,0.8935699462890625
1768576278100181000,10.117180908203125,-0.450958251953125,0.0445404052734375,0.8919525146484375
1768576278110179800,10.127179931640624,-0.4510040283203125,0.0450439453125,0.890411376953125
1768576278120180000,10.137179931640626,-0.4497528076171875,0.0428924560546875,0.8916168212890625
1768576278130179800,10.147179931640625,-0.454803466796875,0.0434722900390625,0.891876220703125
1768576278140180000,10.157179931640625,-0.4567108154296875,0.0430145263671875,0.8920440673828125
1768576278150179800,10.167179931640625,-0.4565582275390625,0.04351806640625,0.8946075439453125
1768576278160179000,10.177178955078125,-0.4576873779296875,0.0431060791015625,0.889373779296875
1768576278170178800,10.1871787109375,-0.4575042724609375,0.04345703125,0.89080810546875
1768576278180179000,10.197178955078124,-0.458892822265625,0.04443359375,0.8912200927734375
1768576278190178800,10.2071787109375,-0.4569549560546875,0.042694091796875,0.8897857666015625
1768576278200179000,10.217178955078126,-0.4572906494140625,0.0424346923828125,0.8893585205078125
1768576278210177800,10.227177734375,-0.456451416015625,0.04254150390625,0.887908935546875
1768576278220178000,10.237177978515625,-0.456939697265625,0.041290283203125,0.8878631591796875
1768576278230177800,10.247177734375,-0.45281982421875,0.040496826171875,0.888458251953125
1768576278240178000,10.257177978515625,-0.4530487060546875,0.0445404052734375,0.8878326416015625
1768576278250177000,10.267177001953126,-0.453765869140625,0.0464630126953125,0.8891448974609375
1768576278260177000,10.277177001953126,-0.4521331787109375,0.0477294921875,0.8910064697265625
1768576278270176800,10.2871767578125,-0.4521026611328125,0.047607421875,0.8931427001953125
1768576278280177000,10.297177001953125,-0.454559326171875,0.049072265625,0.8924713134765625
1768576278290176800,10.3071767578125,-0.457275390625,0.0480499267578125,0.8939056396484375
1768576278300176000,10.31717578125,-0.4563751220703125,0.0468292236328125,0.88916015625
1768576278310176000,10.327176025390624,-0.4574127197265625,0.0444488525390625,0.8893890380859375
1768576278320175900,10.33717578125,-0.4584197998046875,0.04168701171875,0.8913726806640625
1768576278330176000,10.347176025390626,-0.458831787109375,0.0406341552734375,0.891082763671875
1768576278340176000,10.35717578125,-0.4568939208984375,0.042205810546875,0.88897705078125
1768576278350175000,10.367175048828125,-0.4549407958984375,0.0437469482421875,0.888580322265625
1768576278360174800,10.3771748046875,-0.45367431640625,0.043975830078125,0.8910064697265625
1768576278370175000,10.387175048828125,-0.453277587890625,0.0431060791015625,0.891448974609375
1768576278380174800,10.3971748046875,-0.45672607421875,0.0431671142578125,0.890594482421875
1768576278390175000,10.407175048828124,-0.4579620361328125,0.0420684814453125,0.8918304443359375
1768576278400173800,10.417173828125,-0.4598236083984375,0.04119873046875,0.891693115234375
1768576278410174000,10.427174072265625,-0.456787109375,0.0416412353515625,0.89227294921875
1768576278420173800,10.437173828125,-0.4506988525390625,0.0397186279296875,0.8917236328125
1768576278430174000,10.447174072265625,-0.451446533203125,0.0403900146484375,0.89263916015625
1768576278440173800,10.457173828125,-0.4530181884765625,0.0399627685546875,0.8908233642578125
1768576278450173000,10.4671728515625,-0.4591827392578125,0.0400848388671875,0.891937255859375
1768576278460172800,10.4771728515625,-0.45965576171875,0.0406036376953125,0.8899688720703125
1768576278470173000,10.4871728515625,-0.46240234375,0.040924072265625,0.8887481689453125
1768576278480172800,10.4971728515625,-0.46368408203125,0.04010009765625,0.888458251953125
1768576278490173000,10.5071728515625,-0.4593658447265625,0.0382843017578125,0.886444091796875
1768576278500171800,10.517171875,-0.456024169921875,0.03790283203125,0.8878631591796875
1768576278510172000,10.527171875,-0.4562835693359375,0.03875732421875,0.8869781494140625
1768576278520171800,10.537171875,-0.4553680419921875,0.04058837890625,0.885223388671875
1768576278530172000,10.547171875,-0.4550323486328125,0.0422210693359375,0.8843841552734375
1768576278540171800,10.557171875,-0.4561767578125,0.0435333251953125,0.885345458984375
1768576278550171000,10.5671708984375,-0.455657958984375,0.0426788330078125,0.886962890625
1768576278560171000,10.5771708984375,-0.455810546875,0.0428466796875,0.889495849609375
1768576278570171000,10.5871708984375,-0.455841064453125,0.042938232421875,0.8911285400390625
1768576278580170800,10.597170654296875,-0.45587158203125,0.0417938232421875,0.8914794921875
1768576278590171000,10.6071708984375,-0.452880859375,0.0411529541015625,0.8924407958984375
1768576278600170000,10.617169921875,-0.454620361328125,0.0399322509765625,0.89349365234375
1768576278610169900,10.627169921875,-0.45477294921875,0.0396881103515625,0.8926849365234375
1768576278620170000,10.637169921875,-0.4584197998046875,0.0410919189453125,0.891387939453125
1768576278630169900,10.647169921875,-0.4589691162109375,0.042572021484375,0.8893585205078125
1768576278640170000,10.657169921875,-0.4575347900390625,0.0436859130859375,0.8889923095703125
1768576278650168800,10.6671689453125,-0.4572601318359375,0.0422515869140625,0.8868865966796875
1768576278660169000,10.6771689453125,-0.4586639404296875,0.0414581298828125,0.886810302734375
1768576278670168800,10.6871689453125,-0.4568939208984375,0.041748046875,0.8880767822265625
1768576278680169000,10.6971689453125,-0.4570159912109375,0.03912353515625,0.8901824951171875
1768576278690168800,10.7071689453125,-0.457672119140625,0.03985595703125,0.889617919921875
1768576278700168000,10.71716796875,-0.4578094482421875,0.0398712158203125,0.887542724609375
1768576278710167800,10.727167724609375,-0.4573974609375,0.0406494140625,0.888153076171875
1768576278720168000,10.73716796875,-0.4569854736328125,0.04156494140625,0.888641357421875
1768576278730167800,10.747167724609374,-0.4571075439453125,0.039794921875,0.888458251953125
1768576278740167000,10.7571669921875,-0.460479736328125,0.0406646728515625,0.8898773193359375
1768576278750166800,10.767166748046876,-0.461090087890625,0.0388946533203125,0.890411376953125
1768576278760167000,10.7771669921875,-0.4613800048828125,0.039825439453125,0.889007568359375
1768576278770166800,10.787166748046875,-0.4605712890625,0.037384033203125,0.888031005859375
1768576278780167000,10.7971669921875,-0.46173095703125,0.0386810302734375,0.8865509033203125
1768576278790166000,10.807166015625,-0.4593963623046875,0.040008544921875,0.8873138427734375
1768576278800166000,10.817165771484374,-0.4578704833984375,0.04022216796875,0.886138916015625
1768576278810165800,10.827165771484376,-0.4557952880859375,0.041046142578125,0.889556884765625
1768576278820166000,10.837165771484376,-0.4552154541015625,0.0405426025390625,0.89202880859375
1768576278830165800,10.847165771484375,-0.453125,0.037109375,0.8953399658203125
1768576278840164900,10.857164794921875,-0.4598388671875,0.0350799560546875,0.8878173828125
1768576278850165000,10.8671650390625,-0.46063232421875,0.035980224609375,0.8890838623046875
1768576278860164900,10.877164794921875,-0.4587554931640625,0.0359954833984375,0.8887481689453125
1768576278870165000,10.8871650390625,-0.4593658447265625,0.0387420654296875,0.8855133056640625
1768576278880164900,10.897164794921874,-0.4588623046875,0.039825439453125,0.887298583984375
1768576278890164000,10.9071640625,-0.4598388671875,0.03948974609375,0.8885955810546875
1768576278900163800,10.917163818359375,-0.46014404296875,0.0399932861328125,0.889495849609375
1768576278910164000,10.9271640625,-0.4581756591796875,0.0408782958984375,0.8887786865234375
1768576278920163800,10.937163818359375,-0.45562744140625,0.0406341552734375,0.889801025390625
1768576278930164000,10.9471640625,-0.455108642578125,0.039306640625,0.8891143798828125
1768576278940162800,10.957162841796874,-0.457183837890625,0.0398712158203125,0.888641357421875
1768576278950163000,10.967162841796876,-0.4586029052734375,0.04193115234375,0.8872222900390625
1768576278960162800,10.977162841796876,-0.464752197265625,0.040008544921875,0.887237548828125
1768576278970163000,10.987162841796875,-0.462890625,0.0422210693359375,0.8876495361328125
1768576278980162800,10.997162841796875,-0.462432861328125,0.0400848388671875,0.8868865966796875
1768576278990162000,11.007161865234375,-0.4627685546875,0.0400848388671875,0.8876190185546875
1768576279000161800,11.017161865234375,-0.464111328125,0.0382080078125,0.8870391845703125
1768576279010162000,11.027161865234374,-0.4608154296875,0.0400848388671875,0.8875732421875
1768576279020161800,11.037161865234374,-0.45587158203125,0.0403289794921875,0.8900299072265625
1768576279030162000,11.047161865234376,-0.4585113525390625,0.0401611328125,0.8876495361328125
1768576279040160800,11.057160888671875,-0.457122802734375,0.0420379638671875,0.8869476318359375
1768576279050161700,11.06716162109375,-0.4577178955078125,0.0418243408203125,0.8885040283203125
1768576279060161800,11.077161865234375,-0.4591064453125,0.042022705078125,0.8892059326171875
1768576279070162000,11.087161865234375,-0.4615478515625,0.0412139892578125,0.890045166015625
1768576279080161800,11.097161865234375,-0.4612274169921875,0.0383453369140625,0.8907623291015625
1768576279090160600,11.10716064453125,-0.4611968994140625,0.03826904296875,0.8912506103515625
1768576279100160500,11.117160400390626,-0.457977294921875,0.0366058349609375,0.8929901123046875
1768576279110161000,11.127160888671876,-0.457305908203125,0.0374908447265625,0.8916168212890625
1768576279120160800,11.137160888671875,-0.457550048828125,0.0386505126953125,0.8896026611328125
1768576279130161000,11.147160888671875,-0.4621124267578125,0.039764404296875,0.886016845703125
1768576279140159500,11.157159423828125,-0.463897705078125,0.042236328125,0.887237548828125
1768576279150159600,11.16715966796875,-0.46295166015625,0.0419464111328125,0.8872222900390625
1768576279160159700,11.17715966796875,-0.4639892578125,0.0406646728515625,0.8853759765625
1768576279170159900,11.187159912109376,-0.4632720947265625,0.041015625,0.8852691650390625
1768576279180159700,11.19715966796875,-0.4600067138671875,0.0395355224609375,0.883087158203125
1768576279190158600,11.20715869140625,-0.458343505859375,0.0406036376953125,0.8846588134765625
1768576279200158700,11.21715869140625,-0.4584197998046875,0.0411834716796875,0.8859100341796875
1768576279210158800,11.227158935546875,-0.4597625732421875,0.0406494140625,0.8860931396484375
1768576279220158700,11.23715869140625,-0.46112060546875,0.0418243408203125,0.88623046875
1768576279230157600,11.247157470703126,-0.4590301513671875,0.041778564453125,0.8862457275390625
1768576279240157700,11.25715771484375,-0.4586639404296875,0.04193115234375,0.8888397216796875
1768576279250157800,11.26715771484375,-0.4598236083984375,0.04058837890625,0.88909912109375
1768576279260157700,11.27715771484375,-0.46258544921875,0.040618896484375,0.8910064697265625
1768576279270157800,11.28715771484375,-0.4612579345703125,0.03912353515625,0.892364501953125
1768576279280156700,11.29715673828125,-0.459991455078125,0.0408172607421875,0.889617919921875
1768576279290156500,11.307156494140624,-0.459686279296875,0.041473388671875,0.88836669921875
1768576279300157000,11.317156982421874,-0.457305908203125,0.03997802734375,0.891937255859375
1768576279310156800,11.32715673828125,-0.45751953125,0.0389556884765625,0.8900146484375
1768576279320157000,11.337156982421876,-0.4551239013671875,0.0391998291015625,0.8883819580078125
1768576279330155500,11.347155517578125,-0.4559478759765625,0.0384674072265625,0.88751220703125
1768576279340155600,11.35715576171875,-0.4590301513671875,0.0392303466796875,0.88739013671875
1768576279350155800,11.36715576171875,-0.45782470703125,0.0400848388671875,0.8882293701171875
1768576279360156000,11.377156005859375,-0.45880126953125,0.037933349609375,0.890472412109375
1768576279370155800,11.38715576171875,-0.459686279296875,0.03900146484375,0.8899383544921875
1768576279380154600,11.397154541015626,-0.4580841064453125,0.0390777587890625,0.888458251953125
1768576279390154500,11.407154541015625,-0.45758056640625,0.03936767578125,0.8890228271484375
1768576279400155000,11.41715478515625,-0.4590301513671875,0.0394439697265625,0.8896026611328125
1768576279410154800,11.42715478515625,-0.461639404296875,0.039093017578125,0.88970947265625
1768576279420155000,11.43715478515625,-0.4609375,0.0407562255859375,0.8881683349609375
1768576279430153700,11.44715380859375,-0.460479736328125,0.040863037109375,0.8873748779296875
1768576279440153600,11.457153564453124,-0.4596099853515625,0.040283203125,0.8870849609375
1768576279450153700,11.46715380859375,-0.461822509765625,0.0404815673828125,0.887359619140625
1768576279460153900,11.47715380859375,-0.462615966796875,0.0385284423828125,0.888702392578125
1768576279470153700,11.48715380859375,-0.4607391357421875,0.0392913818359375,0.8883209228515625
1768576279480152600,11.497152587890625,-0.4582366943359375,0.039459228515625,0.8889617919921875
1768576279490152700,11.507152587890625,-0.4583740234375,0.038787841796875,0.8894805908203125
1768576279500152800,11.51715283203125,-0.4571533203125,0.0378570556640625,0.8897857666015625
1768576279510152700,11.527152587890624,-0.4560699462890625,0.0404510498046875,0.8909149169921875
1768576279520152800,11.53715283203125,-0.4574737548828125,0.0391387939453125,0.88885498046875
1768576279530151700,11.547151611328125,-0.458038330078125,0.0396270751953125,0.8887939453125
1768576279540151600,11.557151611328125,-0.4586639404296875,0.040435791015625,0.8897705078125
1768576279550152000,11.56715185546875,-0.4583587646484375,0.040863037109375,0.8884735107421875
1768576279560151800,11.57715185546875,-0.4580841064453125,0.0397491455078125,0.8899688720703125
1768576279570151700,11.587151611328125,-0.457977294921875,0.03900146484375,0.8907012939453125
1768576279580150500,11.597150634765624,-0.4571685791015625,0.03839111328125,0.8901519775390625
1768576279590151000,11.60715087890625,-0.4593963623046875,0.040008544921875,0.8900146484375
1768576279600150800,11.61715087890625,-0.4584808349609375,0.0398101806640625,0.889007568359375
1768576279610151000,11.62715087890625,-0.4558868408203125,0.0406494140625,0.8903656005859375
1768576279620149500,11.6371494140625,-0.4552154541015625,0.0401458740234375,0.890167236328125
1768576279630149600,11.647149658203125,-0.45489501953125,0.0390625,0.8893585205078125
1768576279640149800,11.657149658203124,-0.4550933837890625,0.0378875732421875,0.88909912109375
1768576279650150000,11.66714990234375,-0.4547576904296875,0.0378570556640625,0.890838623046875
1768576279660149800,11.677149658203126,-0.4553375244140625,0.03973388671875,0.8912506103515625
1768576279670148600,11.687148681640625,-0.458251953125,0.039642333984375,0.890960693359375
1768576279680148500,11.6971484375,-0.4595947265625,0.039947509765625,0.888916015625
1768576279690148900,11.70714892578125,-0.4599609375,0.0416259765625,0.8898773193359375
1768576279700148700,11.717148681640625,-0.459503173828125,0.0389862060546875,0.8891448974609375
1768576279710148900,11.72714892578125,-0.4568634033203125,0.0383453369140625,0.8905181884765625
1768576279720147700,11.737147705078126,-0.4543304443359375,0.0369110107421875,0.8901824951171875
1768576279730147600,11.747147705078126,-0.45269775390625,0.0374298095703125,0.8890838623046875
1768576279740147700,11.757147705078125,-0.4495391845703125,0.0384979248046875,0.890045166015625
1768576279750147800,11.76714794921875,-0.4462890625,0.03656005859375,0.8930816650390625
1768576279760147700,11.777147705078125,-0.4491729736328125,0.0356597900390625,0.8962249755859375
1768576279770146600,11.787146484375,-0.4544219970703125,0.0369110107421875,0.897064208984375
1768576279780146700,11.797146728515624,-0.45819091796875,0.0369720458984375,0.8950958251953125
1768576279790146800,11.807146728515624,-0.458038330078125,0.035888671875,0.8954010009765625
1768576279800147000,11.81714697265625,-0.454620361328125,0.033447265625,0.8955535888671875
1768576279810146800,11.827146728515626,-0.452056884765625,0.0339813232421875,0.893402099609375
1768576279820145700,11.837145751953125,-0.4512786865234375,0.0346527099609375,0.8904571533203125
1768576279830145500,11.8471455078125,-0.453277587890625,0.0363922119140625,0.8896026611328125
1768576279840146000,11.85714599609375,-0.4559783935546875,0.0380859375,0.888885498046875
1768576279850145800,11.867145751953124,-0.458404541015625,0.0402069091796875,0.888519287109375
1768576279860146000,11.87714599609375,-0.459136962890625,0.04107666015625,0.88751220703125
1768576279870144500,11.88714453125,-0.4581451416015625,0.0399017333984375,0.889007568359375
1768576279880144600,11.89714453125,-0.454986572265625,0.037567138671875,0.890533447265625
1768576279890144800,11.907144775390625,-0.4519195556640625,0.03851318359375,0.8881988525390625
1768576279900145000,11.917144775390625,-0.4498138427734375,0.03717041015625,0.888671875
1768576279910144800,11.927144775390625,-0.45379638671875,0.0365753173828125,0.887451171875
1768576279920143600,11.9371435546875,-0.4559783935546875,0.03802490234375,0.8881378173828125
1768576279930143700,11.947143798828124,-0.4543609619140625,0.0357208251953125,0.8898773193359375
1768576279940143900,11.957143798828126,-0.456329345703125,0.036834716796875,0.889312744140625
1768576279950143700,11.967143798828126,-0.456024169921875,0.0384979248046875,0.8930511474609375
1768576279960144000,11.977143798828125,-0.456146240234375,0.0410308837890625,0.89434814453125
1768576279970142700,11.987142822265625,-0.4545135498046875,0.0434417724609375,0.8910675048828125
1768576279980142800,11.997142822265625,-0.4521942138671875,0.0416412353515625,0.891357421875
1768576279990142700,12.007142822265624,-0.454986572265625,0.0418548583984375,0.89117431640625
1768576280000142800,12.017142822265624,-0.4550323486328125,0.040313720703125,0.8902740478515625
1768576280010141700,12.0271416015625,-0.454315185546875,0.04034423828125,0.889495849609375
1768576280020141600,12.0371416015625,-0.45513916015625,0.0391845703125,0.8898162841796875
1768576280030142000,12.047141845703125,-0.4544677734375,0.0375213623046875,0.889739990234375
1768576280040141800,12.057141845703125,-0.451904296875,0.03564453125,0.891510009765625
1768576280050141700,12.0671416015625,-0.4513397216796875,0.0345458984375,0.893890380859375
1768576280060140800,12.077140869140624,-0.45196533203125,0.0330963134765625,0.8911895751953125
1768576280070141000,12.087140869140624,-0.453033447265625,0.033203125,0.8919525146484375
1768576280080140800,12.097140869140626,-0.4565887451171875,0.0352020263671875,0.8904571533203125
1768576280090141000,12.107140869140625,-0.4562530517578125,0.036895751953125,0.890899658203125
1768576280100140800,12.117140869140625,-0.45587158203125,0.0391845703125,0.891998291015625
1768576280110140000,12.127139892578125,-0.4578857421875,0.039276123046875,0.8900604248046875
1768576280120139800,12.137139892578125,-0.45849609375,0.039306640625,0.88885498046875
1768576280130140000,12.147139892578124,-0.457244873046875,0.0394287109375,0.8876495361328125
1768576280140139800,12.157139892578124,-0.45611572265625,0.03802490234375,0.8895111083984375
1768576280150140000,12.167139892578126,-0.4571533203125,0.0385589599609375,0.890838623046875
1768576280160138800,12.177138671875,-0.4550018310546875,0.037811279296875,0.892486572265625
1768576280170139000,12.187138916015625,-0.45501708984375,0.036102294921875,0.8918914794921875
1768576280180138800,12.197138671875,-0.455810546875,0.0352325439453125,0.8902435302734375
1768576280190139000,12.207138916015625,-0.4586334228515625,0.0341339111328125,0.890350341796875
1768576280200138800,12.217138671875,-0.4570159912109375,0.0343780517578125,0.890228271484375
1768576280210137900,12.227137939453126,-0.459136962890625,0.0347137451171875,0.89056396484375
1768576280220137700,12.2371376953125,-0.459991455078125,0.0376434326171875,0.8886566162109375
1768576280230137900,12.247137939453125,-0.457977294921875,0.03814697265625,0.88763427734375
1768576280240137700,12.2571376953125,-0.455810546875,0.0386505126953125,0.8883209228515625
1768576280250137900,12.267137939453125,-0.4544525146484375,0.037811279296875,0.8897857666015625
1768576280260137000,12.277136962890625,-0.4539031982421875,0.0389251708984375,0.891845703125
1768576280270136800,12.28713671875,-0.4557952880859375,0.0378570556640625,0.8925018310546875
1768576280280136700,12.29713671875,-0.458221435546875,0.0402069091796875,0.888519287109375
1768576280290136800,12.30713671875,-0.4597625732421875,0.0408172607421875,0.8880767822265625
1768576280300136700,12.31713671875,-0.4591217041015625,0.0399017333984375,0.888336181640625
1768576280310135800,12.3271357421875,-0.4600372314453125,0.040771484375,0.8878631591796875
1768576280320136000,12.337135986328125,-0.459320068359375,0.037811279296875,0.8860931396484375
1768576280330135800,12.3471357421875,-0.4576568603515625,0.0368804931640625,0.8863067626953125
1768576280340136000,12.357135986328124,-0.45751953125,0.0364837646484375,0.888031005859375
1768576280350135800,12.3671357421875,-0.4576263427734375,0.0359649658203125,0.8870086669921875
1768576280360135000,12.377135009765626,-0.45928955078125,0.0368194580078125,0.89031982421875
1768576280370134800,12.387134765625,-0.4600830078125,0.03558349609375,0.891326904296875
1768576280380135000,12.397135009765625,-0.4628448486328125,0.036224365234375,0.890960693359375
1768576280390134800,12.407134765625,-0.4632110595703125,0.03680419921875,0.88983154296875
1768576280400134000,12.4171337890625,-0.4606781005859375,0.0359344482421875,0.8882598876953125
1768576280410133800,12.4271337890625,-0.4574127197265625,0.0369873046875,0.8851470947265625
1768576280420134000,12.4371337890625,-0.4553985595703125,0.0391082763671875,0.886199951171875
1768576280430133800,12.4471337890625,-0.454986572265625,0.0396728515625,0.88812255859375
1768576280440134000,12.4571337890625,-0.4541778564453125,0.036224365234375,0.8910675048828125
1768576280450133800,12.4671337890625,-0.460784912109375,0.036346435546875,0.89202880859375
1768576280460132900,12.4771328125,-0.465789794921875,0.03759765625,0.8909454345703125
1768576280470132700,12.4871328125,-0.4654083251953125,0.0367889404296875,0.891448974609375
1768576280480132900,12.4971328125,-0.4609222412109375,0.0368194580078125,0.89459228515625
1768576280490132700,12.5071328125,-0.4576416015625,0.037261962890625,0.8923797607421875
1768576280500131800,12.5171318359375,-0.4549560546875,0.039215087890625,0.890045166015625
1768576280510131700,12.527131591796875,-0.454010009765625,0.037017822265625,0.8868560791015625
1768576280520131800,12.5371318359375,-0.4580535888671875,0.0372772216796875,0.8874359130859375
1768576280530131700,12.547131591796875,-0.4613189697265625,0.037750244140625,0.8877410888671875
1768576280540131800,12.5571318359375,-0.4621429443359375,0.03765869140625,0.8878021240234375
1768576280550131000,12.567130859375,-0.4648284912109375,0.03814697265625,0.886505126953125
1768576280560130800,12.577130859375,-0.4661712646484375,0.0382232666015625,0.88433837890625
1768576280570131000,12.587130859375,-0.4649505615234375,0.038665771484375,0.8831024169921875
1768576280580130800,12.597130859375,-0.4622650146484375,0.039459228515625,0.88311767578125
1768576280590130700,12.607130615234375,-0.461395263671875,0.0392303466796875,0.883148193359375
1768576280600129800,12.6171298828125,-0.4590911865234375,0.0386810302734375,0.8835906982421875
1768576280610130000,12.6271298828125,-0.4590606689453125,0.0373687744140625,0.8845062255859375
1768576280620129800,12.6371298828125,-0.4601898193359375,0.0354766845703125,0.8881988525390625
1768576280630130000,12.6471298828125,-0.4618072509765625,0.036956787109375,0.8876953125
1768576280640129800,12.6571298828125,-0.4633026123046875,0.036529541015625,0.889434814453125
1768576280650129000,12.66712890625,-0.4627532958984375,0.0374298095703125,0.8890380859375
1768576280660128800,12.677128662109375,-0.4614410400390625,0.03814697265625,0.8897857666015625
1768576280670129000,12.68712890625,-0.460113525390625,0.041229248046875,0.889312744140625
1768576280680128800,12.697128662109375,-0.4571533203125,0.0404205322265625,0.88861083984375
1768576280690129000,12.70712890625,-0.4585723876953125,0.039794921875,0.88897705078125
1768576280700127700,12.717127685546876,-0.4591064453125,0.03955078125,0.8873138427734375
1768576280710127900,12.7271279296875,-0.4571075439453125,0.0362548828125,0.8878021240234375
1768576280720127700,12.737127685546875,-0.4616241455078125,0.034454345703125,0.885955810546875
1768576280730128000,12.7471279296875,-0.4649505615234375,0.036224365234375,0.886688232421875
1768576280740127700,12.757127685546875,-0.4632568359375,0.03558349609375,0.8895263671875
1768576280750126800,12.767126953125,-0.4632110595703125,0.0356597900390625,0.890899658203125
1768576280760126700,12.777126708984374,-0.463226318359375,0.0373992919921875,0.8889617919921875
1768576280770126800,12.787126953125,-0.4608001708984375,0.0377349853515625,0.8886260986328125
1768576280780126700,12.797126708984376,-0.45904541015625,0.037506103515625,0.887664794921875
1768576280790126800,12.807126953125,-0.461669921875,0.0383148193359375,0.8876800537109375
1768576280800126000,12.8171259765625,-0.4615631103515625,0.0390167236328125,0.8856964111328125
1768576280810125800,12.827125732421875,-0.4631500244140625,0.039306640625,0.8854217529296875
1768576280820125700,12.837125732421875,-0.4637908935546875,0.0385284423828125,0.8851776123046875
1768576280830125800,12.847125732421874,-0.4629058837890625,0.0376739501953125,0.8877105712890625
1768576280840125700,12.857125732421874,-0.4609375,0.0364837646484375,0.8908233642578125
1768576280850124800,12.867124755859376,-0.4625701904296875,0.03643798828125,0.892181396484375
1768576280860125000,12.877125,-0.461456298828125,0.03778076171875,0.89178466796875
1768576280870124800,12.887124755859375,-0.4605255126953125,0.0363006591796875,0.891693115234375
1768576280880125000,12.897125,-0.4613494873046875,0.0370330810546875,0.889404296875
1768576280890123800,12.907123779296874,-0.4611663818359375,0.0376739501953125,0.88653564453125
1768576280900124000,12.9171240234375,-0.4594879150390625,0.03802490234375,0.8851776123046875
1768576280910123800,12.927123779296876,-0.4583740234375,0.0377044677734375,0.8855133056640625
1768576280920124000,12.9371240234375,-0.459503173828125,0.0381317138671875,0.8896942138671875
1768576280930123800,12.947123779296875,-0.458465576171875,0.03759765625,0.89068603515625
1768576280940123000,12.957122802734375,-0.460540771484375,0.03857421875,0.88934326171875
1768576280950122800,12.967122802734375,-0.4614410400390625,0.0385894775390625,0.8893890380859375
1768576280960123000,12.977122802734375,-0.46319580078125,0.037353515625,0.8885040283203125
