time,seconds_elapsed,z,y,x
1768576268039134500,0.056134521484375,0.021848880247212946,-0.01106530989902094,-0.002239303359389305
1768576268049134600,0.066134521484375,0.02027589530944824,0.0008874138263985515,0.02122048268318176
1768576268059134500,0.076134521484375,-0.004751578441262245,0.01753043252620846,0.013698270484805106
1768576268069133600,0.086133544921875,0.03935410526692867,0.0348366278424859,0.0010819500178098679
1768576268079133400,0.096133544921875,0.0449514868825674,0.011071611775644122,-0.004661562070250511
1768576268089133600,0.106133544921875,0.017367898908257483,0.018177881850581615,-0.0020247838258743286
1768576268099133400,0.116133544921875,0.008950783696770668,0.0138484378115274,0.025458850905299184
1768576268109133600,0.126133544921875,0.03942545347008854,0.015359828755166382,0.026938860329985617
1768576268119132400,0.13613232421875,0.03411331853661686,0.012976038891170173,0.021392916640639303
1768576268129132500,0.146132568359375,-0.0015817162334918974,0.009330229734722525,0.01913432405889034
1768576268139132400,0.15613232421875,0.006674655458331108,0.009667517131380737,0.0075982000440359115
1768576268149132500,0.166132568359375,0.037720987639762456,0.0385145126376301,-0.031046880170702933
1768576268159132400,0.17613232421875,0.05286185814831405,0.011420863604731856,-0.002949497455358505
1768576268169131500,0.186131591796875,0.02840604680571705,0.010355828189104795,0.018132453539967536
1768576268179131400,0.19613134765625,0.012189619487524032,0.017836557599622754,0.02111585326492786
1768576268189131500,0.206131591796875,-0.007307108142971992,0.02545550817074254,0.043838557204604146
1768576268199131400,0.21613134765625,-0.013687201101519166,0.035268278991710394,0.07105681899785996
1768576268209131500,0.226131591796875,-0.000023380875587463377,0.04734775263564661,0.057581251353025435
1768576268219130600,0.236130615234375,0.03227499719355255,0.021010347063839436,0.056709729215502734
1768576268229130500,0.246130615234375,-0.009805902688764035,0.033105182673688976,0.06484393583238124
1768576268239130600,0.256130615234375,-0.034783728611469264,0.022788407853338865,-0.005128010538220405
1768576268249130500,0.266130615234375,0.01828037411067635,0.024784531840309498,0.00978022025823593
1768576268259130400,0.27613037109375,-0.0010608706971630454,0.02171929905079305,0.015283493849635123
1768576268269129500,0.28612939453125,-0.023227146330475807,0.017605580121651292,0.004932195705175399
1768576268279129600,0.296129638671875,-0.03573069060537964,0.026461379011347888,-0.004244797962903976
1768576268289129500,0.30612939453125,0.01393909350335598,0.004050170439947396,0.0049789574563503265
1768576268299129600,0.316129638671875,-0.008768412867188453,0.047667997565958645,-0.01842939065992832
1768576268309129500,0.32612939453125,-0.04526767669226974,0.03610907719740644,0.018163433200120926
1768576268319128600,0.336128662109375,0.0177636202275753,0.013894505442958324,0.0493739794999361
1768576268329128400,0.34612841796875,-0.008553893333673476,0.029673984382301566,0.0591816722869873
1768576268339128600,0.356128662109375,0.011789843047596513,0.04135620233695954,0.032788755401968954
1768576268349128400,0.36612841796875,-0.0239244809448719,0.031676337180659174,0.015527823999524116
1768576268359128600,0.376128662109375,-0.017094890653155743,0.023016243526153266,0.009635258829593658
1768576268369127400,0.38612744140625,0.010095277556777,0.029970884969644247,0.01196574760377407
1768576268379127600,0.39612744140625,-0.008082768690586089,0.02422130846697837,0.011738368588685988
1768576268389127400,0.40612744140625,-0.009511924710869788,0.033742074071429665,0.0028162264645099637
1768576268399127600,0.41612744140625,0.003441664886474609,0.026660974970366805,0.007189619243144989
1768576268409126400,0.42612646484375,0.0041939810911193484,0.0018613368924707172,0.003017301994562149
1768576268419126500,0.43612646484375,-0.0398707495521754,0.033584435824304815,0.02112345204949379
1768576268429126400,0.44612646484375,-0.0072165072500705715,0.027842713834531605,0.02158405529856682
1768576268439126500,0.45612646484375,0.004617759461142123,0.029549846545979377,0.027430443239212034
1768576268449126400,0.46612646484375,0.008881773581169546,0.030238395065721124,0.02353285127878189
1768576268459125500,0.47612548828125,0.05827628441248089,0.028123814064543694,0.029225509962439535
1768576268469125600,0.486125732421875,0.03608783347997814,0.011418324587773532,0.03928279359638691
1768576268479125500,0.49612548828125,-0.0061608607172966,0.0069109666985459626,0.04053483948409557
1768576268489125400,0.50612548828125,-0.0014822744470089674,0.017536807468067853,0.035814240702986715
1768576268499125500,0.51612548828125,-0.023515315622091294,0.006737838621344417,0.02345920152068138
1768576268509124600,0.52612451171875,0.023377368456125258,0.006405866720620542,0.0399888960391283
1768576268519124500,0.53612451171875,0.025490451619960365,-0.015176581142749637,0.026148586735129355
1768576268529124600,0.54612451171875,0.03228723562061787,-0.002736329628713429,0.017084990313649177
1768576268539124500,0.55612451171875,0.023885902500152587,0.013950966604240238,-0.0039770869374275205
1768576268549124400,0.566124267578125,0.033754422096349296,0.012444635428208856,0.0015858078867197036
1768576268559123500,0.57612353515625,0.019677929416298864,-0.0001799414104782045,-0.016486439898610115
1768576268569123600,0.58612353515625,-0.01808331716861576,0.009620974575914442,-0.012276128727197647
1768576268579123500,0.59612353515625,0.01996960583925247,-0.009978062651585786,0.012885200536251067
1768576268589123600,0.60612353515625,-0.013065233278274536,-0.02090538885202259,0.021739538121223447
1768576268599123500,0.61612353515625,-0.00014437690675258636,-0.00009180646929889917,0.06309738442599773
1768576268609122600,0.62612255859375,0.04616027815043926,-0.002354399372730404,0.0568985297858715
1768576268619122400,0.636122314453125,0.03914718451797962,0.021424170295428483,0.03183832280933857
1768576268629122600,0.64612255859375,0.044404958915710446,0.01480632305825129,0.029517770907282827
1768576268639122400,0.656122314453125,-0.008256371691823005,0.0358488918912597,0.027196634483337402
1768576268649122600,0.66612255859375,-0.03459788718316704,0.0244453082148917,-0.013732172754406928
1768576268659121400,0.676121337890625,-0.014759177714586257,0.04845065410993993,0.03153144881725311
1768576268669121500,0.68612158203125,0.0013976283708587289,0.01854421267863363,0.007671265280246734
1768576268679121400,0.696121337890625,-0.029006314253807067,0.02794274014290422,-0.011274842730164528
1768576268689121500,0.70612158203125,0.0034036709636449812,0.014765497857518493,-0.0040390462577342984
1768576268699121400,0.716121337890625,-0.0017470993956550955,0.005316756309662014,0.003801730370521545
1768576268709120500,0.72612060546875,-0.008056428672932088,0.020584321937803178,0.027802783682942388
1768576268719120400,0.736120361328125,-0.009363456150889396,0.009807930249068885,0.01694061340689659
1768576268729120500,0.74612060546875,-0.016796857554651795,-0.006875475260056555,-0.002625087806582451
1768576268739120400,0.756120361328125,-0.0306780833909288,-0.013404182909056544,0.00950491044819355
1768576268749119500,0.766119384765625,-0.04123860383927822,-0.01946962042786181,-0.006078443130850791
1768576268759119600,0.77611962890625,0.009656301617622374,-0.01946532784523442,-0.009553425765037536
1768576268769119500,0.786119384765625,0.04044891476631164,-0.027407171961478887,0.013015548917651176
1768576268779119600,0.79611962890625,0.028521782139874993,-0.030487565787509083,0.03694178342819213
1768576268789119500,0.806119384765625,0.026678127034567296,-0.0025635668776929376,0.04965455000698566
1768576268799118600,0.81611865234375,0.019456432152725755,0.0013489303909242152,0.04622632912397384
1768576268809118500,0.826118408203125,0.036547194620035584,0.0009775397952646017,0.029651041898131367
1768576268819118600,0.83611865234375,0.014891864183545113,0.005581928318180144,0.0008165770798921585
1768576268829118500,0.846118408203125,-0.023138810459896922,-0.000052680035308003426,-0.008716390419006348
1768576268839118600,0.85611865234375,-0.0056733329286798835,0.014742080449312925,-0.0037549686193466183
1768576268849117400,0.866117431640625,-0.017453239104151724,0.021384148812294005,0.013010288220643996
1768576268859117600,0.87611767578125,-0.0034562414010986683,0.015329945073556154,0.007172083586454391
1768576268869117400,0.886117431640625,0.03175765878856182,-0.0058149333564564585,0.011197101318836212
1768576268879117600,0.89611767578125,0.011030512580275535,0.004884173578675836,-0.01785655920803547
1768576268889117400,0.906117431640625,0.04055705131590366,0.022707250642217694,0.012803951993584632
1768576268899116500,0.916116455078125,0.028912206229567528,0.018269048999063668,0.06668167265355586
1768576268909116400,0.926116455078125,0.008765490257740021,0.030278909739200024,0.061168462190032004
1768576268919116500,0.936116455078125,0.027974633118510246,0.044584863793570545,0.059094578525424
1768576268929116400,0.946116455078125,0.03638411301281303,0.03841077826851979,0.0589724134504795
1768576268939116500,0.956116455078125,0.01168747865166515,0.013060374440066516,0.044943888098001476
1768576268949115400,0.966115478515625,-0.023383761664293706,0.0028603943997994063,-0.010846972706913947
1768576268959115500,0.976115478515625,-0.02765778572168201,0.011212317154277115,-0.039428339546918864
1768576268969115400,0.986115478515625,-0.030350678067468106,0.020533943457435814,-0.01668868447244167
1768576268979115500,0.996115478515625,0.04760463173985481,0.0025538857338950035,0.021945874348282813
1768576268989115400,1.006115478515625,0.01061024134159088,0.0008474836748093366,0.019288053315877914
1768576268999114500,1.016114501953125,0.008531681501865387,-0.011906418631970882,0.014210311660170553
1768576269009114600,1.026114501953125,0.02106562091503292,-0.01750533461757004,-0.013929741153120994
1768576269019114500,1.036114501953125,0.001387070444226265,-0.014968509616330266,-0.017679449075460433
1768576269029114400,1.0461142578125,0.003067570877075195,-0.002337703966256231,0.016291794109344483
1768576269039114500,1.056114501953125,-0.02588204475343227,0.028998404941987244,0.030967969715595244
1768576269049113600,1.066113525390625,-0.012791677033901213,0.04814571634661406,0.040402153015136714
1768576269059113500,1.076113525390625,0.02658756267428398,0.03636608416577801,0.058812838974595064
1768576269069113600,1.086113525390625,0.048435200812481344,0.015624763301666825,0.06048398705720901
1768576269079113500,1.096113525390625,0.014614216285943985,-0.0074969864255748685,0.013963643422722816
1768576269089112600,1.106112548828125,-0.007770086012221873,-0.0261678028922528,0.0009428338080644607
1768576269099112400,1.116112548828125,0.025137911855243146,-0.025210429102182387,-0.021216391029953954
1768576269109112600,1.126112548828125,0.03942421136107296,-0.006694839729834348,-0.03410802130699157
1768576269119112400,1.136112548828125,0.03462820925619453,0.004606964072491973,-0.028293197548389434
1768576269129112600,1.146112548828125,0.011969291267730294,0.02031558799901977,0.027210078486800193
1768576269139111400,1.156111328125,-0.013424677707813679,0.031026988160144535,0.02539981419444084
1768576269149111600,1.166111572265625,0.018662651426531375,0.024157997439801692,0.04603752855360508
1768576269159111400,1.176111328125,0.004443571938015521,-0.008670450651738793,0.023889994153380393
1768576269169111600,1.186111572265625,-0.03612579087018966,0.014569719557091593,0.0011287117689847946
1768576269179111400,1.196111328125,0.020675708281993863,0.026738698115386067,0.00963818143904209
1768576269189110500,1.206110595703125,0.034087563040852545,0.021356694549787787,0.053480830296874046
1768576269199110400,1.2161103515625,-0.0026654198169708252,0.012214315537363291,0.04346504771709442
1768576269209110500,1.226110595703125,0.0005605930248275398,-0.0043242381409741935,0.024317864176630972
1768576269219110400,1.2361103515625,0.023327720628120004,-0.008510510849673301,0.02702887670099735
1768576269229110500,1.246110595703125,0.020917736876942216,0.0029864684648811817,-0.018595979398488997
1768576269239109600,1.256109619140625,0.02992810527384281,0.007387278973404318,-0.008113748350739478
1768576269249109500,1.266109619140625,0.023876586682535707,-0.0022669037523679434,0.002208323699235916
1768576269259109400,1.276109375,-0.018095665193535386,-0.006247022897098213,-0.010689151796698569
1768576269269109500,1.286109619140625,-0.0507815447429195,-0.02165138491373509,0.004085808008909226
1768576269279109400,1.296109375,-0.02186053415238857,-0.03847357783904299,0.02994330284297466
1768576269289108500,1.3061083984375,0.0014969970921054482,-0.022021350737288593,0.04355331052243709
1768576269299108600,1.316108642578125,0.05612166366185992,-0.008345967937726528,0.05166062913239002
1768576269309108500,1.3261083984375,0.07266312168333679,0.0090404530079104,0.021171382844448087
1768576269319108600,1.336108642578125,0.03964340706970543,0.02258457411061972,0.025080665242671964
1768576269329108500,1.3461083984375,-0.004210274638794362,0.02695548267122358,0.02509177115857601
1768576269339107600,1.356107666015625,-0.021235643719695507,0.020714597253967074,0.020319734451174735
1768576269349107500,1.366107421875,-0.03852291513979435,0.017777758350782095,0.0019371055424213409
1768576269359107600,1.376107666015625,-0.024607750501297414,0.02281045528836548,0.0034732290685176846
1768576269369107500,1.386107421875,-0.01133501195218414,0.018153843387868254,-0.0036713819891214367
1768576269379107600,1.396107666015625,-0.003932042219303548,0.011545147571526467,0.000689151307940483
1768576269389106400,1.4061064453125,0.002179097604751587,-0.004129738482180983,0.014470423901081084
1768576269399106600,1.4161064453125,0.00341068522632122,0.0010735840482637286,0.035004677885770795
1768576269409106400,1.4261064453125,-0.01521806393060833,-0.016276304279267788,0.018277999490499495
1768576269419106600,1.4361064453125,-0.01445405728816986,0.01379064320968464,0.007830839756131172
1768576269429105400,1.44610546875,-0.020200455453060567,-0.007615516505017877,0.04632803593277931
1768576269439105500,1.45610546875,-0.02899579285979271,-0.0030802111629396676,0.048019642281532285
1768576269449105400,1.46610546875,-0.05318973839581012,-0.0062079512620344755,0.030260698229074477
1768576269459105500,1.47610546875,-0.042889293655753134,0.0009744345227256417,0.024774375772476195
1768576269469105400,1.48610546875,-0.012723251440189778,-0.013023567827325314,0.016145663636922835
1768576269479104500,1.4961044921875,-0.020313304710388183,-0.012654789313860236,0.007664251017570495
1768576269489104400,1.5061044921875,-0.02435936523079872,-0.017719908950012176,-0.01368891813457012
1768576269499104500,1.5161044921875,0.013158756780624389,-0.0263814639092423,0.009690203887224197
1768576269509104400,1.5261044921875,-0.004400280785560607,-0.026990901044476774,0.02439852819740772
1768576269519104500,1.5361044921875,-0.034116789135336875,0.00043784342799335716,-0.012213000363111496
1768576269529103600,1.546103515625,-0.0019131401449441908,0.002966375524923205,-0.004530629166960716
1768576269539103500,1.556103515625,-0.017544387986324725,-0.004470405146013945,0.02872983539998531
1768576269549103600,1.566103515625,-0.023863069613836704,0.01790996989570558,0.010054361024498939
1768576269559103500,1.576103515625,-0.020997779843211172,0.02011204651724547,0.0005067804783582687
1768576269569103400,1.586103271484375,-0.03088321404159069,0.007976550103444606,0.009804185655713081
1768576269579102500,1.5961025390625,-0.021840112418867647,0.001645264722686261,0.018036591950058935
1768576269589102600,1.6061025390625,-0.01803893003761768,0.0005980937573127448,0.008911620730161666
1768576269599102500,1.6161025390625,-0.008717559462785721,0.0003945522755384445,0.0032429274439811705
1768576269609102600,1.6261025390625,0.03657415569219738,0.014770758554525672,0.029434768798947332
1768576269619102500,1.6361025390625,0.03332015886493027,0.013426723534427582,0.05548924750983715
1768576269629101600,1.6461015625,0.0204389769166708,-0.01021530547356233,0.04938566993772983
1768576269639101400,1.656101318359375,0.011120565483905375,-0.008109254838712512,0.030861586731672285
1768576269649101600,1.6661015625,0.020514380240440368,-0.01566023647384718,0.008441665130853652
1768576269659101400,1.676101318359375,0.01833352907001972,-0.00903053440209478,-0.0026093057155609127
1768576269669101600,1.6861015625,-0.001197100830078125,0.005361746228858828,-0.009924597164988518
1768576269679100400,1.696100341796875,0.004725274956226349,-0.006757073044776916,-0.011428571987152098
1768576269689100500,1.7061005859375,-0.008856127683259546,-0.021851620193570852,0.003800561326742172
1768576269699100400,1.716100341796875,0.003507679327391088,-0.01891585900261998,0.013936170893907546
1768576269709100500,1.7261005859375,-0.02334233367536217,0.010628215389698744,0.016590484794974325
1768576269719100400,1.736100341796875,-0.0026426599958911537,0.007778908639494329,0.01940671125948429
1768576269729099500,1.746099609375,-0.0019546411991119383,0.029122232251055535,0.038699440750479694
1768576269739099400,1.756099365234375,-0.008149988707900046,0.0396877942007035,0.034359365719556806
1768576269749099500,1.766099609375,-0.003625752749107778,0.027574089493602513,0.006385317122936249
1768576269759099400,1.776099365234375,-0.014641104292869567,0.024112240335624664,-0.021744214296340943
1768576269769099500,1.786099609375,-0.005499181938171387,0.015169548613764345,0.006381809991598129
1768576269779098600,1.7960986328125,-0.017797522497177122,0.021428627274837343,-0.017725041782855985
1768576269789098500,1.806098388671875,-0.02122862945701927,0.031202509123831986,-0.022407646641135214
1768576269799098400,1.816098388671875,-0.0063899567654356355,0.006534132742788642,0.0052110126465559
1768576269809098500,1.826098388671875,-0.00035893297288566825,0.0024755598006770013,0.03523790211975574
1768576269819097600,1.83609765625,0.0031926950940862294,0.00464623663695529,0.014561609315872191
1768576269829097500,1.846097412109375,0.006969839012622833,0.006626048809941857,0.02756663683950901
1768576269839097600,1.85609765625,-0.015877368089556695,0.011003953366912901,0.0024181670576334
1768576269849097500,1.866097412109375,-0.02793375311885029,0.00201959619410336,-0.002841360905766487
1768576269859097600,1.87609765625,-0.015045629973150789,0.018015256901085377,-0.005399813216924667
1768576269869096400,1.886096435546875,-0.0024877251625061033,0.007042246661707758,0.017487725895643232
1768576269879096600,1.8960966796875,-0.010020422222279012,-0.0012065810444764791,0.029444705671072005
1768576269889096400,1.906096435546875,-0.03399930023550987,0.027552297786902633,0.041539048090577124
1768576269899096600,1.9160966796875,-0.015489793544076383,0.019540767701622098,0.06215630418360233
1768576269909096400,1.926096435546875,-0.012020071606896818,0.01755750319622457,0.033254619348049165
1768576269919095600,1.936095458984375,-0.012613397857546806,0.03602437632232904,0.0182820911437273
1768576269929095400,1.946095458984375,0.0293967383434996,0.05931890706690028,0.01424012227654457
1768576269939095600,1.956095458984375,0.03092763770520687,0.04855210519041866,-0.00566284806728363
1768576269949095400,1.966095458984375,-0.024690204620361325,0.011531283442955464,0.003302548676729202
1768576269959095600,1.976095458984375,-0.039536476096510884,-0.005099113237299025,0.005519640204310417
1768576269969094400,1.986094482421875,-0.03244969617333263,-0.01933534479001537,0.006077858608961105
1768576269979094500,1.996094482421875,-0.0010035875519737601,-0.01284802859732881,0.02683715352118015
1768576269989094400,2.006094482421875,0.008718765039183198,-0.015231033010035753,0.02442074002921581
1768576269999094500,2.016094482421875,0.034937494401074944,-0.0038145533194765447,0.03623918811678886
1768576270009094400,2.026094482421875,0.06372516093552112,0.00924256971757859,0.03968260656893253
1768576270019093500,2.036093505859375,0.022645547050237653,0.01035288731334731,0.017080314138531685
1768576270029093400,2.04609326171875,-0.007593523868918419,0.012273900237493217,0.011977438041567801
1768576270039093800,2.05609375,-0.02668985400497913,-0.0025276370477862655,0.0077758946985006325
1768576270049093600,2.06609375,-0.03272504251599312,0.014399660219810902,0.004469838890433312
1768576270059093800,2.07609375,0.006271919876337051,0.024796861598920077,0.01598258202970028
1768576270069092900,2.0860927734375,-0.0078080799350515005,0.03750402042083442,0.01777063449025154
1768576270079092700,2.0960927734375,0.0015747019708156585,0.03812151299836114,0.015517302605509757
1768576270089092600,2.106092529296875,0.03178801739420742,0.03449583331448957,0.01821019495129585
1768576270099092700,2.1160927734375,0.023709340356849132,0.009354140333272516,0.024954408514499662
1768576270109092600,2.126092529296875,0.00572360181119293,0.014355711480230092,0.009247136294841765
1768576270119091700,2.136091796875,0.004831109950877726,0.003866667099203914,0.02196516357064247
1768576270129091800,2.146091796875,0.03305354381799697,0.000542399781011045,0.03424421490728855
1768576270139091700,2.156091796875,0.017113047364354133,0.006902271935436874,0.015549451309442519
1768576270149091800,2.166091796875,-0.005809563061594963,-0.0011895385781303047,0.009715922850370406
1768576270159091700,2.176091796875,-0.0020563845405355097,0.0005175393343903124,0.01465571734011173
1768576270169090800,2.1860908203125,0.005853438735939562,-0.009926661257911473,0.019300328275561333
1768576270179090700,2.196090576171875,0.015515585572458803,-0.02228476918013766,0.019318448454141615
1768576270189090800,2.2060908203125,0.004717128182388842,-0.019398765415046364,0.003464461240172386
1768576270199090700,2.216090576171875,0.031126411680318412,-0.023397808455955234,0.02979308071732521
1768576270209090800,2.2260908203125,0.03141808810327202,-0.028392127878218886,0.026928923457860944
1768576270219089700,2.236089599609375,0.024874365548230706,-0.005285776649508625,0.019280454531311986
1768576270229089800,2.24608984375,0.04360007227361202,-0.0009231427269056439,0.03424421490728855
1768576270239089700,2.256089599609375,0.05118720293436199,0.008249741021636873,0.010462357303500175
1768576270249089800,2.26608984375,0.0479232327023521,0.008243859270121901,-0.00014905308187007903
1768576270259089700,2.276089599609375,0.05364741903543472,0.01228991979053244,-0.006283610314130782
1768576270269088800,2.2860888671875,0.023625242269970474,0.019847933954652397,0.007317045015096664
1768576270279088600,2.296088623046875,0.051992016511224204,0.013492336116544901,0.015972645157575606
1768576270289088800,2.3060888671875,0.04039977839495987,0.011260321014467627,0.014900047490000724
1768576270299088600,2.316088623046875,0.030182408828474578,0.005002703658118844,0.009638765960931777
1768576270309088800,2.3260888671875,0.01698273551557213,0.004240468847658485,0.014848609563708304
1768576270319087600,2.336087646484375,0.052888782687857745,0.012990980731975287,0.04190086714029312
1768576270329087700,2.346087646484375,0.009713036773540079,0.019142397767491638,0.022714520633220672
1768576270339087600,2.356087646484375,0.017653145590424538,-0.0005945683596655726,0.009510755667090415
1768576270349087700,2.366087646484375,0.02726447555515915,-0.02208228714428842,0.019662147325277327
1768576270359086800,2.3760869140625,0.01686345651745796,-0.019007117482647298,0.024709493842720982
1768576270369086700,2.386086669921875,0.02411682517919689,-0.022221604283433408,0.01795066723227501
1768576270379086800,2.3960869140625,0.02750292395353317,-0.01236667482117191,0.02031856540739536
1768576270389086700,2.406086669921875,0.0405336704403162,0.027434443560894577,0.017462591454386712
1768576270399086600,2.416086669921875,0.023287352085113525,0.042206608621217306,0.018794716840982436
1768576270409085700,2.426085693359375,-0.0027688801914453505,0.04214740751357749,-0.0003612345278263092
1768576270419085800,2.4360859375,0.005770363562367856,0.04885863212263211,0.0071294134885072705
1768576270429085700,2.446085693359375,0.005705518165230751,0.04276166695440188,0.008190320718288421
1768576270439085800,2.4560859375,-0.005696750336885452,0.04457801392767578,-0.015599720191955565
1768576270449085700,2.466085693359375,0.010161328530311584,0.019224358696211127,-0.002742576706409454
1768576270459084800,2.476084716796875,0.03666183397565037,0.008495696873031556,-0.0014203881919384001
1768576270469084700,2.486084716796875,0.018789492676593363,0.008766622768901288,0.00991407577097416
1768576270479084800,2.496084716796875,0.021989786555245517,0.006709964233729988,0.020357143852114675
1768576270489084700,2.506084716796875,0.02699965060651302,0.005935034338477999,0.03814472947716713
1768576270499084800,2.516084716796875,-0.03114507984817028,0.012932090151589363,0.02480769352018833
1768576270509083600,2.526083740234375,-0.029569172300957142,0.02943212018413469,0.03241875304579735
1768576270519083800,2.536083740234375,-0.003446341061592102,0.011429759297240525,0.033899931514263154
1768576270529083600,2.546083740234375,0.012435082148574292,0.02058158199144527,0.011138649129867553
1768576270539083800,2.556083740234375,0.017656031667254865,0.01628856097264215,-0.0002513444125652313
1768576270549083600,2.566083740234375,0.015508534777164459,-0.018808014713972806,0.022467852395772932
1768576270559082800,2.576082763671875,0.047760151095129544,-0.017206771796103564,0.029783728367090225
1768576270569082600,2.58608251953125,0.04742876371629536,-0.012304386707302183,0.034710663375258445
1768576270579082800,2.596082763671875,-0.004458769507147371,-0.015696440298389642,0.033959552747011186
1768576270589082600,2.60608251953125,-0.007213000118732452,-0.0003274601223878562,0.01585164912641048
1768576270599082800,2.616082763671875,-0.0002986906856298446,0.026259371899534017,0.018695932641625404
1768576270609081900,2.626081787109375,-0.00949910176191479,0.017599004250392316,0.028277999979257583
1768576270619081700,2.636081787109375,-0.003451565225981176,-0.004793901479337364,0.03695522743165493
1768576270629081600,2.64608154296875,0.02051554928421974,-0.003441116897203028,0.03321311829388141
1768576270639081700,2.656081787109375,0.039562816114164887,0.004210128508321941,0.023785364735126494
1768576270649081600,2.66608154296875,0.024715960116125642,0.013898304835241288,0.0038917467415332794
1768576270659080700,2.676080810546875,0.002062741216085851,0.0033055991503410037,0.009886018720269202
1768576270669080800,2.686080810546875,0.016186032179929314,-0.008245722433645278,0.01182370878458023
1768576270679080700,2.696080810546875,0.040882082019187506,-0.016849153997469692,0.015548282265663146
1768576270689080800,2.706080810546875,0.01794310498032719,-0.0290068805093877,0.011050386324524878
1768576270699080700,2.716080810546875,-0.01058039419259876,-0.022480620545800772,0.02078969005048275
1768576270709079800,2.726079833984375,-0.018407142295502124,-0.018974311191588638,0.033542788639664645
1768576270719079700,2.73607958984375,0.02070665140952915,-0.023433847883716226,0.02325929503440857
1768576270729079800,2.746079833984375,0.03016487317178398,0.008187982630729675,-0.004095744881033897
1768576270739079700,2.75607958984375,-0.010734123449586332,0.020338786211516708,-0.02263444113433361
1768576270749079800,2.766079833984375,-0.02118424232602119,0.010492149653565139,-0.004671498942375183
1768576270759078700,2.77607861328125,0.02508124976456165,0.02555239267395809,0.01195522620975971
1768576270769078800,2.786078857421875,-0.007202478724718094,0.04209450828256085,0.01004559319615364
1768576270779078700,2.79607861328125,-0.03073353990521282,0.02054013573620468,0.02220832467675209
1768576270789078800,2.806078857421875,0.014842216355539858,0.0016833865096792578,0.03109364192187786
1768576270799078700,2.81607861328125,0.02154781494140625,-0.0327387970467098,0.029063012877106664
1768576270809077800,2.826077880859375,0.04049918364882469,-0.05711969825588167,0.014620646026730537
1768576270819077600,2.83607763671875,-0.01595627854466438,-0.03165394268576056,-0.022279051825404166
1768576270829077800,2.846077880859375,-0.020984335839748382,-0.019822598583996296,0.03417816393375397
1768576270839077600,2.85607763671875,0.024959632678888736,0.002755363122746348,0.04934007723033428
1768576270849077800,2.866077880859375,0.010319112907908856,0.01006267219511792,0.03410217608809471
1768576270859076900,2.876076904296875,-0.013655563854239881,0.004740983982011676,0.03636135319173336
1768576270869076700,2.88607666015625,0.0038906142303720115,0.015215543179959058,0.04879588735103607
1768576270879076600,2.89607666015625,0.006484685844182968,-0.003106057990249246,0.019926351219415665
1768576270889076700,2.90607666015625,0.020848142239451407,-0.010712112547177821,0.006311667364835739
1768576270899076600,2.91607666015625,0.034712416940927505,-0.004353519034385681,0.001985036337375641
1768576270909075700,2.92607568359375,0.035377602851390834,-0.020193989179655907,-0.0018956044882535933
1768576270919075800,2.936075927734375,0.026772856113314626,-0.0390690960467793,0.005432546442747116
1768576270929075700,2.94607568359375,-0.012632102558016776,-0.045434320229757574,-0.02047112562060356
1768576270939075600,2.95607568359375,-0.028653847554326057,-0.04112387315211817,0.0017997428983449935
1768576270949075700,2.96607568359375,0.0050684258380904795,-0.03841971049364656,0.03558744620978832
1768576270959074800,2.97607470703125,0.024963760864734647,-0.01104209342021495,-0.015776245802640913
1768576270969074700,2.98607470703125,0.02196812271270901,0.010626114764157682,-0.0034019173979759213
1768576270979074800,2.99607470703125,0.002044694102741778,0.010508479733858257,0.0107663086861372
1768576270989074700,3.00607470703125,-0.0022041955133900045,0.02121047274582088,0.031075521743297575
1768576270999074800,3.01607470703125,-0.0023374665042385457,0.022968440595362336,0.04151917434632778
1768576271009073700,3.02607373046875,-0.02592529937326908,0.03137622172292322,0.04719663546085357
1768576271019073800,3.03607373046875,-0.04457856191694736,0.023746366165298967,0.026090719068050383
1768576271029073700,3.04607373046875,-0.03317808351311832,0.0063990533873438836,0.004375730866193771
1768576271039074000,3.056073974609375,-0.014806523987650871,-0.011460428430140017,0.004199789777398109
1768576271049074000,3.066073974609375,-0.003081599402427673,-0.014334869621600955,0.010170096358656882
1768576271059073000,3.076072998046875,-0.004059541056491435,-0.03382423592954874,0.016154431465268133
1768576271069073000,3.086072998046875,-0.04867839845120907,-0.0421859494256787,0.003735679396986961
1768576271079073000,3.096072998046875,-0.03639233285188675,-0.021734441820997742,0.0017927286356687546
1768576271089073000,3.106072998046875,0.004431844967603683,-0.023988084232993423,0.007198387071490287
1768576271099073000,3.116072998046875,-0.018180968856811523,-0.008104688261449337,-0.0005599719703197479
1768576271109072000,3.12607177734375,-0.046264323046803474,-0.012378401791583745,0.007980477359890938
1768576271119072000,3.136072021484375,-0.05340078733060508,-0.00023391835372895,0.03193944509625435
1768576271129071900,3.14607177734375,-0.0680482848316431,0.01814323066230863,0.021625556352734564
1768576271139072000,3.156072021484375,-0.07113803100790828,0.020580522545520216,0.02986263882219791
1768576271149072000,3.16607177734375,-0.04791680296156555,0.009419570252299309,0.028671383211016654
1768576271159071000,3.176071044921875,-0.021745383340120314,0.005505648211576044,0.0041489363729953765
1768576271169070800,3.18607080078125,-0.0056897726068273185,-0.0031662089459598064,0.008521160107851028
1768576271179071000,3.196071044921875,-0.04496672098431736,0.012611863487586378,0.0061573535859584805
1768576271189070800,3.20607080078125,-0.009820004279352723,0.0007461969911120831,-0.01237140579521656
1768576271199071000,3.216071044921875,0.009631715165637433,0.015336594010051339,0.010257190120220184
1768576271209070000,3.226070068359375,-0.02942077680621296,-0.006644716977793723,-0.001681084954738617
1768576271219070000,3.236070068359375,-0.05760755483806133,0.00382370474031195,-0.0012070377022027968
1768576271229069800,3.24606982421875,-0.025445406901836394,-0.0030794074453413486,0.01571194839477539
1768576271239070000,3.256070068359375,0.0017816227197647093,-0.005342475272808223,0.044153614503145214
1768576271249069800,3.26606982421875,0.009098083212971687,0.005654993554390967,0.034301498052477834
1768576271259069000,3.27606884765625,-0.00823763045873493,0.030263237246032804,0.01187339314520359
1768576271269069000,3.286069091796875,-0.021553112171031532,0.03469710977394134,0.02131985140442848
1768576271279069000,3.29606884765625,-0.04754208789765835,0.03296020297873765,0.020429040044546126
1768576271289069000,3.306069091796875,-0.050097033077478405,0.02409855887014419,-0.004108019840717315
1768576271299069200,3.316069091796875,-0.04582359354197979,0.01669023710871115,-0.0015776245802640915
1768576271309068000,3.326068115234375,-0.007283727267384529,0.0151871390693821,-0.009237199422717094
1768576271319068000,3.33606787109375,-0.012195428173802793,0.04001068774582818,0.01841536213457584
1768576271329068000,3.346068115234375,-0.01111932337488979,0.03254955808492377,0.023770167165994643
1768576271339068000,3.35606787109375,-0.02251929032206535,0.028746311610750853,0.017000819161534307
1768576271349068300,3.366068359375,-0.010976115511916577,0.014545553230214864,0.007843699237704277
1768576271359067000,3.37606689453125,-0.012976970472931861,0.031031481672171502,-0.01658113244473934
1768576271369067000,3.38606689453125,0.007227065176703035,0.042385289656370874,-0.009593173253536223
1768576271379067000,3.39606689453125,0.018411307013966142,0.023885774635989218,0.004261749097704887
1768576271389067000,3.40606689453125,-0.004709529397822917,0.013278839496336877,0.020192893201112744
1768576271399067100,3.416067138671875,-0.025938158854842186,0.014695720556937157,0.03147884184718132
1768576271409066000,3.42606591796875,0.0005547112733125686,0.0019389869722537694,0.057153381329774856
1768576271419065900,3.43606591796875,-0.040999534386396405,0.008236388349719344,0.02748305020928383
1768576271429066000,3.44606591796875,-0.03425886448714882,0.024369028108287602,0.049455812564492226
1768576271439065900,3.45606591796875,0.03299333806335926,0.018661043991334735,0.0879080005556345
1768576271449066200,3.466066162109375,0.00896477568950504,0.052522013468388466,0.00020107553005218505
1768576271459065000,3.476065185546875,0.0013280702659860253,0.023595586917223407,-0.0742132372021675
1768576271469065000,3.48606494140625,0.00892042509112507,0.006961016385350376,-0.0021364275068044662
1768576271479064800,3.49606494140625,-0.014338321954011916,0.017905357652669773,-0.001142155772447586
1768576271489065000,3.50606494140625,-0.035497977828048165,0.012542871638294309,-0.009144844964146614
1768576271499065000,3.516065185546875,-0.03013206688072532,0.017632997851539402,0.020702011767029762
1768576271509064000,3.52606396484375,-0.012488894695043563,0.018926608725497496,0.009543488892912864
1768576271519064000,3.53606396484375,0.0023836802661418915,0.01880311934314668,0.02248188092112541
1768576271529064000,3.54606396484375,0.011320471970178186,0.0005053922388702631,0.018199673557281495
1768576271539063800,3.556063720703125,-0.018699403240345417,0.0001657850209623575,-0.006438508614897727
1768576271549064200,3.566064208984375,0.012779438606835902,-0.003347173269744962,0.020997195321321487
1768576271559063000,3.57606298828125,0.0008008315214887261,-0.005640179577749222,0.02269406236708164
1768576271569063000,3.58606298828125,-0.00008468260876834392,-0.01224830000535585,0.015413257709145546
1768576271579063000,3.59606298828125,0.03066752546429634,-0.035105151718715207,0.034624738657474514
1768576271589063000,3.60606298828125,0.011558883835934102,-0.042325485760532314,0.044105099186301226
1768576271599063000,3.61606298828125,0.001581752766110003,-0.016195740723190827,0.014088146585226058
1768576271609062000,3.626061767578125,-0.002577120479010045,-0.027402267457498235,0.001129296290874481
1768576271619062000,3.63606201171875,0.017173289651609955,-0.006023105347575619,-0.022602876952290532
1768576271629062000,3.646061767578125,-0.0006985036581754684,-0.01418871174971573,-0.038114334338903426
1768576271639062300,3.656062255859375,-0.025465317178703845,-0.028531865142472086,-0.03598842822611332
1768576271649062100,3.666062255859375,0.009699556237459182,-0.008841733831726014,-0.005139116454124451
1768576271659061000,3.67606103515625,0.010867430973052978,-0.012948009239928795,0.0067155719906091685
1768576271669060900,3.686060791015625,-0.017616284178756176,-0.002690033668419346,0.0055599722146987916
1768576271679061000,3.69606103515625,-0.009791874163411558,-0.020229590215999634,0.03194236770570278
1768576271689061000,3.70606103515625,0.004697838960029185,-0.00776706293807365,0.034542905592918394
1768576271699061200,3.716061279296875,0.015199322697520255,-0.012938200231967492,0.03280512201488018
1768576271709059800,3.726059814453125,0.017444471275806426,-0.028896807731036096,0.022701661151647567
1768576271719060000,3.73606005859375,0.03514437861740589,-0.011019918121024966,0.04238426674306393
1768576271729059800,3.746059814453125,-0.0017944822013378143,-0.02622883063079789,0.0255541279733181
1768576271739060200,3.756060302734375,0.015187011205218731,-0.004884018315048888,0.03791150524318218
1768576271749060000,3.76606005859375,0.004985971719026565,0.008367567848181351,0.03202887694537639
1768576271759059000,3.776058837890625,0.01669164361450821,-0.011032412276417016,0.028254034581780434
1768576271769058800,3.786058837890625,0.04919686936736106,-0.00142602334828116,0.029879005435109136
1768576271779059000,3.796058837890625,0.03860474820435047,-0.008937312293844297,0.02359597964286804
1768576271789059000,3.80605908203125,0.010090564849041401,-0.011712329965131357,0.007137596794962882
1768576271799059200,3.81605908203125,0.008230031674169004,-0.007813185368431732,-0.0026034604966640473
1768576271809058000,3.82605810546875,0.025920002143643796,-0.017582400175463406,0.00036415713727474213
1768576271819058000,3.836057861328125,0.025967932938598094,-0.003221501063462347,0.011256138029694556
1768576271829058000,3.84605810546875,0.022301811646483836,0.01610671073286794,0.029347090515494344
1768576271839058200,3.85605810546875,0.026790391770005223,0.034430312063917515,0.02170505132973194
1768576271849058000,3.86605810546875,0.019495595119334755,0.028786570555903016,0.021984452793002127
1768576271859057000,3.876056884765625,0.028802900636196133,0.023251741915615274,0.019881343033909798
1768576271869057000,3.88605712890625,0.015106383717060088,0.006863209433527663,0.03051145811975002
1768576271879057000,3.896056884765625,0.001135141509771347,0.02298813167652115,0.013159341302514076
1768576271889057300,3.906057373046875,-0.0028162264645099637,0.022942639433825386,0.01569675082564354
1768576271899057200,3.91605712890625,-0.003937887438200414,0.03276101801167242,-0.0009276362389326095
1768576271909056000,3.926055908203125,-0.005773286171816289,0.029333546047331762,0.009671499186754227
1768576271919056000,3.936055908203125,-0.004551671954989433,0.038184193837875496,-0.002333995905518532
1768576271929056000,3.946055908203125,0.011136311042308807,0.037929963348479936,0.004372223734855652
1768576271939056000,3.95605615234375,0.025062508531473574,0.04409536324357614,0.018123685711622237
1768576271949056300,3.96605615234375,0.02954579142536968,0.05342356541799381,0.007633271357417106
1768576271959054800,3.976054931640625,0.04652213373277336,0.046142541564349084,0.0348521176725626
1768576271969055000,3.986054931640625,0.009006349808908999,0.02350021851765923,0.037242812201380725
1768576271979055000,3.99605517578125,-0.0050648821741342545,0.019448568506678567,0.02991466127038002
1768576271989055200,4.00605517578125,-0.004103964720107615,-0.000682758099772036,0.02109773308634758
1768576271999055000,4.01605517578125,-0.0007516951501369476,0.0050127318617887795,0.016169629034399984
1768576272009054000,4.026053955078125,-0.004245345952175557,0.0146933094041422,0.011225742891430855
1768576272019053800,4.0360537109375,0.013018508059717713,0.007325063924770802,0.011804419562220572
1768576272029054200,4.04605419921875,0.00944766383562237,0.022593634199909864,0.016409867531061172
1768576272039053800,4.0560537109375,0.002763619494438171,0.022724329641181974,0.02714753464460373
1768576272049054000,4.066053955078125,0.02667520442511886,0.02401236015772447,0.034921091255545614
1768576272059053000,4.076052978515625,0.030464111846685408,0.014893234156724064,0.018757307440042496
1768576272069053000,4.086052978515625,0.014661014569737016,0.008462744451500475,0.008587795603275298
1768576272079052800,4.096052734375,-0.011507445909641683,0.012693367758579552,0.015021043521165846
1768576272089053000,4.106052978515625,0.03517594279944897,0.007097365249274298,0.011266074901819228
1768576272099052800,4.116052734375,0.056271374330855904,-0.02794737065224908,0.010944587862491606
1768576272109052000,4.126052001953125,0.04044014693796635,-0.0329708248374518,0.028277415457367894
1768576272119052000,4.136052001953125,-0.03556695141103119,-0.045859432040341194,0.036034020933508874
1768576272129052000,4.146052001953125,0.023268683917261657,-0.023943103446951136,0.025406243935227394
1768576272139052000,4.156052001953125,0.062010173711180686,-0.004871222765557468,0.011352584141492842
1768576272149052000,4.166052001953125,0.0681312869399786,0.009757752698101103,-0.010630115085840225
1768576272159051000,4.176051025390625,0.023726364556886256,0.012393453230243176,0.007495908713340759
1768576272169051000,4.18605078125,-0.02337912202179432,0.031836843238305296,0.02097790609896183
1768576272179051000,4.196051025390625,-0.00894081029202789,0.02656697654398158,0.03790507550239563
1768576272189051000,4.20605078125,-0.02123505919780582,0.01577031838535331,0.02924479918479919
1768576272199051000,4.216051025390625,0.006321019715070724,0.0073863656579516825,0.03106266226172447
1768576272209049900,4.2260498046875,0.04198383271601051,-0.02462258274424821,0.05009644855558872
1768576272219050000,4.236050048828125,0.010222703328728676,-0.015037181805213913,0.028886487266421318
1768576272229049900,4.2460498046875,0.0027367314875125885,-0.036661916174041104,-0.008788871133327483
1768576272239050000,4.256050048828125,0.00942537893857807,-0.04011371886203997,0.017280220624804495
1768576272249049900,4.2660498046875,0.0497790166368708,-0.013273816261347382,0.02839431983530521
1768576272259049000,4.276049072265625,0.07025898315105587,-0.0036974845447577532,0.01886076781451702
1768576272269048800,4.286048828125,0.041168534277752036,-0.0061970006097573785,0.007381342422962189
1768576272279049000,4.296049072265625,0.009222038386203349,-0.006920373847708106,0.02373100419938564
1768576272289048800,4.306048828125,0.021229287044145166,-0.00967712520994246,0.014798340681195258
1768576272299049000,4.316049072265625,0.018963059145212173,-0.003849944293266162,0.020986089405417442
1768576272309048000,4.326048095703125,0.03193827605247497,-0.01251111566000618,0.011914894199371338
1768576272319048000,4.3360478515625,0.02418283962011337,0.00518880081474781,0.02244096438884735
1768576272329047800,4.3460478515625,0.018678396984934807,-0.0071796732378657906,0.023376199412345883
1768576272339048000,4.3560478515625,0.03378127357065677,-0.002718209450133145,0.02294599130153656
1768576272349047800,4.3660478515625,0.004552293009497225,-0.01437905582319945,0.017872341299057005
1768576272359047000,4.376046875,0.0013871069768443703,-0.021709846235858275,0.01983984197974205
1768576272369047000,4.386047119140625,-0.003048829643987119,-0.016424571909848598,0.006248539000749588
1768576272379047000,4.396046875,0.007473733414150774,-0.009644976506009697,0.00045008185505867004
1768576272389046800,4.406046875,0.002648468682169914,0.014085625834576785,0.000037409400939941404
1768576272399047000,4.416046875,0.009049604428745806,0.021802903947327285,0.0032119477838277815
1768576272409046000,4.4260458984375,0.006897321765683591,0.05787797841043211,0.016259060883522032
1768576272419046000,4.4360458984375,-0.003425919328071177,0.05420610323096625,0.0243646259278059
1768576272429046000,4.4460458984375,-0.003331190249323845,0.05732287441147491,0.03187047151327133
1768576272439046000,4.4560458984375,0.006934731166623532,0.039033412812044845,0.04641162256300449
1768576272449046000,4.4660458984375,-0.02531388947665691,0.01153186796484515,0.035660511445999146
1768576272459044900,4.476044921875,0.014461108083464205,-0.001902070761658251,0.016220482438802718
1768576272469045000,4.486044921875,0.033441081830859185,-0.01985514001357369,0.0008206687331199646
1768576272479044900,4.496044921875,0.0013684022763743996,-0.031098190232831984,0.0018856676161289215
1768576272489045000,4.506044921875,0.00388473247885704,-0.028062804592307655,0.0014531214177608488
1768576272499044900,4.516044921875,0.035292883710004386,-0.024642502154270187,0.01508709449470043
1768576272509044000,4.5260439453125,0.005713080417178571,-0.02475747943660244,0.007628595182299613
1768576272519043800,4.5360439453125,-0.0012731252083554862,-0.008599184646969661,0.02156827320754528
1768576272529044000,4.5460439453125,0.02211301107611507,-0.006843874545395374,0.0141167881578207
1768576272539043800,4.5560439453125,0.0017640505304560065,0.003291132233571261,-0.0008183306455612182
1768576272549044000,4.5660439453125,-0.01601768987569958,0.021156221807934344,-0.005278232663869857
1768576272559042800,4.576042724609375,0.0014081132322549819,0.0183178565768525,0.008362170153856277
1768576272569043000,4.58604296875,-0.0014893617749214172,0.026258906108653172,0.018108488142490387
1768576272579042800,4.596042724609375,-0.01013794765472412,0.025579783004382625,0.013331775259971618
1768576272589043000,4.60604296875,-0.008924516744352877,0.01698521060044877,0.013794132074713706
1768576272599042800,4.616042724609375,0.007329283442161977,-0.00067468439117074,0.029812954461574552
1768576272609042000,4.6260419921875,0.027552023792266844,-0.0009983085886575282,0.022792846566438672
1768576272619041800,4.636041748046875,0.010811316871643066,-0.003924507366819307,0.01352992818057537
1768576272629042000,4.6460419921875,0.0031476869085803627,-0.006848989111930132,0.00651683454811573
1768576272639041800,4.656041748046875,0.0012561740735545753,0.000999002708401531,0.002792261067032814
1768576272649042000,4.6660419921875,0.009767397309280931,0.010867266576271503,0.010735913547873496
1768576272659041000,4.676041015625,0.014542320093512534,0.017496265395125374,0.011054477977752684
1768576272669041000,4.686041015625,0.024555728053115306,0.03651488151932135,-0.0013373860836029053
1768576272679041000,4.696041015625,0.0161251688381657,0.03257715847790241,0.009762684601545333
1768576272689041000,4.706041015625,-0.010827720017172396,0.025032551784627138,0.034169980627298355
1768576272699040800,4.716040771484375,-0.007165617313049733,-0.010401055570319295,0.05694412249326706
1768576272709039900,4.726039794921875,-0.026662929465435442,-0.011301164481509477,0.055496261772513385
1768576272719040000,4.7360400390625,-0.05876779425647109,-0.025815171795990317,0.039679099437594414
1768576272729040000,4.746039794921875,-0.031916100753284986,-0.02032192640826106,0.03148527158796787
1768576272739040000,4.7560400390625,-0.013262217155098914,-0.013016845825593917,0.018050035953521726
1768576272749039900,4.766039794921875,-0.02308627655506134,-0.0028190394761040804,-0.0000263034850358963
1768576272759039000,4.7760390625,-0.01773033901248127,-0.00113884043735452,0.011511574095487594
1768576272769038800,4.786038818359375,-0.04645484065022319,0.008740346683328971,0.01914133832156658
1768576272779039000,4.7960390625,-0.04440963509082794,-0.01432581866546534,0.004167056551575661
1768576272789038800,4.806038818359375,-0.03235328659415245,-0.027186624545976517,0.01298047760426998
1768576272799039000,4.8160390625,-0.025857494834065436,-0.035560494270781055,0.020309213057160377
1768576272809037800,4.826037841796875,0.05290971587803214,-0.011625994255393743,0.02063186914026737
1768576272819038000,4.836037841796875,0.04090312480721622,-0.011430389484902843,0.022761866906285285
1768576272829037800,4.846037841796875,-0.007870550712011754,0.00803250894122757,0.001835398733615875
1768576272839038000,4.856037841796875,-0.0426554848998785,0.00702656503538601,-0.006387070688605308
1768576272849037800,4.866037841796875,-0.0583148628572002,0.025475820306409148,0.007532733592391014
1768576272859037000,4.876036865234375,-0.06069905457999557,0.03216790182357654,0.01052314758002758
1768576272869036800,4.886036865234375,-0.02116436858177185,0.0234237192153465,0.0061859951585531234
1768576272879037000,4.896036865234375,-0.03400456093251705,0.0008347977231722325,0.000654079994559288
1768576272889036800,4.906036865234375,-0.01771514144334942,-0.011136064447136594,0.006646013885736465
1768576272899037000,4.916036865234375,-0.0012870806684717536,-0.019254196712048723,0.01787643295228481
1768576272909036000,4.9260361328125,0.006878105608560145,-0.03508232796555385,0.023273323559761045
1768576272919036000,4.936035888671875,0.012624540306068957,-0.027939890598691997,0.02178922248184681
1768576272929035800,4.946035888671875,0.01910400198586285,-0.0070086092535872006,0.03258534178435802
1768576272939036000,4.956035888671875,0.016570026528835297,-0.005561707514058798,0.04384031077027321
1768576272949035800,4.966035888671875,-0.007617452733777463,-0.0010520389367360621,0.026077275064587593
1768576272959035000,4.976034912109375,-0.013566716527007519,-0.006535283520258963,-0.00410392818748951
1768576272969035000,4.986034912109375,-0.012774725899100304,-0.008801255690865218,0.002366144609451294
1768576272979035000,4.996034912109375,0.006291793620586395,-0.011941316415416075,0.0074853873193264
1768576272989035000,5.006034912109375,0.01940145056247711,-0.004186893763206899,0.007224690556526183
1768576272999035000,5.016034912109375,-0.0060381111204624175,-0.005596459167031571,-0.006813771668076515
1768576273009034000,5.026033935546875,-0.013721066838502884,0.009414811878791078,-0.006646013885736465
1768576273019033900,5.036033935546875,-0.02907817391362041,0.024215892506344244,-0.0005091185659170151
1768576273029034000,5.046033935546875,-0.022507563351653517,0.014350240720668806,0.035110476347804065
1768576273039033300,5.056033447265625,-0.02291563269589096,0.011642497865622863,0.052335167393088335
1768576273049032400,5.066032470703125,-0.015014065791107714,-0.0002607241622637957,0.056557753524184226
1768576273059032300,5.0760322265625,-0.007272036829590797,0.021999074973398817,0.017976386195421218
1768576273069032400,5.086032470703125,0.00409866749048233,0.03245087435026653,-0.0077437459945678706
1768576273079032300,5.0960322265625,-0.014492051210999488,0.04129136607297696,-0.0051841246396303175
1768576273089032400,5.106032470703125,0.003411306280829012,0.03733079187893309,-0.00009469254612922667
1768576273099031600,5.116031494140625,0.01041088284458965,0.018261048355698584,-0.0014478607207536697
1768576273109031400,5.126031494140625,-0.018031952307559548,0.024541233736881985,0.01096270804107189
1768576273119031600,5.136031494140625,-0.007878770551085471,0.01476911458671093,0.00511865818798542
1768576273129031400,5.146031494140625,0.008454488079808652,-0.004074044505879283,0.021270751565694808
1768576273139031300,5.15603125,0.01318677729871124,-0.0016546718718484044,0.01647007328569889
1768576273149031400,5.166031494140625,0.02514671621620655,-0.012903896103566511,0.029776714104413984
1768576273159030500,5.176030517578125,0.0246387301614508,-0.00783312304476276,0.03127835083901882
1768576273169030400,5.186030517578125,-0.0027525135785341263,-0.012099995842156932,0.0372831442117691
1768576273179030500,5.196030517578125,-0.0007610109677538275,-0.0022212471128907054,0.025631869384646414
1768576273189030400,5.206030517578125,-0.027617490243911743,0.0006601078765466809,0.017422843965888023
1768576273199029500,5.216029541015625,-0.009980711266398429,0.007278777097631245,0.005164250895380974
1768576273209029400,5.226029296875,-0.007303016489744186,0.016813068903936072,-0.009349427625536918
1768576273219029500,5.236029541015625,-0.0027226664295420047,0.016022210787190124,-0.012208324187994002
1768576273229029400,5.246029296875,0.018905739467404783,0.028764532254030927,-0.0010065466940402984
1768576273239029500,5.256029541015625,0.005513173930905759,0.023335858268802984,0.007352700850367546
1768576273249028400,5.2660283203125,-0.01195522620975971,0.004336613565357402,0.013321253865957259
1768576273259028500,5.276028564453125,0.002957717294432223,0.009322019028803334,0.014801263290643692
1768576273269028400,5.2860283203125,-0.015475765018723903,0.002675329289631918,0.01614975529015064
1768576273279028500,5.296028564453125,0.005870389870740473,-0.0029763763291295615,0.02377601238489151
1768576273289028400,5.3060283203125,0.021346154889464376,-0.0003394154216628521,0.02916004351079464
1768576273299027500,5.31602734375,0.0050303588500246405,0.0072753612978383895,0.027360300612449644
1768576273309027300,5.32602734375,-0.00311904533598572,0.008732702232990414,-0.005417348873615265
1768576273319027500,5.33602734375,-0.02215809232685715,0.003096267248596996,-0.0135024556517601
1768576273329027300,5.34602734375,-0.021671149060130117,-0.009032278834609313,-0.002877601262927055
1768576273339027500,5.35602734375,-0.009209142372012138,0.00018510164278559386,0.003090367230772972
1768576273349026600,5.366026611328125,0.012561923398636281,0.008436267436528578,0.01953355250954628
1768576273359026400,5.3760263671875,0.01047170965373516,0.025445479967072606,0.026684008786082267
1768576273369026300,5.3860263671875,-0.006164952370524406,0.02985756078828126,0.056304071024060244
1768576273379026400,5.3960263671875,-0.008165770798921584,0.004875076956767589,0.049724108111858366
1768576273389026300,5.4060263671875,-0.028516484910249707,-0.01361657441756688,0.02608253576159477
1768576273399025400,5.416025390625,0.0020096227893605825,-0.0072588485544547434,0.027588264149427413
1768576273409025500,5.426025634765625,0.023555684165097773,-0.035143364837253464,0.0006686930418014526
1768576273419025400,5.436025390625,0.027804573781229552,-0.03117062528138049,-0.008596563431620597
1768576273429025500,5.446025634765625,0.005146751771308481,-0.02076259198100306,-0.013085691544413566
1768576273439025400,5.456025390625,0.0010708441019058226,-0.01183680572817102,-0.004111526972055435
1768576273449024500,5.4660244140625,0.012227649942971765,-0.0037519181457348165,0.0017073884397745133
1768576273459024400,5.4760244140625,-0.0076256725728511806,-0.011433412559051066,0.024579729983210563
1768576273469024500,5.4860244140625,-0.03882686652243137,-0.010376158591080457,0.0431131655395031
1768576273479024400,5.4960244140625,-0.005610204564593732,-0.009525240850169212,0.04849135144650936
1768576273489024500,5.5060244140625,0.07085691251158714,0.0024305790146347136,0.04342354666292667
1768576273499023400,5.5160234375,0.026382358958385883,0.007309638026775792,0.006336801806092262
1768576273509023500,5.5260234375,-0.020440730482339856,0.015549113382725044,0.01652326477766037
1768576273519023400,5.5360234375,-0.012131715287826954,0.019285861358791588,0.021330957320332525
1768576273529023500,5.5460234375,-0.0405985158374533,0.022282230163179338,0.02166238123178482
1768576273539023400,5.5560234375,-0.02249295030441135,0.019439663681015372,0.001340308693051338
1768576273549022500,5.5660224609375,-0.0233060933182016,0.0074549921810626975,-0.0017816227197647093
1768576273559022300,5.576022216796875,-0.0023491569420322775,0.01234025260512717,-0.011646014130115508
1768576273569022500,5.5860224609375,0.016932430100440977,0.01143202431956306,0.011999649873375892
1768576273579022300,5.596022216796875,-0.0008738236924633383,0.022255844479752703,0.017992168286442754
1768576273589022500,5.6060224609375,0.03091949093136936,-0.0005033098796382547,0.04180032937526702
1768576273599021300,5.616021240234375,0.022442717954516408,-0.010989778711088001,0.0186263745367527
1768576273609021400,5.626021484375,0.007172083586454391,-0.005367755844537169,0.014902970099449157
1768576273619021300,5.636021240234375,0.03195993989501148,0.0059478481542784714,0.017463175976276397
1768576273629021400,5.646021484375,0.038276831424236296,0.011032247879635542,0.025863340052962303
1768576273639021300,5.656021240234375,0.046603966797329484,0.0051448977409396315,0.03681085052490234
1768576273649020400,5.6660205078125,0.023281543398834762,0.01473638136088848,0.05540098470449447
1768576273659020500,5.6760205078125,-0.01666935871746391,0.00624953451459296,0.008746201035380362
1768576273669020400,5.6860205078125,-0.00951652782075107,-0.0012031561115290969,-0.001270166066288948
1768576273679020300,5.696020263671875,-0.0017378201106563209,-0.016876964453002435,0.0032236382216215133
1768576273689020400,5.7060205078125,-0.013148783375881611,-0.02100204502637498,-0.013097966504096984
1768576273699019500,5.71601953125,0.0024777882903814314,-0.0171512970155105,-0.004749824875593185
1768576273709019400,5.726019287109375,0.007944821524620055,-0.008530430259695276,0.00523848517537117
1768576273719019500,5.73601953125,0.0066570832690224045,-0.0029307744885794817,0.01359481011033058
1768576273729019400,5.746019287109375,0.01599427246749401,0.010173795286240055,0.03378302713632583
1768576273739019500,5.75601953125,0.0026642142405733467,0.006769357137614861,0.024493220743536947
1768576273749018400,5.766018310546875,-0.0010965630650520324,0.01522024675454013,0.03211187905371189
1768576273759018500,5.7760185546875,0.0015349544823169707,0.00030872802245430646,0.014297405421733855
1768576273769018400,5.786018310546875,0.011423895812034606,0.004337691277591512,0.017590017226338385
1768576273779018500,5.7960185546875,0.013661482138372956,0.0007785466244444251,0.0220814834266901
1768576273789018400,5.806018310546875,-0.00252159089948982,0.00937782260295935,-0.0070960957407951355
1768576273799017500,5.816017578125,0.03075578826963901,0.019900577457342295,0.0035229134291410442
1768576273809017300,5.826017333984375,0.05152852718532085,-0.007274292718758806,0.01338438223004341
1768576273819017500,5.836017578125,0.03255962282121181,-0.007719451803527772,0.01247545069158077
1768576273829017300,5.846017333984375,0.03204060391578823,-0.024033010220108553,0.005289923101663589
1768576273839017500,5.856017578125,-0.00837561415731907,-0.0366846485956572,0.007221183425188064
1768576273849016300,5.866016357421875,-0.001477086815237999,-0.04054459369312972,0.011688684228062629
1768576273859016400,5.876016357421875,0.03712707686722278,-0.025978673528321086,0.0016425065100193024
1768576273869016300,5.886016357421875,0.033357495200634,-0.01543007184662856,0.017925532791018484
1768576273879016400,5.896016357421875,0.009272270736098289,0.008813128791749477,0.0175806648761034
1768576273889016300,5.906016357421875,0.026343232524394987,0.00726874889396131,0.009315525355935095
1768576273899015400,5.916015380859375,0.02783843951821327,0.016284642849350345,0.015272387933731079
1768576273909015300,5.926015380859375,0.038420075819827613,0.0062063803594559425,0.026627894684672353
1768576273919015400,5.936015380859375,0.03834580500721931,0.020629731982108206,0.026473580905795095
1768576273929015300,5.946015380859375,0.028758476972579956,-0.0015823098885361104,-0.00376665905714035
1768576273939015400,5.956015380859375,0.04410272456612438,-0.006504029865469783,-0.000803133076429367
1768576273949014500,5.9660146484375,0.06494096646606921,0.005123206498939543,0.019066519519686697
1768576273959014400,5.976014404296875,0.05997603753507137,-0.0004836644642520696,0.02173778455555439
1768576273969014500,5.9860146484375,0.05767302128970623,0.002853343604505062,0.032794016098976135
1768576273979014400,5.996014404296875,0.053476738643646236,-0.0018713833624497056,0.018558569997549054
1768576273989014300,6.00601416015625,0.038503589384816586,0.010440994855063036,0.0013198504269123076
1768576273999013400,6.016013427734375,0.06695117377731949,0.02746656486536376,-0.003654430854320526
1768576274009013500,6.026013427734375,0.07383914319276809,0.011116291167587042,-0.009075871381163596
1768576274019013400,6.036013427734375,0.09136135587990284,0.018076010644994676,-0.014048983618617056
1768576274029013500,6.046013427734375,0.07780340718124061,-0.004683920032531022,0.008352817803621291
1768576274039013400,6.056013427734375,0.0906874386737123,-0.019536210257513446,0.002766542103886604
1768576274049012500,6.066012451171875,0.09255498611126095,-0.00007343969554640353,-0.022580665120482443
1768576274059012400,6.076012451171875,0.09754442842900753,0.0021657631991431115,-0.01966506993472576
1768576274069012500,6.086012451171875,0.1391682687262073,-0.004858116688812151,-0.014511340433359145
1768576274079012400,6.096012451171875,0.1446060758659616,0.011880334342643618,-0.003230652484297752
1768576274089012500,6.106012451171875,0.17032321238126605,-0.004652310184715316,-0.013801730859279632
1768576274099011300,6.11601123046875,0.1843470980912447,-0.025947218944132325,-0.03994038072228431
1768576274109011500,6.126011474609375,0.21719952984657137,-0.008946737709315493,-0.07252396894097328
1768576274119011300,6.13601123046875,0.21377488916013387,0.0005736351694911718,-0.06188157889544964
1768576274129011500,6.146011474609375,0.1864034826317802,-0.0025639504701830446,-0.07416939806044101
1768576274139011300,6.15601123046875,0.18178280056118964,0.00634890323583968,-0.08769932624101638
1768576274149010400,6.166010498046875,0.1936445398012176,0.003457684439513832,-0.09542845918834209
1768576274159010300,6.17601025390625,0.19441373407542703,0.0060942069555632765,-0.08776479269266128
1768576274169010400,6.186010498046875,0.19778408729135988,0.02277922903303988,-0.0739700760960579
1768576274179010300,6.19601025390625,0.18984690108392385,0.05079566459981724,-0.05000467861890793
1768576274189010400,6.206010498046875,0.1727045910924673,0.034882494544517244,-0.06796002202630043
1768576274199009500,6.216009521484375,0.141242736912705,0.04739772012406029,-0.05585165108144283
1768576274209009400,6.226009521484375,0.0710591570854187,0.03947467203983106,-0.03418810080587864
1768576274219009300,6.23600927734375,0.014437708941567689,0.03229512666612863,-0.011800912430882453
1768576274229009400,6.246009521484375,0.038255222380626945,0.016289693483803422,-0.029067689052224156
1768576274239009300,6.25600927734375,0.10619186353133991,0.04169157177116722,-0.0557528668820858
1768576274249008400,6.26600830078125,0.1481874049514532,0.1302644659763202,0.006912555867433548
1768576274259008500,6.276008544921875,0.20029581438396124,0.09468432629015296,0.00512041175365448
1768576274269008400,6.28600830078125,0.15347676179753617,0.19296222009286285,-0.009867898541688918
1768576274279008500,6.296008544921875,0.21495034441398456,0.1488248169390019,-0.06166998197138309
1768576274289008400,6.30600830078125,0.2884802389944903,0.11700900735557078,-0.16854571784734726
1768576274299007500,6.316007568359375,0.34339082809984683,0.24616543902475385,0.11254150655269622
1768576274309007400,6.32600732421875,0.6484107167512178,-0.005396972805866971,0.04603343690037727
1768576274319007500,6.336007568359375,0.3655956456452608,-0.145827872745879,0.0788975956261158
1768576274329007400,6.34600732421875,0.10875437096310779,-0.06012958412896841,0.20818097814321518
1768576274339007500,6.356007568359375,-0.006347925988305359,-0.13710180118307472,-0.10906184774339199
1768576274349006300,6.36600634765625,-0.035849330282676964,-0.0028714181173127144,-0.10395195738375186
1768576274359006500,6.37600634765625,0.027881703271204605,0.054878906192304566,-0.002323474511504173
1768576274369006300,6.38600634765625,0.091634336735541,0.03095305527425371,-0.03747019121646881
1768576274379006500,6.39600634765625,0.1391869460272137,0.05764145710766315,-0.10599135425686836
1768576274389006300,6.40600634765625,0.060441901481151576,0.05829270582431927,-0.06751169373691082
1768576274399005400,6.41600537109375,0.09308686449825763,0.023093546546064315,0.03921908071041107
1768576274409005300,6.42600537109375,0.15852586188064888,0.04049975903755985,0.07937515000998974
1768576274419005400,6.43600537109375,0.19301146606206893,0.06323511239625514,-0.01722995174229145
1768576274429005300,6.44600537109375,0.3112286801636219,0.0557336324586533,-0.04963175365328788
1768576274439005400,6.45600537109375,0.2970060935437679,0.04295101551404223,-0.05643441940546035
1768576274449004300,6.46600439453125,0.2657020237416029,0.0344349517064169,-0.030900749698281285
1768576274459004400,6.47600439453125,0.20852935318946836,0.02317098656329326,0.03010930705964565
1768576274469004300,6.48600439453125,0.17354396452605722,-0.00789510063137859,-0.00044423663616180415
1768576274479004400,6.49600439453125,0.14866495933532714,-0.044305736324936146,-0.004047814086079597
1768576274489004300,6.50600439453125,0.21287468891739844,-0.02332604926084168,-0.009276946911215781
1768576274499003400,6.51600341796875,0.3169301066756248,-0.008915958978561685,-0.042165071034431456
1768576274509003500,6.52600341796875,0.462211853313446,-0.01324642593092285,0.030306875458359715
1768576274519003400,6.53600341796875,0.4289642482280731,-0.023766513904184102,-0.05789689317345619
1768576274529003300,6.546003173828125,0.41010523397922516,-0.0015913334452081472,-0.14081716844439507
1768576274539003400,6.55600341796875,0.4879027594089508,-0.01993835218446329,-0.17176409537196158
1768576274549002500,6.56600244140625,0.43456396793127056,-0.018276985710347072,-0.23093407722115517
1768576274559002400,6.57600244140625,0.5071300224483013,-0.04122511417004279,-0.2459206339508295
1768576274569002500,6.58600244140625,0.4987853879511356,-0.03582009505503811,-0.1858931584894657
1768576274579002400,6.59600244140625,0.3721475515067577,-0.04358147717099636,-0.18087211545705795
1768576274589002500,6.60600244140625,0.2677718157529831,-0.029918424130044877,-0.14000117588639258
1768576274599001300,6.61600146484375,0.27133626676891,-0.02749205549964681,-0.07001695455610751
1768576274609001500,6.62600146484375,0.2595581141591072,-0.027272731926850972,-0.09331190542578696
1768576274619001300,6.63600146484375,0.3025882775902748,-0.02425190453464165,-0.1634896035015583
1768576274629001500,6.64600146484375,0.38631639864537864,-0.004237865898618474,-0.18357669824063777
1768576274639001300,6.65600146484375,0.49353871946930883,-0.00972117441422306,-0.1685351964533329
1768576274649000400,6.66600048828125,0.5188765743434429,-0.020211944961454717,-0.1840811406314373
1768576274659000300,6.676000244140625,0.4878630484530702,0.010388652746472507,-0.16546937914192675
1768576274669000400,6.68600048828125,0.30438626692295073,0.019844061497133223,-0.1799941635787487
1768576274679000300,6.696000244140625,0.20855507215261457,0.019685601266101003,-0.14324877950549125
1768576274689000400,6.70600048828125,0.15376666638851164,0.021884389952011404,-0.13952479054629802
1768576274698999300,6.715999267578125,0.15007709115557372,0.009841047067381441,-0.1772580166131258
1768576274708999400,6.72599951171875,0.11912673016190528,-0.014981825755629688,-0.13697452154159545
1768576274718999300,6.735999267578125,0.18073997697737068,-0.06312631825953721,-0.21508242809474468
1768576274728999400,6.74599951171875,0.1965805201878771,-0.07668349977321923,-0.34303134713768957
1768576274738999300,6.755999267578125,0.2257132007677108,-0.03695310853980482,-0.35724925758242604
1768576274748998400,6.765998291015625,0.3081820790093392,-0.014130908014718443,-0.35294483838677404
1768576274758998300,6.775998291015625,0.26503734928779304,0.004801116671413183,-0.3445142791718244
1768576274768998400,6.785998291015625,0.2350141130764037,0.004407167184073478,-0.45671150233149527
1768576274778998300,6.795998291015625,0.346333968879655,0.018269615254644305,-0.43925650966167445
1768576274788998400,6.805998291015625,0.3154490012723952,0.0863013325439766,-0.217498841586709
1768576274798997500,6.81599755859375,0.21550971359610557,0.06090511681241914,-0.029867314997315406
1768576274808997400,6.825997314453125,0.13352343123964966,-0.0004152297373861074,0.021806758138537406
1768576274818997500,6.83599755859375,0.18138649471998214,-0.01901111780432984,0.12960311599075794
1768576274828997400,6.845997314453125,0.13896540309786795,-0.10383914465904236,0.05605214208960533
1768576274838997200,6.855997314453125,0.11395254239439964,-0.1648376023107208,-0.09344225380718707
1768576274848996400,6.865996337890625,0.08530629362463951,-0.18244672609632834,-0.26816461446285245
1768576274858996500,6.87599658203125,-0.13156075286455451,-0.2174042951710522,-0.38620705651938914
1768576274868996400,6.885996337890625,-0.3221557323694229,-0.07653232779949903,-0.19214812723100183
1768576274878996500,6.89599658203125,-0.12815649737901985,-0.0021697452545166016,-0.16685469602048397
1768576274888996400,6.905996337890625,0.14628003696016967,0.026966953913308677,-0.08812252008914948
1768576274898995500,6.915995361328125,0.2996224865872413,0.03386811160389334,-0.004852700728178024
1768576274908995300,6.925995361328125,0.07754260082058607,0.061756016287021334,-0.09295593159496783
1768576274918995500,6.935995361328125,-0.10805588557124138,0.04792100421264767,-0.2115390563994646
1768576274928995300,6.945995361328125,-0.024564970805495977,0.08153367975074798,-0.2967962501853704
1768576274938995500,6.955995361328125,0.03193586489968002,0.17147033658977598,-0.4465227012723684
1768576274948994300,6.965994384765625,-0.010725976675748825,0.10019454107899219,-0.503695371824503
1768576274958994400,6.975994384765625,0.05496960754990577,0.09294124548248946,-0.39469431435763835
1768576274968994300,6.985994384765625,-0.017554434456303714,0.12750369602609424,-0.3179202867567539
1768576274978994400,6.995994384765625,0.022350874952599405,0.06542093200273812,-0.3011690584421158
1768576274988994300,7.005994384765625,0.05041983529105782,0.027692783969826995,-0.21849545140862464
1768576274998993400,7.015993408203125,-0.0008324322361499071,-0.006233779823035001,-0.34699557459354397
1768576275008993300,7.0259931640625,0.14573635853752492,-0.051163748993538316,-0.3979799118995666
1768576275018993400,7.035993408203125,0.2272293774843216,-0.18202672885227947,-0.4277028499901294
1768576275028993300,7.0459931640625,0.453883731559664,-0.38776199434380976,-0.786954095044732
1768576275038993400,7.055993408203125,0.5249171696819365,-0.6197677559170872,-0.8302192362755536
1768576275048992300,7.0659921875,0.18973697443604468,-0.4441848329093307,-0.4918664023429155
1768576275058992000,7.0759921875,-0.05584054516553878,-0.2664920781407505,-0.09838789351582526
1768576275068992300,7.0859921875,-0.093502532627061,-0.09991371484361589,0.16323182934820651
1768576275078992100,7.0959921875,-0.05137143692746758,0.11043525498844682,0.24571663581132888
1768576275088992000,7.105991943359375,-0.15509820725321768,0.2984245089743286,0.2585001295387745
1768576275098991000,7.1159912109375,0.059196869856119154,0.327827056004107,0.3011754881829023
1768576275108991200,7.1259912109375,0.17142141941413283,0.24381989881191402,0.19903964031040666
1768576275118991000,7.1359912109375,0.050478141349554057,0.17055398892983792,-0.055927638927102084
1768576275128991200,7.1459912109375,-0.0190098208963871,0.10535802478939295,-0.2536614573359489
1768576275138991000,7.1559912109375,-0.1978232502579689,0.030622663409262892,-0.36197044088542457
1768576275148990200,7.165990234375,-0.3625882805228233,0.010439414819329976,-0.47539457549154757
1768576275158990000,7.175989990234375,-0.3064741791129112,-0.052564665300026535,-0.33109424110651015
1768576275168990200,7.185990234375,-0.40410577436871825,-0.12529109801054,-0.04014788599312305
1768576275178990000,7.195989990234375,-0.43246436530351634,0.04884272216744721,0.23130349505543707
1768576275188990200,7.205990234375,-0.2168365782856941,0.21689875680170953,0.07410334708690643
1768576275198989000,7.215989013671875,-0.1964507928609848,0.30444457298144695,-0.29640871217250825
1768576275208989200,7.2259892578125,-0.13816680006608367,0.3514762271389365,-0.4979202955543995
1768576275218989000,7.235989013671875,-0.024299817063286898,0.355257133917138,-0.1432329974144697
1768576275228989200,7.2459892578125,-0.10687851235494017,0.2339723489385098,0.12195113993287086
1768576275238989000,7.255989013671875,-0.2447709524590522,0.15906608797088265,0.46160453507006166
1768576275248988200,7.26598828125,-0.3310042247354984,-0.012182751355320215,0.41848260170221324
1768576275258988000,7.275988037109375,-0.49230757023915644,0.06635434039533138,0.2412409517019987
1768576275268988200,7.28598828125,-0.46501726612299676,0.14231464046053588,0.12636603376567362
1768576275278988000,7.295988037109375,-0.33790129077285525,0.13975538443177937,-0.04079553624689579
1768576275288988200,7.30598828125,-0.2277451449867338,-0.07659699053354561,-0.5383990209370851
1768576275298987300,7.3159873046875,-0.319361717736721,0.21524704407192766,-0.14177227721214294
1768576275308987100,7.325987060546875,0.085389295732975,0.5771069372549653,0.7271709497332572
1768576275318987000,7.335987060546875,0.34265367293171584,0.18186470669098198,0.17677169440090656
1768576275328987100,7.345987060546875,0.17657003434896468,0.15234942000173032,0.07526303851604461
1768576275338986200,7.355986328125,0.09284655293636024,0.06901077318824828,-0.04997837513387203
1768576275348986000,7.365986083984375,0.05979658931493759,0.03504420617856085,-0.10281213969886302
1768576275358986200,7.375986328125,0.08332359537482262,-0.009906623116880654,-0.16595862396359443
1768576275368986000,7.385986083984375,-0.24681670600771902,-0.11057101019732654,-0.27806115457713604
1768576275378986200,7.395986328125,-0.42988552779145534,-0.058060851563513274,-0.2964472906172275
1768576275388985000,7.405985107421875,-0.3687785134650767,-0.16695136132799088,-0.42731122032403945
1768576275398985200,7.415985107421875,-0.3181857327599078,-0.06796886291988194,-0.5273562333971261
1768576275408985000,7.425985107421875,-0.25221206224523485,0.053560033012926576,-0.5756418331384658
1768576275418985200,7.435985107421875,-0.050852235358953474,-0.010148834374919534,-0.6329004284083843
1768576275428985000,7.445985107421875,0.16830613693781196,-0.006636807665973902,-0.5445394233882427
1768576275438985200,7.455985107421875,0.01641688179373741,0.16515023019015787,-0.23665187034606933
1768576275448984000,7.465984130859375,0.04257540540099144,0.17068163389749824,-0.1643739851206541
1768576275458984200,7.475984130859375,-0.0371744231402874,0.08225041318535804,-0.23007190743386743
1768576275468984000,7.485984130859375,0.06643325085043907,-0.06916910555511713,-0.33294600645303724
1768576275478984200,7.495984130859375,-0.06662965020537376,-0.13518157371021805,-0.5760036521881818
1768576275488983000,7.505983154296875,-0.21948913862109182,-0.0594463145725429,-0.6267261236876249
1768576275498983200,7.515983154296875,-0.04582417806386947,0.02448452598042786,-0.6603846476614474
1768576275508983000,7.525983154296875,0.1527787878623232,0.1423882902186364,-0.6068769293576478
1768576275518983200,7.535983154296875,0.25098902325630185,0.10646116372570395,-0.5299637855470181
1768576275528983000,7.545983154296875,0.08919690785501151,0.10961451319009065,-0.39268180549144743
1768576275538982100,7.555982177734375,-0.05957450752947479,0.10191972090378403,-0.34334932704567905
1768576275548982000,7.56598193359375,-0.2666156679878011,0.017030702843144535,-0.18847849880754947
1768576275558982100,7.575982177734375,-0.07895608434770256,0.11337079698368906,-0.020463526836037634
1768576275568982000,7.58598193359375,-0.20696992185302077,0.07162066342569887,-0.09806114577949046
1768576275578982100,7.595982177734375,-0.25181087929951024,0.03865837808772921,-0.24209610722661018
1768576275588981200,7.605981201171875,-0.2008300673911348,0.08713584713935851,-0.15557868424654006
1768576275598981000,7.615981201171875,-0.13131054096315056,0.0968988970670849,-0.03746960669457912
1768576275608981200,7.625981201171875,-0.00688685517059639,0.04266045333594084,-0.042832595032453534
1768576275618981000,7.635981201171875,0.0316670578956604,0.10859561847113072,0.1426414612621069
1768576275628981000,7.64598095703125,0.07419804876619018,0.002660012989491224,0.49680795039832587
1768576275638980000,7.65597998046875,0.08916530714035034,-0.12430047953799367,0.6345061100393533
1768576275648980200,7.665980224609375,-0.04824409868717194,-0.14688202144131063,0.6836369284331798
1768576275658980000,7.67597998046875,-0.0611310482225148,-0.15568455577380955,0.5588865131705999
1768576275668980200,7.685980224609375,-0.052243388323253016,-0.07177293137796223,0.42780280323326586
1768576275678980000,7.69597998046875,-0.04721065485305152,-0.04845211541466415,0.43659810410737987
1768576275688979200,7.705979248046875,0.12032090838253498,-0.03457717318870127,0.3403162429600954
1768576275698979000,7.71597900390625,0.21727084151711315,-0.04289323917850852,0.14222469715476035
1768576275708979200,7.725979248046875,0.30866383464429525,-0.1572828578159213,-0.04444821353554725
1768576275718979000,7.73597900390625,0.2126719328869134,-0.06912891967520117,0.04005962318778038
1768576275728979200,7.745979248046875,0.09611008477695286,-0.1709163925014436,0.15875439167320726
1768576275738978000,7.75597802734375,0.05192256800420582,-0.2191080303490162,0.1960404584944248
1768576275748978200,7.765978271484375,0.1091355340341106,-0.19477467634230852,0.2917927428096533
1768576275758978000,7.77597802734375,0.11671966902017593,-0.2578548904377967,0.36547523413598537
1768576275768978200,7.785978271484375,0.1620616895902902,-0.3094309830918908,0.33257951122820373
1768576275778978000,7.79597802734375,0.20067462110109627,-0.2927286354202777,0.2741068639934063
1768576275788977200,7.80597705078125,0.20897534339129922,-0.2737369347024709,0.3578495615631342
1768576275798977000,7.81597705078125,0.2530265934985131,-0.2964010403227061,0.2608259421378374
1768576275808977200,7.82597705078125,0.19871296563930807,-0.1975277744427323,0.22994974235892293
1768576275818977000,7.83597705078125,0.21488369065225124,-0.2273645481713116,0.2738900063723326
1768576275828977200,7.84597705078125,0.23954006606824696,-0.3155393099043518,0.3565250349611044
1768576275838976300,7.855976318359375,0.27680501703619953,-0.3348473830949515,0.39202772549688814
1768576275848976100,7.86597607421875,0.333269977710396,-0.34856143567077813,0.368467401689291
1768576275858976000,7.87597607421875,0.24538886516168712,-0.3283004456695169,0.3824006499737501
1768576275868976000,7.88597607421875,0.017532295689731834,-0.22141206950768827,0.4280056323289871
1768576275878976000,7.89597607421875,-0.08749576649293303,-0.12548384410366414,0.3959206412822008
1768576275888975000,7.90597509765625,-0.06963306980505585,-0.06892075681723654,0.38853345364034175
1768576275898975200,7.915975341796875,-0.09451894312798977,-0.010870134386792778,0.33755145442187784
1768576275908975000,7.92597509765625,-0.10316533705070614,0.06188508602678775,0.2569686821877956
1768576275918975200,7.935975341796875,-0.1530675782084465,0.14087905469946563,0.23669512496590614
1768576275928975000,7.94597509765625,-0.19764614012539386,0.16076931169219313,0.2458592591524124
1768576275938974200,7.95597412109375,-0.22433073343336582,0.19588694843314586,0.1513859087318182
1768576275948974000,7.96597412109375,-0.22352979231402276,0.1662635982595384,0.15174363612830638
1768576275958974200,7.97597412109375,-0.1972344905845821,0.10148162174746393,0.2503162385612726
1768576275968974000,7.98597412109375,-0.17593582809865474,0.07275558573976158,0.27069559424519535
1768576275978974200,7.99597412109375,-0.18193536077439784,0.03834346691966056,0.29419337421059605
1768576275988973000,8.00597314453125,-0.20948826134949922,0.03253335586879402,0.355652928301692
1768576275998973200,8.01597314453125,-0.1690299942329526,0.02234725822340697,0.4724725505650043
1768576276008973000,8.02597314453125,-0.12649696666896343,-0.019338760589808223,0.6266115573972463
1768576276018973200,8.03597314453125,-0.10790917057693004,-0.020642573197372255,0.7025707614839076
1768576276028973000,8.04597314453125,-0.14934212794452906,-0.02645465700961649,0.7377817755967379
1768576276038972200,8.05597216796875,-0.2277709370151162,-0.0007640797076746821,0.8495914607435464
1768576276048971800,8.0659716796875,-0.3032709991574287,0.05206373004056513,0.8946206890374422
1768576276058971600,8.0759716796875,-0.3788052558302879,0.11005060305241494,0.9094581926852464
1768576276068971500,8.085971435546876,-0.45790363472551104,0.11517075907774268,0.971858242496848
1768576276078971600,8.0959716796875,-0.4786833879038691,0.1506432371383533,1.0170078823000193
1768576276088970800,8.105970703125,-0.4482312587559223,0.13976265442278235,1.0272036976218224
1768576276098970600,8.115970703125,-0.48089229612499473,0.07877294633314014,1.0692220536619423
1768576276108970800,8.125970703125,-0.5107014511942863,0.07620375343225896,1.0866150870114564
1768576276118970600,8.135970703125,-0.6260089153289795,0.08411649931818246,0.9937713836193084
1768576276128970500,8.145970458984374,-0.6414619205266237,0.059779199788719414,0.8453063307702541
1768576276138969600,8.155969482421876,-0.707320294098556,0.025783753744419664,0.7360393158435821
1768576276148969700,8.1659697265625,-0.7265072251275181,0.024777079186215994,0.5711410145878791
1768576276158969600,8.175969482421875,-0.6777545923963189,0.06547728356616571,0.3478331944614649
1768576276168969700,8.1859697265625,-0.5530857179373503,0.09948025532979518,0.14536942492127417
1768576276178969600,8.195969482421875,-0.6104796300247312,0.15351519411178305,-0.006841244196891784
1768576276188968700,8.20596875,-0.5867728834837674,0.11149711206629871,-0.0975806687861681
1768576276198968600,8.215968505859376,-0.5357511367768049,0.0984445008075796,-0.23072949455976485
1768576276208968700,8.22596875,-0.387220032954216,0.09498656063973904,-0.38175358424186706
1768576276218968600,8.235968505859375,-0.3312748583704233,0.1248940980495885,-0.49850949361920355
1768576276228968700,8.24596875,-0.30243863998651505,0.08051499509434215,-0.5832949782401323
1768576276238967600,8.255967529296875,-0.2806067474067211,0.032154540018504485,-0.5945183830440044
1768576276248967700,8.2659677734375,-0.2228779042765498,-0.07028970708288251,-0.5716688378542661
1768576276258967600,8.275967529296874,-0.15010960518568753,-0.18610822601225227,-0.5061947874248027
1768576276268967700,8.2859677734375,0.031929215963184834,-0.2973849733261391,-0.48906361988186836
1768576276278967600,8.295967529296876,0.07205138299316168,-0.3875169700741768,-0.5202531233936548
1768576276288966700,8.305966552734375,0.11532850692272185,-0.3735820778219029,-0.4742085805773735
1768576276298966500,8.315966552734375,0.10932985102981328,-0.2685540887044743,-0.3399444870382547
1768576276308966700,8.325966552734375,-0.019998247411847112,-0.15260273717567324,-0.23879706568121908
1768576276318966500,8.335966552734375,-0.04398761028647422,-0.022319027642766012,-0.06966565690040588
1768576276328966700,8.345966552734374,-0.02721884631514549,-0.10599395720590837,0.009598433950543403
1768576276338965800,8.3559658203125,0.0430389312595129,-0.19725947889536619,0.08090250570774078
1768576276348965600,8.365965576171876,0.04273761022537947,-0.2480760401527397,0.12913082230389117
1768576276358965800,8.3759658203125,-0.0821016523644328,-0.19495602425858377,0.18673720809817312
1768576276368965600,8.385965576171875,-0.16418752263784409,-0.07788677461575716,0.2663929286152124
1768576276378965500,8.395965576171875,-0.18188421510905026,0.021399218517262487,0.3101718645870685
1768576276388964600,8.405964599609375,-0.15448504379093647,0.05224639313109219,0.3623141397565603
1768576276398964700,8.41596484375,-0.31006518934220073,0.07102829615627415,0.3069289371430874
1768576276408964600,8.425964599609374,-0.36204116803407665,0.07787610709127038,0.20222879174053668
1768576276418964700,8.43596484375,-0.31600188591480255,0.1010375860407017,0.07434183201789855
1768576276428964600,8.445964599609376,-0.25590543687045575,0.19449023337773977,0.04377309075295925
1768576276438963700,8.455963623046875,-0.21466303363889455,0.2027527790820226,0.039136078602075575
1768576276448963600,8.465963623046875,-0.17959084347486495,0.14545924036288632,0.05578267749845981
1768576276458963700,8.475963623046875,-0.1964116298943758,0.10651393509255722,0.024909400328993796
1768576276468963600,8.485963623046874,-0.10555997710227966,0.09506483177402987,0.010897241589426994
1768576276478963700,8.495963623046874,-0.0714905342400074,0.06659525474542752,0.015173603734374045
1768576276488962600,8.505962646484376,-0.06359247446656227,0.11139089347915723,-0.008013795107603073
1768576276498962700,8.515962646484375,-0.050181204229593275,0.12024557812400162,-0.05368833556771278
1768576276508962600,8.525962646484375,0.06902122151702642,0.0902316942628473,-0.014984218642115592
1768576276518962700,8.535962646484375,-0.03911766616255045,0.07898766679605469,0.05224047484695911
1768576276528962600,8.545962646484375,-0.1896054570108652,0.09294610432069748,0.0568985297858715
1768576276538961700,8.555961669921874,-0.2532002695649862,0.08651185175580903,0.012195464706420897
1768576276548961500,8.56596142578125,-0.2850786321237683,0.11206316671753301,0.026607436418533324
1768576276558961700,8.575961669921876,-0.3499696219682693,0.15158537682667372,0.002773556366562843
1768576276568961500,8.58596142578125,-0.3893599675923586,0.14861534803994,-0.05618073690533638
1768576276578961700,8.595961669921875,-0.4465530964106321,0.18163013075012713,-0.1617377913981676
1768576276588960800,8.605960693359375,-0.33825814138650895,0.19328487617596982,-0.1967471454590559
1768576276598960600,8.615960693359375,-0.22139234189391135,0.1807037731528282,-0.162356215557456
1768576276608960500,8.62596044921875,-0.3077244714349508,0.21342560079842804,-0.08458031743764877
1768576276618960600,8.635960693359374,-0.3338134369373321,0.2592913529817015,-0.021168460234999655
1768576276628959700,8.645959716796876,-0.3014239099860191,0.27208682940788564,0.10474690715372562
1768576276638959600,8.655959716796875,-0.24797552065402267,0.2963146772135049,0.13118307865858078
1768576276648959700,8.665959716796875,-0.11473930885791778,0.25124014847315845,0.1043511858344078
1768576276658959600,8.675959716796875,-0.014711246919631956,0.25540917778611183,-0.030710780084133145
1768576276668959700,8.685959716796875,0.12120178287029265,0.19472722047138957,-0.16896540456414222
1768576276678958600,8.69595849609375,0.24470716650784013,0.149200016060099,-0.23869360530674455
1768576276688958700,8.705958740234376,0.2016983381256461,0.1297210798146203,-0.2304658751875162
1768576276698958600,8.71595849609375,0.1301671796143055,0.1297587814765051,-0.1742687716692686
1768576276708958700,8.725958740234375,0.03495616256892681,0.15575057021472602,-0.11653729819059372
1768576276718958600,8.73595849609375,-0.07804594723284244,0.11878672108519822,-0.09680617728233337
1768576276728957700,8.745957763671875,-0.2900304093122482,0.07247366352584213,-0.0859685569256544
1768576276738957600,8.75595751953125,-0.3066968819528818,0.10044592202417552,-0.047718028986454004
1768576276748957700,8.765957763671874,-0.18131781339794395,0.07017656556461006,-0.1487543911844492
1768576276758957600,8.77595751953125,-0.060924424301087854,0.0656665042616427,-0.15493337208032607
1768576276768957700,8.785957763671876,0.03693418464362621,0.03522266801800578,-0.10191957477331161
1768576276778956500,8.79595654296875,0.13858546386957168,-0.00667980655748397,-0.049587329989671705
1768576276788956700,8.805956787109375,0.18924246891736984,-0.029609613909199833,0.02198036113977432
1768576276798956500,8.81595654296875,0.06518938826918602,-0.06519691398851574,0.10573299558162688
1768576276808956700,8.825956787109375,-0.01719546495079994,-0.11961455021146684,0.12242460266351698
1768576276818956500,8.83595654296875,-0.0629115064650774,-0.1199443666877225,0.06271393806636333
1768576276828955600,8.84595556640625,-0.05923661734461784,-0.07960318661220371,0.03652677288651466
1768576276838955500,8.85595556640625,-0.021837153276801108,-0.11935396304652095,-0.0004524199426174164
1768576276848955600,8.86595556640625,-0.018145020760595796,-0.10972206521779299,-0.05714052184820175
1768576276858955500,8.87595556640625,-0.09494885897785425,-0.07606430842895061,-0.11671908449828625
1768576276868955600,8.88595556640625,-0.09003916736543179,-0.09394070484861732,-0.08505728729963302
1768576276878954800,8.895954833984375,-0.04414426215291023,-0.06734601831380277,0.0014829320341348648
1768576276888954600,8.90595458984375,0.0016746552139520643,-0.0652993149170652,0.017254501661658286
1768576276898954800,8.915954833984374,-0.023993454527854917,-0.01920143447834998,0.06305705241560935
1768576276908954600,8.92595458984375,-0.059741936518251895,-0.021311704630590973,0.10608312419354915
1768576276918954500,8.93595458984375,-0.04946224230527878,0.006352876158058643,0.12346154449582099
1768576276928953600,8.94595361328125,0.026227497190237044,0.018824600522592664,0.16318974377214907
1768576276938953700,8.95595361328125,0.07855974197387695,0.06394556222055107,0.18462240790128706
1768576276948953600,8.96595361328125,0.03150543759316206,0.042023434074036775,0.10908172148764132
1768576276958953700,8.97595361328125,0.014592004454135894,0.01616356461979449,0.03765490013360977
1768576276968953600,8.98595361328125,-0.10200374592542648,0.03455218487791717,-0.02887713491618633
1768576276978952700,8.99595263671875,-0.16428338422775268,0.04860796356350183,-0.02840659479498863
1768576276988952600,9.00595263671875,-0.21401304529756307,0.02911463346648961,-0.071107087880373
1768576276998952700,9.01595263671875,-0.2143587899953127,-0.014077515593357383,-0.11991232758164405
1768576277008952600,9.02595263671875,-0.0863525878071785,0.00843874252140522,-0.11542261494696139
1768576277018952700,9.03595263671875,-0.12664134357571602,-0.01827661125101149,-0.16256664343774319
1768576277028951600,9.04595166015625,-0.14241934294402597,-0.017345723609067498,-0.1452297241896391
1768576277038951700,9.05595166015625,-0.13953531194031238,-0.008490034317225217,-0.06813187146186828
1768576277048952600,9.06595263671875,-0.1368453422039747,-0.009017601855285466,-0.04541325917541981
1768576277058952400,9.075952392578126,-0.1341366677671671,-0.019164646131917835,-0.04431728063225746
1768576277068952600,9.08595263671875,-0.0618482611477375,-0.03648417585380375,-0.034544659158587454
1768576277078951700,9.09595166015625,-0.061865796804428094,-0.013278364572301506,-0.04558686217665672
1768576277088951600,9.10595166015625,-0.04985504101514816,-0.005331424155831337,-0.08614040636122226
1768576277098951700,9.11595166015625,-0.039675592306256294,0.0057513300683349365,-0.08023205910027027
1768576277108951600,9.12595166015625,-0.03695931908488274,0.03183806708101183,-0.053363925918936725
1768576277118951700,9.13595166015625,0.04446867180168628,0.039848574252985415,-0.08308043426871299
1768576277128950500,9.145950439453125,0.025799627166986465,0.02797985728289932,-0.10406477010846138
1768576277138950700,9.15595068359375,-0.037600539597868916,0.05782872330807149,-0.0511211154282093
1768576277148950500,9.165950439453125,-0.030711364606022834,0.06707775929905474,-0.027676526954770086
1768576277158950700,9.17595068359375,-0.0692939009785652,0.06396346320342272,-0.007382511466741562
1768576277168950500,9.185950439453125,-0.08339899869859219,0.08287018905151634,-0.03668693188428879
1768576277178949600,9.19594970703125,-0.06603986761868,0.07616258117165416,-0.042591772013902664
1768576277188949500,9.205949462890626,-0.07205313655883074,0.09730769706368446,-0.012484218519926071
1768576277198949600,9.21594970703125,-0.06601824030876159,0.06134436674620956,-0.03750409348607063
1768576277208949500,9.225949462890625,-0.023829203876852986,0.04559869874492287,-0.03615092531144619
1768576277218949600,9.23594970703125,-0.09133680596053599,0.04683331857379525,-0.03361410031020641
1768576277228948500,9.245948486328125,-0.030758710879087447,0.05215297922659665,-0.05507365244626999
1768576277238948600,9.255948486328125,0.023419454032182693,0.05192154509089887,-0.04334463620781898
1768576277248948500,9.265948486328124,0.09176058433055877,0.0748639561958611,0.008918634992837906
1768576277258948600,9.275948486328126,0.094173490691185,0.05787880952749401,0.04668400976359844
1768576277268947700,9.28594775390625,0.021620880177617072,0.04777885579559952,0.06704056909382343
1768576277278947600,9.295947509765625,-0.044887189474701876,0.05272935434244573,0.04612169970571994
1768576277288947500,9.305947509765625,-0.07231324879974127,0.04447564953174442,0.0028325930774211884
1768576277298947600,9.315947509765625,-0.09285013313293457,0.036570721626095475,-0.038461540341377255
1768576277308947500,9.325947509765625,-0.08890344133377075,0.0338435982171446,-0.05459142188727855
1768576277318946600,9.335946533203124,-0.06354688175916672,0.026033143661916256,-0.054043724876642225
1768576277328946700,9.34594677734375,-0.051902621194720264,0.007410641582682728,-0.06896364611089228
1768576277338946600,9.355946533203126,-0.04033259491026401,-0.02593468825612217,-0.052532735791802405
1768576277348946700,9.36594677734375,0.01895136870741844,-0.029708251978084445,0.04795534487366676
1768576277358946600,9.375946533203125,0.10459434694051742,-0.027251141149550673,0.0673334145605564
1768576277368945700,9.385945556640625,0.08742255512624979,0.010693024254217743,0.09447101233303547
1768576277378945500,9.395945556640624,0.044106268230080604,0.04517484730966389,0.0839560480594635
1768576277388945700,9.405945556640624,0.04212590806782245,0.07791041121967136,0.07687631893157959
1768576277398945500,9.415945556640626,-0.009850655145943164,0.08047967718578874,0.06370762527883052
1768576277408945700,9.425945556640626,-0.0009171148449182509,0.06482161440271884,0.026440847679972648
1768576277418944500,9.435944580078125,0.1148603048890829,0.05991977730318904,0.02705108853280544
1768576277428944600,9.445944580078125,0.106680213303864,0.038753326362185175,0.014662147080898283
1768576277438944500,9.455944580078125,0.14764789124727248,0.0038806773582473397,0.031166707158088683
1768576277448944600,9.465944580078125,0.18216683144271373,-0.04348349668923765,0.052667760348320006
1768576277458944500,9.475944580078124,0.10319850866794586,-0.05106547625083476,0.030056115567684172
1768576277468943600,9.485943603515626,0.05322188709974288,-0.07044391126390546,0.049713586717844004
1768576277478943500,9.495943603515625,0.007029460245370865,-0.08883706156667322,0.05181786552071571
1768576277488943600,9.505943603515625,-0.07124269695878029,-0.098648772941716,0.03832943839430809
1768576277498943500,9.515943603515625,-0.06274491772651672,-0.09200856774225831,0.04609013552367687
1768576277508943600,9.525943603515625,-0.05907265895456075,-0.07952325324378907,0.036195933496952055
1768576277518942700,9.535942626953124,-0.05277034393996,-0.05833729388471692,0.03510170851945877
1768576277528942600,9.545942626953124,-0.06860065801739693,-0.07829528235141188,0.011204700103402137
1768576277538942500,9.5559423828125,-0.06979366719424725,-0.0631937209399417,-0.0341068522632122
1768576277548942600,9.565942626953126,-0.07755787145495414,-0.03896978212445974,-0.058768415310978886
1768576277558942500,9.5759423828125,-0.04711860178858041,-0.017794161496311425,-0.06732406221032142
1768576277568941600,9.585941650390625,-0.047210079464316365,-0.0231791790029034,-0.05352583848237991
1768576277578941700,9.595941650390625,-0.06900631620883942,-0.010868015494942665,-0.0384814140856266
1768576277588941600,9.605941650390625,-0.04986906954050064,-0.012123422383517025,-0.023266893818974493
1768576277598941400,9.61594140625,-0.044103345620632166,-0.008192914534173906,-0.013707622835040092
1768576277608941600,9.625941650390626,-0.02486906831860542,0.03175393246151507,-0.05541033705472946
1768576277618940700,9.635940673828125,0.005840542721748352,0.04195420476272702,-0.05756313117444515
1768576277628940500,9.6459404296875,0.010892565414309502,0.047014849153161044,-0.016648352462053297
1768576277638940700,9.655940673828125,-0.04726648582667112,0.04985701377652585,0.020569909819960593
1768576277648940500,9.6659404296875,0.0065253101155161855,0.03854465204756707,0.09176642954945564
1768576277658940700,9.675940673828125,-0.00715600923448801,0.021765366682223973,0.10115209753215312
1768576277668939500,9.685939453125,-0.007286065354943275,0.006414945076219737,0.08804828580915927
1768576277678939600,9.695939697265626,0.02570318105518818,0.028352782248519358,0.04533259515464306
1768576277688939500,9.705939453125,0.0977110171675682,0.013684315024688838,0.03364391092658043
1768576277698939600,9.715939697265625,0.1142918573513627,0.04501161957196891,0.0407207174450159
1768576277708939500,9.725939453125,0.10500848069936036,0.06375533687807619,0.05807984852492809
1768576277718938600,9.735938720703125,0.046780163614451885,0.05476327132284641,0.069982467764616
1768576277728938500,9.7459384765625,0.04600830245912075,0.040587665649875995,0.08465630528330803
1768576277738938600,9.755938720703124,0.07735854949057101,0.05960541412439197,0.0687847824126482
1768576277748938500,9.7659384765625,0.16606149981617926,0.036774171776324506,0.057440966099500654
1768576277758938600,9.775938720703126,0.2218538219258189,0.04813592560496181,0.043426469272375104
1768576277768937500,9.7859375,0.18919804525375364,0.036838944108225406,0.04835340428054333
1768576277778937600,9.7959375,0.09246259512007236,0.04086122189424932,0.039811201384663576
1768576277788937500,9.8059375,0.0509489737316966,0.048226307302154596,0.022606384083628653
1768576277798937600,9.8159375,-0.030854572468996047,0.06925473801195621,0.05550853673219681
1768576277808936700,9.825936767578124,-0.011555413237214087,0.03775558402910829,0.04371756117343902
1768576277818936600,9.8359365234375,-0.049448798301815984,0.04043616488259286,0.03137713503837585
1768576277828936700,9.845936767578126,-0.049159459966421126,0.044408137253485615,0.04589548973441124
1768576277838936600,9.8559365234375,0.0278480841293931,0.017813158457726238,0.030900749698281285
1768576277848936400,9.8659365234375,0.05467997695356607,0.0054669601690024135,0.04408522544205189
1768576277858935600,9.875935546875,0.03332563875764608,-0.011668043298833072,0.009540566283464431
1768576277868935700,9.885935791015624,-0.05710603505671024,-0.024450623710826038,-0.045621933490037916
1768576277878935600,9.895935546875,-0.0749456431299448,-0.026060141266696153,-0.07870645696818829
1768576277888935700,9.905935791015626,-0.06994622740745544,-0.018353950803540645,-0.09049684800505638
1768576277898935600,9.915935546875,-0.06558481732755898,-0.003910524507239461,-0.056826633593440055
1768576277908934700,9.9259345703125,-0.025846681179106233,0.005699088424444198,-0.04490530965328216
1768576277918934500,9.9359345703125,0.012675357177853584,0.009446750520169734,-0.01018061775267124
1768576277928934700,9.9459345703125,0.02026712748110294,-0.0048149625336751335,0.0016050971090793608
1768576277938934500,9.9559345703125,0.026167875957489012,0.00474405272193253,0.03656067515611648
1768576277948934700,9.9659345703125,-0.015061960053443908,-0.008745726111344993,0.0431564201593399
1768576277958933500,9.97593359375,-0.006877776814997196,0.0056070262268185615,0.04617489119768142
1768576277968933600,9.98593359375,-0.0007595861956477165,-0.0011274696599692107,0.046965749314427374
1768576277978933500,9.99593359375,-0.027707798875868318,-0.02776161142233759,0.034440614262223244
1768576277988933600,10.00593359375,-0.030045009651780127,-0.013453355813026428,0.02971767739355564
1768576277998933500,10.01593359375,-0.008334989885985852,-0.019814305679686367,0.018692425510287283
1768576278008932600,10.0259326171875,-0.007299509358406066,-0.03653619830198586,0.01094575690627098
1768576278018932500,10.035932373046874,-0.009363163889944553,-0.02827705013118684,0.004790741407871246
1768576278028932600,10.0459326171875,0.0013379706054925918,-0.03131247230432927,0.004572130221128463
1768576278038932500,10.055932373046875,-0.006200900466740131,-0.02542242788504809,0.0009217910200357436
1768576278048931800,10.065931884765625,-0.007693477112054824,-0.014432904902286827,0.011158522874116897
1768576278058931000,10.075930908203125,0.0007706921115517615,-0.006599909721687436,0.030197569864988325
1768576278068930800,10.085930908203125,-0.00949877296835184,0.021273893370851872,0.03746960669457912
1768576278078931000,10.095930908203124,0.0013859014004468917,0.004019501307047904,0.02800444373488426
1768576278088930800,10.105930908203124,0.019007482808828354,0.004521934403851628,0.034924598386883735
1768576278098931000,10.115930908203126,0.031627894929051395,0.031020284424722194,0.017438041535019874
1768576278108929800,10.1259296875,0.03291179725974798,0.03588701367825269,-0.00017594108879566192
1768576278118930000,10.135929931640625,0.046670273499190805,0.014130268693901597,0.007543254986405372
1768576278128929800,10.1459296875,0.0071557169735431666,0.020927198825031516,0.02029460000991821
1768576278138930000,10.155929931640625,-0.025642975300550458,0.012671119394153356,0.013595394632220268
1768576278148929800,10.1659296875,-0.012099603116512299,0.019977679547853767,0.051019993141293525
1768576278158929000,10.175928955078126,-0.021418635603785513,0.022937186940573156,0.004369301125407218
1768576278168928800,10.1859287109375,-0.017504677030444143,0.011902911500632763,0.012290157252550124
1768576278178929000,10.195928955078125,-0.036168460968136786,0.02316993625052273,0.024480361261963842
1768576278188928800,10.2059287109375,-0.021017653587460515,0.008912789773941039,0.01025602107644081
1768576278198929000,10.215928955078125,-0.015150807380676269,0.0054657911252230405,0.005133271235227585
1768576278208927700,10.225927734375,-0.007274374917149543,0.005443542760796845,-0.014266425761580466
1768576278218927900,10.235927978515624,-0.010263619861006736,0.003610043723322451,-0.009703647890686989
1768576278228927700,10.245927734375,0.027383681488037107,-0.009686587158031761,-0.005542436558008194
1768576278238928000,10.255927978515626,0.029079964011907575,0.021512305236607788,-0.00820259567797184
1768576278248927000,10.265927001953125,0.017733225089311598,0.04043466704525053,-0.0009989479094743728
1768576278258926800,10.2759267578125,0.03668868544995785,0.05561207017190754,0.01589315018057823
1768576278268927000,10.285927001953125,0.03764262517392635,0.06169595666285604,0.04263619567751884
1768576278278926800,10.2959267578125,0.019487667541205882,0.06769300512056797,0.03745382460355758
1768576278288926700,10.3059267578125,-0.01220890870988369,0.06427848396934568,0.048613516521453855
1768576278298925800,10.31592578125,0.0032949498921632766,0.04960026253648102,0.0037701661884784695
1768576278308926000,10.325926025390626,-0.006116437053680419,0.02677720349486917,0.0025128596037626264
1768576278318925800,10.33592578125,-0.024002222356200215,0.0009372808501124381,0.028143559944629668
1768576278328926000,10.345926025390625,-0.019497019891440866,-0.011241013525798916,0.01992518217563629
1768576278338925800,10.35592578125,-0.0013175123393535614,0.005164725819416344,0.012401216411590575
1768576278348925000,10.365925048828124,0.021097440825402734,0.021707645145617425,-0.006771101570129394
1768576278358924800,10.3759248046875,0.019538520945608616,0.018068046534247695,0.02006196029782295
1768576278368925000,10.385925048828126,0.03490706273019314,0.012701149206236004,0.02214168918132782
1768576278378924800,10.3959248046875,0.00497574258595705,0.00989734383188188,0.021459552136063573
1768576278388925000,10.405925048828125,-0.010797580607235431,0.004008614586852491,0.0302379018753767
1768576278398923800,10.415923828125,-0.034443536871671676,-0.0034605887826532123,0.03117079881131649
1768576278408924000,10.425923828125,-0.0047325814798474305,0.0016182123189792037,0.029675591817498206
1768576278418923800,10.435923828125,0.06054945350885391,-0.013984905406460165,0.03310205913484096
1768576278428924000,10.445923828125,0.05592471631765365,-0.006802373491227627,0.038918636459112164
1768576278438923800,10.455923828125,0.03777881877422332,-0.015677352005429565,0.02460018824934959
1768576278448923000,10.4659228515625,-0.010965630650520324,-0.011901377130672335,0.03725391811728477
1768576278458922800,10.4759228515625,-0.023810499176383018,-0.005332702797465026,0.019676760372519492
1768576278468923000,10.4859228515625,-0.04387245947420597,-0.005563333215564489,-0.0024169980138540265
1768576278478922800,10.4959228515625,-0.06368833605647087,-0.007790507745742798,-0.0017395371437072752
1768576278488923000,10.5059228515625,-0.03370207085460424,-0.03426737658716738,-0.025616671815514563
1768576278498922000,10.515921875,0.009133154526352882,-0.028275917620025574,-0.008659691795706748
1768576278508921900,10.525921875,0.010140870264172553,-0.025363245043717324,-0.01389116270840168
1768576278518921700,10.535921630859375,0.015562895312905311,-0.0023031258432194587,-0.028436989933252332
1768576278528921900,10.545921875,0.01827858401238918,0.01611172483470291,-0.0363245283126831
1768576278538921700,10.555921630859375,0.008638649007678032,0.02802179672848433,-0.03736380823254585
1768576278548920800,10.5659208984375,0.015008768561482429,0.024095563195459545,-0.019542904859781263
1768576278558921000,10.5759208984375,0.011055062499642372,0.028922654558345674,0.008534019589424133
1768576278568920800,10.5859208984375,0.011668225961923599,0.03191741592753678,0.027302432945370672
1768576278578921000,10.5959208984375,0.01173135432600975,0.009837759131751955,0.025749942806363103
1768576278588920800,10.6059208984375,0.03617255262136459,0.012297317645698785,0.03242459826469421
1768576278598920000,10.615919921875,0.029705986955761907,0.000742233202047646,0.04054594539999962
1768576278608919800,10.625919921875,0.02282967144548893,-0.00524118858911097,0.04091068705916404
1768576278618920000,10.635919921875,-0.0018868366599082945,0.008331080895848572,0.02675005975961685
1768576278628919800,10.645919921875,-0.012439210334420204,0.021680501410365104,0.015100538498163223
1768576278638920000,10.655919921875,-0.00006605097353458404,0.03243343915827572,0.005929390048980712
1768576278648918800,10.665918701171876,0.008898176726698875,0.02733881943300366,-0.01819324381649494
1768576278658919000,10.6759189453125,-0.011779869642853736,0.012558306669443846,-0.013066986843943595
1768576278668918800,10.685918701171875,-0.00019756839871406555,0.022867446172609922,-0.00034486791491508483
1768576278678919000,10.6959189453125,0.015611410629749297,-0.002547273330017924,0.021971593311429023
1768576278688918800,10.705918701171875,0.0011555997759103774,0.0007845379738137126,0.019128478839993475
1768576278698918000,10.71591796875,0.007355623459815978,-0.003053907677903771,-0.00838905816078186
1768576278708917800,10.725917724609374,-0.00031388825476169586,0.014108897112309933,0.0011591069072484968
1768576278718918000,10.73591796875,0.013669628912210463,0.022347550484351813,0.008230068206787108
1768576278728917800,10.745917724609376,0.007661328408122062,0.0008011603150516748,0.007555529946088791
1768576278738916900,10.755916748046875,-0.01944412066042423,0.009910824367962777,0.01653846234679222
1768576278748917000,10.7659169921875,-0.027785832548141477,0.004964527072198689,0.025323826348781584
1768576278758916900,10.775916748046875,-0.029128479328751563,0.00019756839871406555,0.006312836408615112
1768576278768916700,10.785916748046875,-0.0291442614197731,-0.01866323594842106,0.005535422295331955
1768576278778916900,10.795916748046874,-0.029439152713119983,-0.008553856801055372,-0.013335866913199424
1768576278788916000,10.805916015625,-0.019248890349268914,0.01008150475975126,-0.0020446575701236723
1768576278798915800,10.815915771484375,0.010349544578790663,0.00990530794262886,-0.015090601626038551
1768576278808916000,10.825916015625,0.026412790629267692,0.01494538446906954,0.014189268872141838
1768576278818915800,10.835915771484375,0.03639993163645267,0.006818009451776743,0.040887890705466265
1768576278828915700,10.845915771484375,0.053902855101227755,-0.015968115112930534,0.08069441591501235
1768576278838914800,10.855914794921874,-0.006357260072231292,-0.044500564777292306,0.004344166684150695
1768576278848915000,10.8659150390625,-0.02076397108733654,-0.03528513879496604,0.006435586005449295
1768576278858914800,10.875914794921876,-0.0048655602097511285,-0.030075843181461094,0.008187398108839988
1768576278868915000,10.8859150390625,-0.008793547308444977,-0.0028475349182263015,-0.017556114956736563
1768576278878914800,10.895914794921875,0.009721475808322428,0.0021952450219541787,-0.002531564304232597
1768576278888914000,10.905913818359375,-0.006997311541438103,0.007972915107943117,0.008047697377204895
1768576278898913800,10.915913818359375,-0.013998130214214324,0.007612192036770284,0.019815292060375213
1768576278908914000,10.925913818359374,0.011175766269862651,0.015972754755429922,0.010561141502857207
1768576278918913800,10.935913818359374,0.03944061450660229,0.019642785037681458,0.023213117805123328
1768576278928914000,10.945913818359376,0.042162440685927866,0.007279599081538617,0.01794482201337814
1768576278938912800,10.955912841796875,0.027779987329244613,0.009984327995590864,0.011757657811045647
1768576278948913000,10.965912841796875,0.00970832406580448,0.020836378736421465,0.005593874484300613
1768576278958912800,10.975912841796875,-0.03902297361642122,0.01066310403998941,-0.004610124143958091
1768576278968913000,10.985912841796875,-0.02726677711009979,0.02353460484445095,0.010564648634195328
1768576278978912800,10.995912841796875,-0.01861468409895897,0.016612696626782417,0.00009527706801891326
1768576278988911900,11.005911865234374,-0.02311374908387661,0.008596490366384386,0.00452303038239479
1768576278998911700,11.015911865234376,-0.038646249258518214,-0.005085157777182757,-0.0038321255087852475
1768576279008912000,11.025911865234375,-0.0249789584338665,-0.0012009732875972986,0.007789923223853111
1768576279018911700,11.035911865234375,0.029535306563973424,0.0184211342882365,0.027709260180592537
1768576279028911900,11.045911865234375,0.013104396244883536,0.011352912935055791,0.01305412736237049
1768576279038911000,11.055910888671875,0.023308979395031928,0.02419573563430458,0.00005143792629241943
1768576279048912000,11.065911865234375,0.015954524978995323,0.02263491605836898,0.014334814822673797
1768576279058911700,11.075911865234374,0.014846855998039244,0.02407616437524557,0.020523732590675352
1768576279068911900,11.085911865234374,-0.012877017229795455,0.01798248714264482,0.026128128468990323
1768576279078911700,11.095911865234376,-0.011665011091530323,-0.004467427737638354,0.044997664111852645
1768576279088910800,11.105910888671875,-0.009066811291873455,-0.00666238049864769,0.04166004412174225
1768576279098910700,11.11591064453125,0.015734160226583478,-0.02054375246539712,0.05144435603320598
1768576279108910800,11.125910888671875,0.02960486466884613,-0.012953041608072816,0.04835165071487427
1768576279118910700,11.13591064453125,0.02920271360874176,-0.008015219879709184,0.036027591192722315
1768576279128910800,11.145910888671875,-0.011776947033405304,0.005641074626892804,-0.011768763726949691
1768576279138909700,11.15590966796875,-0.03301730346083641,0.023917101356014606,-0.0006131634622812271
1768576279148909800,11.165909912109376,-0.03717734574973583,0.02472458181399852,0.004942717099189758
1768576279158909700,11.17590966796875,-0.047988662621378894,0.015024477587267755,-0.018719898039102553
1768576279168909800,11.185909912109375,-0.03207680774033069,0.012814984844252466,-0.019742811346054077
1768576279178909700,11.19590966796875,-0.004160042288899422,0.0018751096894964576,-0.033250527694821355
1768576279188908800,11.20590869140625,0.005862462292611599,0.009066665161401033,-0.029745149922370907
1768576279198909000,11.215908935546874,0.006124328099191188,0.010612177570350467,-0.0035077158600091934
1768576279208908800,11.22590869140625,-0.0009349427625536918,0.013927987587451934,-0.011980360651016235
1768576279218908700,11.23590869140625,-0.015319734206795691,0.0201831389920786,-0.004734042784571647
1768576279228907800,11.24590771484375,0.00986088427901268,0.02427713030744344,-0.009717676416039467
1768576279238908000,11.255907958984375,0.011425064855813979,0.027227102686837312,0.0137421096265316
1768576279248907800,11.26590771484375,0.0007385434076189995,0.008603687292151153,0.016036358043551444
1768576279258908000,11.275907958984375,-0.024008359836041927,0.010799407238140702,0.03545651330649852
1768576279268907800,11.28590771484375,-0.022106910128891467,-0.005265007856115699,0.046718496555089944
1768576279278907000,11.295906982421876,-0.008781856870651245,0.015156871795281766,0.02433539983332157
1768576279288906800,11.30590673828125,-0.003728665134310722,0.01127641363274306,0.010305120915174484
1768576279298907000,11.315906982421875,0.017596739228069782,0.000013809329643845557,0.04002338283061981
1768576279308906800,11.32590673828125,0.011776362511515617,0.0004910349199548364,0.024380408018827435
1768576279318907000,11.335906982421875,0.032144904540479184,-0.0025795316318050023,0.008214870637655258
1768576279328905700,11.34590576171875,0.03504325633049011,-0.006049947688728571,0.003146481332182884
1768576279338905900,11.35590576171875,0.0030669863551855085,-0.00679733198992908,0.0014420155018568038
1768576279348905700,11.36590576171875,0.012899813583493232,0.004983998957648873,0.00806581755578518
1768576279358905900,11.37590576171875,0.00021130466312170029,-0.016138978167809546,0.020109306570887563
1768576279368905700,11.38590576171875,-0.013780103549361229,-0.0005343626050278545,0.023415946900844573
1768576279378904800,11.39590478515625,0.005089139832556247,0.0006074643738567829,0.010365326669812202
1768576279388904700,11.40590478515625,0.0041112347111105915,0.0037415611485019326,0.00400280590057373
1768576279398904800,11.41590478515625,0.000893149447441101,-0.0015444164304062723,0.013583704194426536
1768576279408904700,11.42590478515625,-0.026769933503866195,0.005993870119936764,0.021719664376974104
1768576279418904800,11.43590478515625,-0.02458411389738321,0.013764942512847482,0.006252046132087707
1768576279428904000,11.445904052734376,-0.013519406786561012,0.01591105116344988,-0.0033411271214485168
1768576279438903800,11.45590380859375,-0.0064978375867009155,0.018353475879505275,-0.009207973328232765
1768576279448903700,11.465903564453125,-0.037490649482607837,0.014342778933420777,0.0010837035834789276
1768576279458903800,11.47590380859375,-0.046156478758156295,-0.00010923252813518047,0.00606850625872612
1768576279468903700,11.485903564453125,-0.02358604277074337,0.0051625703949481246,-0.0037859482795000073
1768576279478902800,11.49590283203125,-0.0005295768320560455,0.007102379351109266,0.0029062428355216977
1768576279488903000,11.50590283203125,-0.002755436187982559,0.007606273752637207,0.014990063861012457
1768576279498902800,11.51590283203125,0.011625555863976478,-0.002044730635359883,0.016442016234993934
1768576279508903000,11.52590283203125,0.025937574332952497,0.013227949559316039,0.021902035206556317
1768576279518902800,11.53590283203125,0.008363923719525337,0.011011479086242615,0.007609890481829642
1768576279528902000,11.54590185546875,-0.0017690554991364477,0.00810666102282703,0.007898059773445128
1768576279538901800,11.55590185546875,-0.005482523064315319,0.01766951220333576,0.01903670890331268
1768576279548902000,11.56590185546875,-0.0005061959564685822,0.031231114163808523,0.01087912141084671
1768576279558901800,11.57590185546875,-0.0018798223972320556,0.014212759345583617,0.013686580047011374
1768576279568902000,11.58590185546875,-0.005813070192933082,0.008533288937062025,0.026508067697286603
1768576279578900700,11.595900634765625,0.004255903878808021,-0.00014309826511889695,0.011681085443496704
1768576279588900900,11.60590087890625,-0.020151099886000154,0.019042992513626813,0.014252397236227989
1768576279598900700,11.615900634765625,-0.009511340188980102,0.011356127805449067,0.005682137289643287
1768576279608900900,11.62590087890625,0.0021478256836533543,0.020436529231257737,0.010640636479854583
1768576279618899700,11.635899658203124,0.016773440146446227,0.024079123517312107,0.006993804410099983
1768576279628899800,11.64589990234375,0.015055530312657356,0.0036447862431406974,0.011505728876590729
1768576279638899700,11.655899658203126,0.01579085884988308,0.004856719316169619,0.003551555001735687
1768576279648899800,11.66589990234375,0.014864099393785,0.0044078065048903225,0.01077975268959999
1768576279658899700,11.675899658203125,0.0033572014734148978,0.008430595747567713,0.02333937453329563
1768576279668898800,11.68589892578125,-0.012209200970828532,0.018394794270582496,0.017495909202098845
1768576279678898700,11.695898681640625,-0.03642389703392982,0.022444471520185468,0.0017068039178848265
1768576279688898800,11.70589892578125,-0.04163666324615478,0.029523835321888327,0.004991232416033745
1768576279698898700,11.715898681640626,-0.03961597107350826,0.00561181199979037,-0.000011105915904045104
1768576279708898800,11.72589892578125,-0.011307868216931818,0.004046791172772646,0.013066402322053909
1768576279718898000,11.73589794921875,0.013536065660417079,-0.012782726542465388,0.012509352961182593
1768576279728897800,11.745897705078125,0.028311902248859405,0.0000294818228110671,-0.003932078751921654
1768576279738898000,11.75589794921875,0.050909518504142756,0.01484864609632641,0.005310381367802619
1768576279748897800,11.765897705078125,0.09453589426279067,-0.013090440784767269,0.025830606827139852
1768576279758897700,11.775897705078124,0.06169394736886024,-0.017722740227915347,0.06379179643094539
1768576279768896800,11.785896728515626,0.0215346631988883,-0.0007580518256872892,0.07460369782447815
1768576279778897000,11.79589697265625,-0.03231996884644031,-0.008599376443214714,0.058356327378749843
1768576279788896800,11.805896728515625,-0.03961158715933561,-0.02298683476857841,0.05872399164736271
1768576279798897000,11.81589697265625,0.0034901802033185957,-0.03840023860819638,0.06131517718434334
1768576279808896800,11.825896728515625,0.03178279322981834,-0.03967953782901168,0.04072247101068496
1768576279818896000,11.835895751953124,0.04055851262062788,-0.021383198964223263,0.015169512081146239
1768576279828895700,11.845895751953124,0.020773323437571524,-0.01052219773195684,-0.005130933147668838
1768576279838895900,11.855895751953126,-0.0003986439287662506,0.010023527494817972,-0.0003787701845169067
1768576279848895700,11.865895751953126,-0.03510170851945877,0.027556517304293808,-0.008150573229789734
1768576279858896000,11.875895751953125,-0.04484188902825117,0.03935213250555098,-0.01167816283404827
1768576279868894700,11.885894775390625,-0.026028759747743605,0.031364458219893275,-0.010062544330954552
1768576279878894800,11.895894775390625,-0.005319149196147919,0.00410264954585582,0.009404957205057143
1768576279888894700,11.905894775390625,0.027149288210272786,0.005137801279872655,-0.009987725529074669
1768576279898894800,11.915894775390624,0.05046235925853252,0.005860708726942539,-0.006943535527586937
1768576279908894700,11.925894775390624,0.016682839253544808,-0.012822400965727865,-0.02099018105864525
1768576279918893800,11.935893798828126,-0.010022796842455862,0.004799764964543283,-0.02192541608214378
1768576279928893700,11.945893798828125,0.012430442506074904,-0.012380100558325648,0.005837035590410232
1768576279938893800,11.955893798828125,-0.0009410802423954009,-0.008857662053219974,-0.0011444938600063323
1768576279948893700,11.965893798828125,-0.006624386575818061,0.005820668977499008,0.03477028460800648
1768576279958893800,11.975893798828125,-0.0013046528577804564,0.026406580084189772,0.05081950213313102
1768576279968893000,11.985892822265624,-0.003192074039578438,0.05796678007189184,0.01755143878161907
1768576279978892800,11.995892822265626,0.0342398309931159,0.046891588099673386,0.0230967979490757
1768576279988892700,12.005892578125,0.011907295414805412,0.04420581961441785,0.02546644968986511
1768576279998892800,12.015892822265625,0.008191197501122951,0.03407488622236997,0.009610124388337134
1768576280008892000,12.025891845703125,0.014559271228313445,0.03896660378668457,0.007620996397733688
1768576280018891800,12.035891845703125,0.007407645907998085,0.01920662211012095,0.006878069075942039
1768576280028892000,12.045891845703125,0.008511223235726355,0.009383439492993056,-0.0018564415216445922
