time,seconds_elapsed,z,y,x
1768576268039134500,0.056134521484375,-0.0047808182425796986,0.004876810126006603,-0.008418107405304909
1768576268049134600,0.066134521484375,-0.002478781621903181,0.0073626041412353516,-0.008388547226786613
1768576268059134500,0.076134521484375,-0.0015716369962319732,0.011626970022916794,-0.00887077022343874
1768576268069133600,0.086133544921875,0.0002979021519422531,0.013079989701509476,-0.007546113803982735
1768576268079133400,0.096133544921875,0.0010968504939228296,0.015316512435674667,-0.008117628283798695
1768576268089133600,0.106133544921875,0.0004536970518529415,0.01569281704723835,-0.010402620770037174
1768576268099133400,0.116133544921875,0.0023641339503228664,0.010407316498458385,-0.008763163350522518
1768576268109133600,0.126133544921875,0.0018924882169812918,0.004953695461153984,-0.0063040005043148994
1768576268119132400,0.13613232421875,-0.00046379142440855503,0.0023532784543931484,-0.004270058125257492
1768576268129132500,0.146132568359375,-0.000883239321410656,0.0029500932432711124,-0.006845868192613125
1768576268139132400,0.15613232421875,0.0028412197716534138,0.006517096422612667,-0.005314433481544256
1768576268149132500,0.166132568359375,0.0033490846399217844,0.010321156121790409,-0.0025516701862215996
1768576268159132400,0.17613232421875,0.005048602819442749,0.008235307410359383,-0.0036916565150022507
1768576268169131500,0.186131591796875,0.003683732822537422,0.004412340000271797,-0.0017526093870401382
1768576268179131400,0.19613134765625,0.0026315879076719284,0.004270171746611595,-0.004598170518875122
1768576268189131500,0.206131591796875,0.0007034593727439642,0.004886161535978317,-0.004696708172559738
1768576268199131400,0.21613134765625,0.0011159691493958235,0.005200564861297607,-0.010853461921215057
1768576268209131500,0.226131591796875,-0.0035384376533329487,-0.004064306151121855,-0.013793058693408966
1768576268219130600,0.236130615234375,-0.0020793057046830654,-0.01595303788781166,-0.01908108964562416
1768576268229130500,0.246130615234375,-0.002059598220512271,-0.0207616426050663,-0.01438753493130207
1768576268239130600,0.256130615234375,0.0013583151157945395,-0.02231794223189354,-0.017100486904382706
1768576268249130500,0.266130615234375,0.003200423438102007,-0.03087547793984413,-0.011210907250642776
1768576268259130400,0.27613037109375,0.0037789330817759037,-0.036800965666770935,-0.008621487766504288
1768576268269129500,0.28612939453125,0.00221405946649611,-0.030659452080726624,-0.005509851034730673
1768576268279129600,0.296129638671875,0.0028400574810802937,-0.024447686970233917,-0.0074218884110450745
1768576268289129500,0.30612939453125,-0.0009309784509241581,-0.030143655836582184,-0.007891669869422913
1768576268299129600,0.316129638671875,0.0004691563080996275,-0.023336557671427727,-0.006279504392296076
1768576268309129500,0.32612939453125,0.0008944631554186344,-0.023733368143439293,-0.010133631527423859
1768576268319128600,0.336128662109375,-0.0002105374587699771,-0.02433111146092415,-0.01691928505897522
1768576268329128400,0.34612841796875,0.0018779134843498468,-0.024072784930467606,-0.012448904104530811
1768576268339128600,0.356128662109375,0.0019345404580235481,-0.02762039378285408,-0.009468969888985157
1768576268349128400,0.36612841796875,0.0005161409499123693,-0.024021396413445473,-0.004907773807644844
1768576268359128600,0.376128662109375,0.0007715380634181201,-0.025526616722345352,-0.003964481875300407
1768576268369127400,0.38612744140625,-0.00039770256262272596,-0.02521834708750248,-0.0035332520492374897
1768576268379127600,0.39612744140625,-0.0002553369849920273,-0.016644425690174103,-0.00435557309538126
1768576268389127400,0.40612744140625,-0.00047131930477917194,-0.01382600236684084,-0.00018799211829900742
1768576268399127600,0.41612744140625,-0.0033049483317881823,-0.00930305477231741,0.0030596640426665545
1768576268409126400,0.42612646484375,-0.0034828477073460817,-0.006188754457980394,0.0023163757286965847
1768576268419126500,0.43612646484375,-0.00015283108223229647,-0.0037160092033445835,0.006180356256663799
1768576268429126400,0.44612646484375,-0.0038863166701048613,-0.004724548198282719,0.00620139529928565
1768576268439126500,0.45612646484375,-0.003894011490046978,-0.0038955416530370712,0.007307789288461208
1768576268449126400,0.46612646484375,-0.0031789527274668217,-0.001464874716475606,0.007166641764342785
1768576268459125500,0.47612548828125,-0.002498319372534752,-0.006051949225366116,0.00701108667999506
1768576268469125600,0.486125732421875,-0.0028706290759146214,-0.014030513353645802,0.005532499402761459
1768576268479125500,0.49612548828125,-0.0019387890351936221,-0.018215404823422432,0.009039616212248802
1768576268489125400,0.50612548828125,-0.0013342514866963029,-0.01879943534731865,0.0067823207937181
1768576268499125500,0.51612548828125,-0.0004478110931813717,-0.01646401733160019,0.00874379277229309
1768576268509124600,0.52612451171875,-0.0004773722030222416,-0.021275551989674568,0.008867628872394562
1768576268519124500,0.53612451171875,-0.0009068283252418041,-0.020865898579359055,0.00394865870475769
1768576268529124600,0.54612451171875,-0.0005172078963369131,-0.015496166422963142,0.00574975460767746
1768576268539124500,0.55612451171875,-0.0015082407044246793,-0.009802373126149178,0.0016037188470363617
1768576268549124400,0.566124267578125,-0.00016201275866478682,-0.009260952472686768,-0.003769474569708109
1768576268559123500,0.57612353515625,-0.0004403822822496295,-0.0075610363855957985,-0.002282877452671528
1768576268569123600,0.58612353515625,0.0008768172119744122,-0.0044115823693573475,-0.003235223703086376
1768576268579123500,0.59612353515625,0.0024262163788080215,-0.004539112094789743,-0.0034726280719041824
1768576268589123600,0.60612353515625,0.002828619908541441,-0.009252641350030899,0.001650495221838355
1768576268599123500,0.61612353515625,0.004834288731217384,-0.01783859357237816,0.005775907076895237
1768576268609122600,0.62612255859375,0.0013213127385824919,-0.02307037264108658,0.006750890053808689
1768576268619122400,0.636122314453125,-0.0014546406455338001,-0.021114371716976166,0.003541195299476385
1768576268629122600,0.64612255859375,-0.005223812535405159,-0.02408592589199543,0.005700752604752779
1768576268639122400,0.656122314453125,-0.007979988120496273,-0.023275570943951607,0.009278150275349617
1768576268649122600,0.66612255859375,-0.00712138507515192,-0.020542101934552193,0.011922135949134827
1768576268659121400,0.676121337890625,-0.004689483903348446,-0.02244407683610916,0.01549866609275341
1768576268669121500,0.68612158203125,-0.0034178243950009346,-0.019078906625509262,0.017314676195383072
1768576268679121400,0.696121337890625,-0.001715630292892456,-0.014044743031263351,0.0171321053057909
1768576268689121500,0.70612158203125,-0.000805361894890666,-0.01637634076178074,0.012149330228567123
1768576268699121400,0.716121337890625,-0.002219920512288809,-0.015060081146657467,0.012486688792705536
1768576268709120500,0.72612060546875,-0.0014912798069417477,-0.01770167052745819,0.013964477926492691
1768576268719120400,0.736120361328125,-0.001438746228814125,-0.014018005691468716,0.01354154571890831
1768576268729120500,0.74612060546875,-0.003914420492947102,-0.006213079672306776,0.012293588370084763
1768576268739120400,0.756120361328125,-0.0020233243703842163,-0.00033959350548684597,0.01134517788887024
1768576268749119500,0.766119384765625,-0.002062738873064518,0.005806449800729752,0.011819221079349518
1768576268759119600,0.77611962890625,-0.0007958166534081101,0.007706011645495892,0.009783202782273293
1768576268769119500,0.786119384765625,0.0003826320171356201,0.00492833461612463,0.005608964245766401
1768576268779119600,0.79611962890625,0.0020520840771496296,0.002522872295230627,-0.0004542921669781208
1768576268789119500,0.806119384765625,0.0029535642825067043,0.00003095204010605812,-0.0018212925642728806
1768576268799118600,0.81611865234375,0.0023710725363343954,-0.005782723426818848,-0.0031049526296555996
1768576268809118500,0.826118408203125,-0.000465993070974946,-0.009455488994717598,-0.005343339405953884
1768576268819118600,0.83611865234375,-0.00029512832406908274,-0.010232925415039062,-0.004989292938262224
1768576268829118500,0.846118408203125,0.00015787547454237938,-0.008872317150235176,-0.0053757173009216785
1768576268839118600,0.85611865234375,-0.00017307105008512735,-0.0029554106295108795,-0.004230739548802376
1768576268849117400,0.866117431640625,0.002728709252551198,-0.0006842666771262884,-0.003290110733360052
1768576268859117600,0.87611767578125,0.0029102382250130177,0.0021229609847068787,-0.0019632019102573395
1768576268869117400,0.886117431640625,0.00037331099156290293,0.005175209604203701,-0.0024713329039514065
1768576268879117600,0.89611767578125,-0.002458037342876196,0.004430499859154224,-0.0024884305894374847
1768576268889117400,0.906117431640625,-0.0022780075669288635,-0.0017245984636247158,-0.006072779186069965
1768576268899116500,0.916116455078125,-0.0027178614400327206,-0.006083850748836994,-0.004619034007191658
1768576268909116400,0.926116455078125,-0.002823855262249708,-0.005224981345236301,-0.0020709214732050896
1768576268919116500,0.936116455078125,-0.003400289686396718,-0.007868143729865551,0.0021909407805651426
1768576268929116400,0.946116455078125,-0.002380565507337451,-0.008956577628850937,0.002743014134466648
1768576268939116500,0.956116455078125,-0.0048415809869766235,-0.011115286499261856,0.004725481383502483
1768576268949115400,0.966115478515625,-0.0023499273229390383,-0.003351905383169651,0.00606105662882328
1768576268959115500,0.976115478515625,-0.0011187194613739848,0.000835880171507597,0.005493920296430588
1768576268969115400,0.986115478515625,0.001305556041188538,-0.0019316768739372492,0.0036829705350100994
1768576268979115500,0.996115478515625,0.0011371197178959846,-0.010017476044595242,-0.003937877248972654
1768576268989115400,1.006115478515625,-0.0009300258243456483,-0.005873863585293293,-0.008527303114533424
1768576268999114500,1.016114501953125,-0.0019163342658430338,-0.0009965754579752684,-0.006596249528229237
1768576269009114600,1.026114501953125,-0.004178689327090979,0.0004535159096121788,-0.0017868466675281525
1768576269019114500,1.036114501953125,-0.003377877175807953,-0.0010743397288024426,-0.0009311730973422527
1768576269029114400,1.0461142578125,-0.0029248734936118126,-0.003058128524571657,0.0038627830799669027
1768576269039114500,1.056114501953125,-0.0007804118795320392,-0.0035117699299007654,0.004702029749751091
1768576269049113600,1.066113525390625,-0.0027357046492397785,-0.00041211675852537155,0.0027680424973368645
1768576269059113500,1.076113525390625,-0.0006754029309377074,-0.004036115948110819,0.002829017350450158
1768576269069113600,1.086113525390625,-0.001066887634806335,-0.008483861573040485,-0.0032728174701333046
1768576269079113500,1.096113525390625,0.00040459667798131704,-0.0009277150966227055,-0.007107102312147617
1768576269089112600,1.106112548828125,-0.00018129870295524597,0.0028321356512606144,-0.00706236157566309
1768576269099112400,1.116112548828125,0.0007110843434929848,0.003330864943563938,-0.0026755118742585182
1768576269109112600,1.126112548828125,-0.0008644418558105826,0.006717872805893421,-0.0026909583248198032
1768576269119112400,1.136112548828125,-0.0005633651744574308,0.0035484707914292812,-0.002213182393461466
1768576269129112600,1.146112548828125,-0.001632091822102666,0.001555361319333315,0.005209580063819885
1768576269139111400,1.156111328125,-0.0010219467803835869,0.0018101404421031475,0.006978292483836412
1768576269149111600,1.166111572265625,-0.0006453755777329206,-0.0004966896958649158,0.001966755837202072
1768576269159111400,1.176111328125,-0.0011867688735947013,-0.0013295609969645739,0.0010751988738775253
1768576269169111600,1.186111572265625,-0.0029047736898064613,0.006078287959098816,0.003338086884468794
1768576269179111400,1.196111328125,-0.003233618102967739,0.0007297908887267113,0.002969206776469946
1768576269189110500,1.206110595703125,-0.0036629196256399155,-0.003866026410833001,0.006259808782488108
1768576269199110400,1.2161103515625,-0.004557027481496334,-0.004546624142676592,0.011832388117909431
1768576269209110500,1.226110595703125,-0.0031921574845910072,-0.003619577968493104,0.008589723147451878
1768576269219110400,1.2361103515625,-0.000032722484320402145,-0.004621484316885471,0.0076890368945896626
1768576269229110500,1.246110595703125,0.003885586280375719,-0.002510396298021078,0.004279658198356628
1768576269239109600,1.256109619140625,0.0032039564102888107,0.001009262166917324,0.002051662653684616
1768576269249109500,1.266109619140625,0.004003969952464104,0.005572056397795677,-0.0010562464594841003
1768576269259109400,1.276109375,0.004748983308672905,0.008711631409823895,-0.001165973488241434
1768576269269109500,1.286109619140625,0.0039993030950427055,0.010476774536073208,0.003656478365883231
1768576269279109400,1.296109375,0.004560739733278751,0.006395294331014156,0.0021967096254229546
1768576269289108500,1.3061083984375,0.001816884963773191,-0.0013041705824434757,0.0037282933481037617
1768576269299108600,1.316108642578125,-0.00044343830086290836,-0.01078716479241848,0.0014791095163673162
1768576269309108500,1.3261083984375,-0.00376306870020926,-0.009550925344228745,-0.0011715348809957504
1768576269319108600,1.336108642578125,-0.0045957546681165695,-0.005880928132683039,0.0006906331982463598
1768576269329108500,1.3461083984375,-0.00387643463909626,-0.003467039205133915,0.00254206289537251
1768576269339107600,1.356107666015625,-0.001657236716710031,-0.004490341059863567,0.004877596627920866
1768576269349107500,1.366107421875,0.002684248611330986,-0.006321530789136887,0.006982292979955673
1768576269359107600,1.376107666015625,0.003746317233890295,-0.007869360037147999,0.012296098284423351
1768576269369107500,1.386107421875,0.002728723455220461,-0.006151887588202953,0.010012969374656677
1768576269379107600,1.396107666015625,0.0020533574279397726,-0.003537145908921957,0.007192692719399929
1768576269389106400,1.4061064453125,0.00040645862463861704,-0.006450111046433449,0.0048717474564909935
1768576269399106600,1.4161064453125,-0.0012956639984622598,-0.00960616860538721,0.007207777351140976
1768576269409106400,1.4261064453125,-0.002059458289295435,-0.007369113154709339,0.006297242362052202
1768576269419106600,1.4361064453125,-0.0027751473244279623,-0.008787456899881363,0.003778860904276371
1768576269429105400,1.44610546875,-0.0010728549677878618,-0.008843649178743362,0.004538394510746002
1768576269439105500,1.45610546875,-0.0017313994467258453,-0.01223638653755188,0.0035524126142263412
1768576269449105400,1.46610546875,0.0014745137887075543,-0.011070188134908676,0.004317805171012878
1768576269459105500,1.47610546875,0.003960194997489452,-0.00981303583830595,0.003922122530639172
1768576269469105400,1.48610546875,0.004513067193329334,-0.010596271604299545,0.002013434888795018
1768576269479104500,1.4961044921875,0.002708609215915203,-0.011213250458240509,0.0029417392797768116
1768576269489104400,1.5061044921875,0.0016691775526851416,-0.006576153915375471,0.0009949684608727694
1768576269499104500,1.5161044921875,-0.0008886217838153243,-0.0090887900441885,-0.003861136268824339
1768576269509104400,1.5261044921875,-0.0000334808137267828,-0.010063773021101952,-0.002090134657919407
1768576269519104500,1.5361044921875,-0.0000688573345541954,-0.009256555698812008,0.0020964834839105606
1768576269529103600,1.546103515625,0.0010142503306269646,-0.005511885043233633,0.0005795469041913748
1768576269539103500,1.556103515625,0.0032948548905551434,-0.0054665859788656235,0.0022842418402433395
1768576269549103600,1.566103515625,0.0006836255779489875,-0.006256746128201485,0.0027476318646222353
1768576269559103500,1.576103515625,-0.0006712643662467599,-0.004471387714147568,0.0035692115779966116
1768576269569103400,1.586103271484375,-0.0025599785149097443,-0.0026508509181439877,0.0013132477179169655
1768576269579102500,1.5961025390625,-0.002436534035950899,-0.0019474851433187723,0.001619516871869564
1768576269589102600,1.6061025390625,-0.001606160425581038,-0.0007839500904083252,0.000687943072989583
1768576269599102500,1.6161025390625,-0.0011094525689259171,0.0009878156706690788,0.0007218825630843639
1768576269609102600,1.6261025390625,-0.0001243493752554059,-0.0026625790633261204,0.00010056700557470322
1768576269619102500,1.6361025390625,0.0029176115058362484,-0.004255671985447407,-0.002012241631746292
1768576269629101600,1.6461015625,0.005311526823788881,-0.005320403724908829,-0.0013661584816873074
1768576269639101400,1.656101318359375,0.003985328134149313,-0.0037458117585629225,0.00033951643854379654
1768576269649101600,1.6661015625,0.0032929060980677605,-0.0025103711523115635,-0.004065618384629488
1768576269659101400,1.676101318359375,0.0038872682489454746,-0.0022002439945936203,-0.005724688060581684
1768576269669101600,1.6861015625,0.0035487806890159845,0.000017636455595493317,-0.005736938677728176
1768576269679100400,1.696100341796875,0.00011504068970680237,0.004280583001673222,-0.007559067569673061
1768576269689100500,1.7061005859375,-0.0011568850604817271,0.005520018748939037,-0.009711168706417084
1768576269699100400,1.716100341796875,0.00016028631944209337,0.006978733465075493,-0.00794263370335102
1768576269709100500,1.7261005859375,-0.001322561758570373,0.006070329807698727,-0.006708258297294378
1768576269719100400,1.736100341796875,-0.0022948679979890585,0.002019710373133421,-0.005764688365161419
1768576269729099500,1.746099609375,-0.00032466137781739235,0.0011155670508742332,-0.004628317430615425
1768576269739099400,1.756099365234375,0.0018497109413146973,-0.0014394789468497038,-0.0036268471740186214
1768576269749099500,1.766099609375,0.00040814175736159086,-0.0016863539349287748,-0.002315772697329521
1768576269759099400,1.776099365234375,-0.0011958510149270296,0.0013603325933218002,-0.00277020875364542
1768576269769099500,1.786099609375,-0.000027522328309714794,0.0004910766147077084,-0.0006806924939155579
1768576269779098600,1.7960986328125,-0.0018175169825553894,0.006254528649151325,0.000601534266024828
1768576269789098500,1.806098388671875,-0.0019730455242097378,0.013660780154168606,-0.0022547058761119843
1768576269799098400,1.816098388671875,-0.003262422513216734,0.012780314311385155,-0.003824378829449415
1768576269809098500,1.826098388671875,-0.0007912750588729978,0.008522718213498592,-0.001180125866085291
1768576269819097600,1.83609765625,0.0011804456589743495,0.003267608117312193,0.0009295449126511812
1768576269829097500,1.846097412109375,-0.0004121246747672558,0.003081453498452902,0.0005593656096607447
1768576269839097600,1.85609765625,-0.0022646209690719843,0.003890189342200756,0.0016064727678894997
1768576269849097500,1.866097412109375,-0.0027591700199991465,0.004415630362927914,0.0038368701934814453
1768576269859097600,1.87609765625,-0.002608534414321184,0.0020155804231762886,0.002399950288236141
1768576269869096400,1.886096435546875,-0.002115050796419382,0.00039105210453271866,-0.000437913928180933
1768576269879096600,1.8960966796875,-0.0022622509859502316,0.0037757735699415207,0.0002500549890100956
1768576269889096400,1.906096435546875,-0.0030196537263691425,0.00657076109200716,0.002876997459679842
1768576269899096600,1.9160966796875,-0.0020024669356644154,0.004728029482066631,0.004456731956452131
1768576269909096400,1.926096435546875,-0.0014155061217024922,0.0023490278981626034,0.009013400413095951
1768576269919095600,1.936095458984375,-0.0009297594660893083,0.001885522622615099,0.009343573823571205
1768576269929095400,1.946095458984375,-0.001559330732561648,0.0009305127896368504,0.009456757456064224
1768576269939095600,1.956095458984375,0.00041487044654786587,0.0012250584550201893,0.007223963737487793
1768576269949095400,1.966095458984375,-0.000989148044027388,0.004631774500012398,0.006593060679733753
1768576269959095600,1.976095458984375,-0.0006641721120104194,0.008424160070717335,0.008668755181133747
1768576269969094400,1.986094482421875,-0.0003547127125784755,0.008991946466267109,0.013484016992151737
1768576269979094500,1.996094482421875,-0.002146824263036251,0.0070541854947805405,0.010673822835087776
1768576269989094400,2.006094482421875,-0.0011079249670729041,0.0027798120863735676,0.007472436875104904
1768576269999094500,2.016094482421875,-0.0014083721907809377,-0.0018437821418046951,0.004441849887371063
1768576270009094400,2.026094482421875,-0.003470457624644041,-0.002510105026885867,0.004747580736875534
1768576270019093500,2.036093505859375,-0.005261586979031563,0.0008040573447942734,0.004072938114404678
1768576270029093400,2.04609326171875,-0.004431213717907667,0.0024181995540857315,0.007159009110182524
1768576270039093800,2.05609375,-0.005098222754895687,0.001929369755089283,0.009778963401913643
1768576270049093600,2.06609375,-0.0020148151088505983,0.0025512180291116238,0.012451977469027042
1768576270059093800,2.07609375,-0.0005127370823174715,0.002227773889899254,0.011238029226660728
1768576270069092900,2.0860927734375,0.00004652678035199642,0.0005755489692091942,0.011126176454126835
1768576270079092700,2.0960927734375,-0.0005278181051835418,0.0013441466726362705,0.011936720460653305
1768576270089092600,2.106092529296875,-0.00002581230364739895,-0.0033147872891277075,0.01040673442184925
1768576270099092700,2.1160927734375,-0.0029072400648146868,-0.0035359691828489304,0.010349944233894348
1768576270109092600,2.126092529296875,-0.005702760070562363,-0.0026597892865538597,0.010112922638654709
1768576270119091700,2.136091796875,-0.005480891093611717,-0.0011130606289952993,0.007699684239923954
1768576270129091800,2.146091796875,-0.0040140217170119286,-0.006141907535493374,0.011123443953692913
1768576270139091700,2.156091796875,-0.003445198992267251,-0.0031745783053338528,0.00894645880907774
1768576270149091800,2.166091796875,0.0002869550371542573,0.0007775528356432915,0.008546984754502773
1768576270159091700,2.176091796875,0.0018772121984511614,-0.0006780363619327545,0.007830099202692509
1768576270169090800,2.1860908203125,0.0022814800031483173,-0.006723944563418627,0.004626050125807524
1768576270179090700,2.196090576171875,0.0004281165311113,-0.005318040959537029,-0.000305837020277977
1768576270189090800,2.2060908203125,-0.0037325401790440083,-0.0009882738813757896,-0.004243054427206516
1768576270199090700,2.216090576171875,-0.0005854269256815314,0.0016526468098163605,-0.009531373158097267
1768576270209090800,2.2260908203125,0.0005615964764729142,0.0038321781903505325,-0.007583003956824541
1768576270219089700,2.236089599609375,0.0013289095368236303,0.0036677904427051544,-0.0067478688433766365
1768576270229089800,2.24608984375,0.004713787231594324,0.00024056807160377502,-0.005370215512812138
1768576270239089700,2.256089599609375,0.002884462010115385,-0.001782901817932725,-0.003182428888976574
1768576270249089800,2.26608984375,0.0027537005953490734,-0.0019280440174043179,-0.002599462866783142
1768576270259089700,2.276089599609375,0.001503711217083037,0.0033077411353588104,-0.004351146053522825
1768576270269088800,2.2860888671875,-0.0015906156040728092,0.004633196629583836,-0.005832929629832506
1768576270279088600,2.296088623046875,-0.0014263829216361046,0.003668171353638172,-0.007633578032255173
1768576270289088800,2.3060888671875,-0.0015632694121450186,0.0031459257006645203,-0.008314015343785286
1768576270299088600,2.316088623046875,-0.000492202234454453,0.004477577283978462,-0.009853556752204895
1768576270309088800,2.3260888671875,0.002265501068904996,0.00258353678509593,-0.010049298405647278
1768576270319087600,2.336087646484375,0.002738240174949169,0.005032012239098549,-0.011681700125336647
1768576270329087700,2.346087646484375,0.00418646726757288,0.0032674013637006283,-0.010056639090180397
1768576270339087600,2.356087646484375,0.0048416610807180405,0.0038817226886749268,-0.01261676661670208
1768576270349087700,2.366087646484375,0.0027920925058424473,0.0031661316752433777,-0.017352133989334106
1768576270359086800,2.3760869140625,0.004785594996064901,0.0022137602791190147,-0.017424311488866806
1768576270369086700,2.386086669921875,0.0031661265529692173,0.0027674315497279167,-0.015857040882110596
1768576270379086800,2.3960869140625,0.0006981890182942152,0.0028186794370412827,-0.01269767340272665
1768576270389086700,2.406086669921875,0.001281421398743987,0.00005724793300032616,-0.014579997397959232
1768576270399086600,2.416086669921875,0.0020437014754861593,0.0010840576142072678,-0.015190308913588524
1768576270409085700,2.426085693359375,0.00007296237163245678,-0.0013647191226482391,-0.011267205700278282
1768576270419085800,2.4360859375,0.0014974027872085571,-0.003164177294820547,-0.008345318958163261
1768576270429085700,2.446085693359375,0.0031799878925085068,-0.0021369962487369776,-0.006117850076407194
1768576270439085800,2.4560859375,0.0005148795899003744,0.002068305853754282,-0.006828951183706522
1768576270449085700,2.466085693359375,0.0008581610163673759,0.004175398498773575,-0.005175660829991102
1768576270459084800,2.476084716796875,-0.001434961217455566,0.007475763559341431,-0.0047027370892465115
1768576270469084700,2.486084716796875,-0.0006770255276933312,0.008029434829950333,-0.004183420445770025
1768576270479084800,2.496084716796875,-0.0008552747312933207,0.005093471147119999,-0.004406364634633064
1768576270489084700,2.506084716796875,-0.0001319601433351636,0.003781331703066826,-0.002557065337896347
1768576270499084800,2.516084716796875,-0.0007696332177147269,0.004654722288250923,-0.0003905198536813259
1768576270509083600,2.526083740234375,-0.00229589082300663,0.0032602911815047264,-0.0012741568498313427
1768576270519083800,2.536083740234375,-0.0018490966176614165,0.0028090565465390682,-0.0015927082858979702
1768576270529083600,2.546083740234375,-0.0026195491664111614,0.00316512119024992,-0.0012704660184681416
1768576270539083800,2.556083740234375,-0.0020437599159777164,0.0025848685763776302,-0.00030079809948801994
1768576270549083600,2.566083740234375,-0.0009790280601009727,0.004281834699213505,-0.000998812261968851
1768576270559082800,2.576082763671875,-0.0012284256517887115,0.002610525581985712,-0.005137578118592501
1768576270569082600,2.58608251953125,-0.002208468969911337,0.0002815909683704376,-0.007008182350546122
1768576270579082800,2.596082763671875,-0.0036814911291003227,0.0016193320043385029,-0.004758726805448532
1768576270589082600,2.60608251953125,-0.003046327270567417,-0.000911736162379384,-0.0006436104886233807
1768576270599082800,2.616082763671875,-0.0022204965353012085,-0.0034590987488627434,0.0011633324902504683
1768576270609081900,2.626081787109375,-0.002603459171950817,-0.002154948655515909,-0.0003488105721771717
1768576270619081700,2.636081787109375,-0.0018309593433514237,-0.0016168849542737007,0.0004340736195445061
1768576270629081600,2.64608154296875,-0.0012706300476565957,-0.0010429737158119678,0.0009597816970199347
1768576270639081700,2.656081787109375,-0.0018009645864367485,-0.0034441566094756126,-0.00058743916451931
1768576270649081600,2.66608154296875,-0.002542654750868678,-0.0036220557522028685,-0.001960298977792263
1768576270659080700,2.676080810546875,-0.00105815171264112,-0.000634525902569294,-0.0025214110501110554
1768576270669080800,2.686080810546875,-0.0028440675232559443,0.00314902700483799,-0.0027126260101795197
1768576270679080700,2.696080810546875,0.000014401390217244625,0.003935402259230614,-0.003597232513129711
1768576270689080800,2.706080810546875,0.0013505092356353998,0.0010253661312162876,-0.004041713662445545
1768576270699080700,2.716080810546875,0.002676819683983922,-0.005718093831092119,-0.0023708781227469444
1768576270709079800,2.726079833984375,0.0010637431405484676,-0.00955251231789589,0.00033409474417567253
1768576270719079700,2.73607958984375,-0.0011437933426350355,-0.011392837390303612,0.0017736235167831182
1768576270729079800,2.746079833984375,-0.004157958552241325,-0.00807666964828968,0.003834910225123167
1768576270739079700,2.75607958984375,-0.0052747344598174095,-0.004968287888914347,0.005696305073797703
1768576270749079800,2.766079833984375,-0.004119987599551678,-0.003502750303596258,0.007743476890027523
1768576270759078700,2.77607861328125,-0.0011861093807965517,-0.008931579068303108,0.006610041484236717
1768576270769078800,2.786078857421875,0.00028928183019161224,-0.007691078819334507,0.010428748093545437
1768576270779078700,2.79607861328125,0.003537763375788927,-0.009341787546873093,0.0139183783903718
1768576270789078800,2.806078857421875,0.0052523063495755196,-0.01335383951663971,0.010766260325908661
1768576270799078700,2.81607861328125,0.003690432757139206,-0.014334369450807571,0.008453864604234695
1768576270809077800,2.826077880859375,-0.00009631598368287086,-0.018459606915712357,0.005889507010579109
1768576270819077600,2.83607763671875,-0.002337829442694783,-0.011474687606096268,0.010522320866584778
1768576270829077800,2.846077880859375,-0.003454759018495679,-0.013551419600844383,0.009206718765199184
1768576270839077600,2.85607763671875,-0.004066822584718466,-0.010469590313732624,0.009966273792088032
1768576270849077800,2.866077880859375,-0.00446656346321106,-0.004909974988549948,0.008102061226963997
1768576270859076900,2.876076904296875,-0.001103018643334508,-0.0038486700505018234,0.009834596887230873
1768576270869076700,2.88607666015625,-0.00018449453637003899,-0.0036920763086527586,0.010731816291809082
1768576270879076600,2.89607666015625,0.0013502006186172366,-0.0013845418579876423,0.0071900393813848495
1768576270889076700,2.90607666015625,-0.00030628556851297617,-0.002561659086495638,0.0061676520854234695
1768576270899076600,2.91607666015625,-0.000490001286379993,-0.0025901412591338158,0.005338472314178944
1768576270909075700,2.92607568359375,-0.00020051572937518358,-0.0009781299158930779,-0.0008270121179521084
1768576270919075800,2.936075927734375,-0.0009257789934054017,0.0018254858441650867,-0.004171761218458414
1768576270929075700,2.94607568359375,0.00041565520223230124,0.00447426550090313,-0.004182946402579546
1768576270939075600,2.95607568359375,0.0024411301128566265,0.007997452281415462,-0.0033799498341977596
1768576270949075700,2.96607568359375,-0.0015608021058142185,0.005658397451043129,-0.0044039348140358925
1768576270959074800,2.97607470703125,-0.0038153501227498055,0.00802610907703638,-0.004555118270218372
1768576270969074700,2.98607470703125,-0.0029575456865131855,0.008927056565880775,-0.002747897058725357
1768576270979074800,2.99607470703125,-0.005272352136671543,0.007356439717113972,0.0012490339577198029
1768576270989074700,3.00607470703125,-0.004242241382598877,0.006610222160816193,0.001725207082927227
1768576270999074800,3.01607470703125,-0.004932377953082323,0.0030425256118178368,-0.0019972953014075756
1768576271009073700,3.02607373046875,-0.0028929291293025017,0.0005109244957566261,-0.0008249715901911259
1768576271019073800,3.03607373046875,-0.0023182895965874195,0.0033263727091252804,-0.0006460342556238174
1768576271029073700,3.04607373046875,0.0009840300772339106,0.004706156440079212,-0.0005275234580039978
1768576271039074000,3.056073974609375,0.002071748021990061,0.005945020355284214,-0.002330884337425232
1768576271049074000,3.066073974609375,0.0013361829333007336,0.0023273825645446777,-0.0009660143405199051
1768576271059073000,3.076072998046875,0.0016718825791031122,-0.0004947453271597624,-0.0031782956793904305
1768576271069073000,3.086072998046875,0.0012764031998813152,0.0014389757998287678,-0.0011247321963310242
1768576271079073000,3.096072998046875,0.0009920336306095123,-0.0019007644150406122,-0.0008385223336517811
1768576271089073000,3.106072998046875,0.0006823081057518721,-0.006342384032905102,-0.0023179082199931145
1768576271099073000,3.116072998046875,-0.0021962744649499655,-0.004140250850468874,-0.003928736783564091
1768576271109072000,3.12607177734375,-0.0021709746215492487,-0.0029578073881566525,-0.004986810497939587
1768576271119072000,3.136072021484375,-0.003506900742650032,-0.0042788307182490826,-0.002746064681559801
1768576271129071900,3.14607177734375,-0.0026067523285746574,-0.0029656263068318367,-0.003960466478019953
1768576271139072000,3.156072021484375,-0.0029878788627684116,-0.0017632392700761557,-0.0018668537959456444
1768576271149072000,3.16607177734375,-0.00017158605623990297,-0.0008729444816708565,0.004226725082844496
1768576271159071000,3.176071044921875,-0.001269998960196972,-0.00593259371817112,0.00424941536039114
1768576271169070800,3.18607080078125,-0.003371233120560646,-0.010073542594909668,-0.0007559959776699543
1768576271179071000,3.196071044921875,-0.004183539655059576,-0.007135890889912844,-0.00033699022606015205
1768576271189070800,3.20607080078125,-0.0037614284083247185,-0.006473029963672161,-0.00650780089199543
1768576271199071000,3.216071044921875,-0.00307663157582283,-0.008801687508821487,-0.009449917823076248
1768576271209070000,3.226070068359375,-0.003142145462334156,-0.007381157949566841,-0.009240592829883099
1768576271219070000,3.236070068359375,-0.0023398613557219505,-0.002839843975380063,-0.005995745304971933
1768576271229069800,3.24606982421875,-0.0004665941232815385,-0.0008147761691361666,-0.005197861697524786
1768576271239070000,3.256070068359375,-0.0014959053369238973,-0.004774963483214378,-0.0038199899718165398
1768576271249069800,3.26606982421875,-0.0014192064991220832,-0.00379012618213892,-0.0012705456465482712
1768576271259069000,3.27606884765625,-0.0007522244704887271,-0.004757144954055548,-0.007640565745532513
1768576271269069000,3.286069091796875,-0.0002651322865858674,-0.0031738956458866596,-0.00925284344702959
1768576271279069000,3.29606884765625,-0.000596457626670599,-0.0005317383911460638,-0.008936576545238495
1768576271289069000,3.306069091796875,-0.0017735748551785946,0.0011242153123021126,-0.005667813587933779
1768576271299069200,3.316069091796875,-0.0020395126193761826,0.0057507846504449844,-0.0034438716247677803
1768576271309068000,3.326068115234375,-0.003486940637230873,0.005855180323123932,-0.0071555194444954395
1768576271319068000,3.33606787109375,-0.004324210807681084,0.005751016549766064,-0.007281636353582144
1768576271329068000,3.346068115234375,-0.004583336412906647,0.005868728272616863,-0.005449914839118719
1768576271339068000,3.35606787109375,-0.00400683144107461,0.007088144309818745,-0.003240581601858139
1768576271349068300,3.366068359375,-0.004902452230453491,0.005272933281958103,0.0006771946791559458
1768576271359067000,3.37606689453125,-0.007343646138906479,0.008820705115795135,0.006073504686355591
1768576271369067000,3.38606689453125,-0.007305030710995197,0.010224456898868084,0.0064689842984080315
1768576271379067000,3.39606689453125,-0.007641093339771032,0.01529641356319189,0.0012101572938263416
1768576271389067000,3.40606689453125,-0.005838132929056883,0.018669839948415756,0.004290902055799961
1768576271399067100,3.416067138671875,-0.003302061464637518,0.016541577875614166,0.00812273658812046
1768576271409066000,3.42606591796875,-0.001983264461159706,0.01057343278080225,0.007590371184051037
1768576271419065900,3.43606591796875,-0.002857410814613104,0.008936643600463867,0.006907660048455
1768576271429066000,3.44606591796875,-0.003963422030210495,0.0017130859196186066,0.00576436473056674
1768576271439065900,3.45606591796875,-0.005213874392211437,-0.0007631317712366581,0.001991587458178401
1768576271449066200,3.466066162109375,-0.007331086788326502,0.005105676129460335,0.0073394812643527985
1768576271459065000,3.476065185546875,-0.008960900828242302,0.009011881425976753,0.009314436465501785
1768576271469065000,3.48606494140625,-0.012448577210307121,0.006277347914874554,0.009832687675952911
1768576271479064800,3.49606494140625,-0.012133159674704075,0.011526849120855331,0.009608499705791473
1768576271489065000,3.50606494140625,-0.012382431887090206,0.014982832595705986,0.008855890482664108
1768576271499065000,3.516065185546875,-0.010335470549762249,0.01751416176557541,0.01395346224308014
1768576271509064000,3.52606396484375,-0.009535457007586956,0.016648102551698685,0.012761697173118591
1768576271519064000,3.53606396484375,-0.009942583739757538,0.014705040492117405,0.013302831910550594
1768576271529064000,3.54606396484375,-0.008604343980550766,0.02090541273355484,0.011656997725367546
1768576271539063800,3.556063720703125,-0.00828800443559885,0.020707525312900543,0.01295329537242651
1768576271549064200,3.566064208984375,-0.010102681815624237,0.02139834687113762,0.012908820994198322
1768576271559063000,3.57606298828125,-0.009144224226474762,0.022211294621229172,0.012709025293588638
1768576271569063000,3.58606298828125,-0.007240596693009138,0.020243752747774124,0.008498834446072578
1768576271579063000,3.59606298828125,-0.004542659502476454,0.022278282791376114,0.003426642157137394
1768576271589063000,3.60606298828125,-0.00397540582343936,0.0227949358522892,0.003539293771609664
1768576271599063000,3.61606298828125,-0.004090720787644386,0.02026040479540825,0.004013602621853352
1768576271609062000,3.626061767578125,-0.004385266453027725,0.021791189908981323,0.0037677930667996407
1768576271619062000,3.63606201171875,-0.003429641015827656,0.022001206874847412,0.0024027409963309765
1768576271629062000,3.646061767578125,-0.004230187274515629,0.026716068387031555,0.002219781745225191
1768576271639062300,3.656062255859375,-0.005839213728904724,0.030950423330068588,-0.00015632249414920807
1768576271649062100,3.666062255859375,-0.005859453231096268,0.030620191246271133,-0.0017544855363667011
1768576271659061000,3.67606103515625,-0.0030435104854404926,0.027704667299985886,-0.0012957071885466576
1768576271669060900,3.686060791015625,-0.00038354506250470877,0.02731824293732643,-0.00023843208327889442
1768576271679061000,3.69606103515625,-0.0009283013641834259,0.027722422033548355,-0.00025419751182198524
1768576271689061000,3.70606103515625,0.00035747280344367027,0.024479221552610397,-0.001389503013342619
1768576271699061200,3.716061279296875,-0.0019136148039251566,0.021868456155061722,-0.0035906387493014336
1768576271709059800,3.726059814453125,-0.0023274703416973352,0.018817806616425514,-0.006887631490826607
1768576271719060000,3.73606005859375,-0.003409778932109475,0.01824016682803631,-0.006025300361216068
1768576271729059800,3.746059814453125,-0.00015832541976124048,0.018263868987560272,-0.0045512402430176735
1768576271739060200,3.756060302734375,0.0024959479924291372,0.01610516384243965,-0.00558491051197052
1768576271749060000,3.76606005859375,0.0058214375749230385,0.012331732548773289,-0.0011254469864070415
1768576271759059000,3.776058837890625,0.007019019220024347,0.01120753213763237,-0.000730675645172596
1768576271769058800,3.786058837890625,0.008606528863310814,0.004379186779260635,-0.003138173371553421
1768576271779059000,3.796058837890625,0.008357257582247257,0.002284011337906122,-0.005853046663105488
1768576271789059000,3.80605908203125,0.0038163019344210625,0.0031157168559730053,-0.006875433959066868
1768576271799059200,3.81605908203125,0.002468783874064684,0.005915644578635693,-0.009815874509513378
1768576271809058000,3.82605810546875,0.001225620275363326,0.009497329592704773,-0.012285422533750534
1768576271819058000,3.836057861328125,0.0000035247066989541054,0.006468948908150196,-0.011158835142850876
1768576271829058000,3.84605810546875,-0.0010127376299351454,0.0022563603706657887,-0.007584074512124062
1768576271839058200,3.85605810546875,0.00180666649248451,0.0012365411967039108,-0.0083356574177742
1768576271849058000,3.86605810546875,0.0007877410389482975,0.0029513505287468433,-0.008722614496946335
1768576271859057000,3.876056884765625,0.0021569705568253994,-0.0015222833026200533,-0.009716675616800785
1768576271869057000,3.88605712890625,-0.00004652875941246748,-0.00005887635052204132,-0.007548063062131405
1768576271879057000,3.896056884765625,-0.0011558905243873596,-0.001680148532614112,-0.008781751617789268
1768576271889057300,3.906057373046875,-0.0003478873986750841,0.0004706201143562794,-0.003908966202288866
1768576271899057200,3.91605712890625,-0.0006226412951946259,0.0038847532123327255,-0.0016640550456941128
1768576271909056000,3.926055908203125,-0.00024873344227671623,0.00547545962035656,-0.00007494678720831871
1768576271919056000,3.936055908203125,0.002092620125040412,0.00882037915289402,0.00019948231056332588
1768576271929056000,3.946055908203125,0.0021895593963563442,0.005085562355816364,0.002011230681091547
1768576271939056000,3.95605615234375,0.0007845594082027674,0.002064034342765808,0.004625692963600159
1768576271949056300,3.96605615234375,0.0002948041073977947,0.005752245895564556,0.001475705998018384
1768576271959054800,3.976054931640625,-0.0012262671953067183,0.0022584199905395508,-0.0008337926119565964
1768576271969055000,3.986054931640625,-0.0015855274396017194,-0.0011056847870349884,0.001603532349690795
1768576271979055000,3.99605517578125,-0.0019124659011140466,-0.00396244740113616,0.0031770719215273857
1768576271989055200,4.00605517578125,-0.003699447028338909,-0.0046125249937176704,0.008679961785674095
1768576271999055000,4.01605517578125,-0.0031007404904812574,-0.004777209367603064,0.010941853746771812
1768576272009054000,4.026053955078125,-0.004138574004173279,-0.0013688956387341022,0.010535720735788345
1768576272019053800,4.0360537109375,-0.004274900536984205,0.0008540758863091469,0.00979552697390318
1768576272029054200,4.04605419921875,-0.003470625728368759,0.0035976646468043327,0.009890069253742695
1768576272039053800,4.0560537109375,-0.0026313085108995438,-0.0002201027236878872,0.012108014896512032
1768576272049054000,4.066053955078125,-0.0031761913560330868,-0.0020717985462397337,0.009979084134101868
1768576272059053000,4.076052978515625,-0.002332502044737339,-0.0015287802089005709,0.008450695313513279
1768576272069053000,4.086052978515625,-0.0010600438108667731,-0.0009753752965480089,0.008109278045594692
1768576272079052800,4.096052734375,-0.0016122011002153158,0.0009712344035506248,0.00947672687470913
1768576272089053000,4.106052978515625,-0.0020604112651199102,0.004874629899859428,0.005081978160887957
1768576272099052800,4.116052734375,0.0015263762325048447,0.007181007415056229,0.0031486982479691505
1768576272109052000,4.126052001953125,0.0025849826633930206,0.006984732113778591,0.0021343003027141094
1768576272119052000,4.136052001953125,0.0007586419815197587,0.0063078878447413445,0.0069851684384047985
1768576272129052000,4.146052001953125,-0.00013618019875138998,-0.004143954254686832,0.009472294710576534
1768576272139052000,4.156052001953125,-0.004110708832740784,-0.005154789425432682,0.010490085929632187
1768576272149052000,4.166052001953125,-0.005985041614621878,-0.006923128385096788,0.005789073649793863
1768576272159051000,4.176051025390625,-0.006853336468338966,-0.007015416398644447,0.0048390720039606094
1768576272169051000,4.18605078125,-0.0061731645837426186,-0.0077935922890901566,0.010190428234636784
1768576272179051000,4.196051025390625,-0.004126604180783033,-0.006112034432590008,0.013442283496260643
1768576272189051000,4.20605078125,-0.0024980814196169376,-0.006086734589189291,0.015621282160282135
1768576272199051000,4.216051025390625,-0.0008689698297530413,-0.006741410121321678,0.011365785263478756
1768576272209049900,4.2260498046875,-0.000672162277624011,-0.010866113938391209,0.011070174165070057
1768576272219050000,4.236050048828125,0.0005376843037083745,-0.010107144713401794,0.008599129505455494
1768576272229049900,4.2460498046875,0.00024180719628930092,-0.009216849692165852,0.006165000144392252
1768576272239050000,4.256050048828125,0.0004190759500488639,-0.010408824309706688,0.007291954010725021
1768576272249049900,4.2660498046875,-0.0009950626408681273,-0.012886895798146725,0.004568072967231274
1768576272259049000,4.276049072265625,0.0006839886773377657,-0.011584855616092682,0.0034253301564604044
1768576272269048800,4.286048828125,0.0015007802285254002,-0.011962492018938065,0.0035305251367390156
1768576272279049000,4.296049072265625,0.0021037773694843054,-0.009461120702326298,0.008136384189128876
1768576272289048800,4.306048828125,0.004912080708891153,-0.012987945228815079,0.0075805820524692535
1768576272299049000,4.316049072265625,0.00640098424628377,-0.013069749809801579,0.004984772764146328
1768576272309048000,4.326048095703125,0.003070168662816286,-0.013632475398480892,0.0030625031795352697
1768576272319048000,4.3360478515625,0.0013459960464388132,-0.011706557124853134,-0.00036116642877459526
1768576272329047800,4.3460478515625,0.0011238884180784225,-0.007617274299263954,-0.0058890897780656815
1768576272339048000,4.3560478515625,0.0012183045037090778,-0.005809429567307234,-0.01011307630687952
1768576272349047800,4.3660478515625,0.004604247398674488,-0.0033041941933333874,-0.013155472464859486
1768576272359047000,4.376046875,0.006284533068537712,-0.005374525208026171,-0.010607216507196426
1768576272369047000,4.386047119140625,0.005559354554861784,-0.007760184817016125,-0.009042343124747276
1768576272379047000,4.396046875,0.0045384252443909645,-0.010258587077260017,-0.005081475712358952
1768576272389046800,4.406046875,0.0007761777960695326,-0.009364563971757889,-0.0034401696175336838
1768576272399047000,4.416046875,-0.0019502132199704647,-0.009713231585919857,-0.0024363133125007153
1768576272409046000,4.4260458984375,-0.0029832536820322275,-0.008706556633114815,0.000023115891963243484
1768576272419046000,4.4360458984375,-0.002219191752374172,-0.007560398429632187,0.001623895252123475
1768576272429046000,4.4460458984375,-0.0024013519287109375,-0.007271978072822094,0.003036435693502426
1768576272439046000,4.4560458984375,0.000013560173101723194,-0.0069761816412210464,0.006246700417250395
1768576272449046000,4.4660458984375,0.002005870919674635,-0.003026447258889675,0.00668372493237257
1768576272459044900,4.476044921875,0.0019191643223166466,-0.0025440228637307882,0.006357690319418907
1768576272469045000,4.486044921875,0.0013721510767936707,-0.004011424724012613,0.006899910047650337
1768576272479044900,4.496044921875,0.001759919454343617,-0.003964637406170368,0.0037279240787029266
1768576272489045000,4.506044921875,0.000021407962776720524,-0.003773422446101904,0.0002556946128606796
1768576272499044900,4.516044921875,0.00044144364073872566,-0.006155956070870161,-0.003746003843843937
1768576272509044000,4.5260439453125,-0.001654464052990079,-0.006673141848295927,-0.00505707785487175
1768576272519043800,4.5360439453125,-0.0004501381190493703,-0.008022019639611244,-0.00375945633277297
1768576272529044000,4.5460439453125,0.00017250888049602509,-0.00908222422003746,-0.0015985672362148762
1768576272539043800,4.5560439453125,-0.0019966219551861286,-0.008206194266676903,-0.00167094636708498
1768576272549044000,4.5660439453125,-0.0020512165501713753,-0.007708982564508915,-0.003947949502617121
1768576272559042800,4.576042724609375,-0.0014753426657989621,-0.006708754226565361,-0.0004234258085489273
1768576272569043000,4.58604296875,-0.002882823348045349,-0.0044679706916213036,0.004547630902379751
1768576272579042800,4.596042724609375,0.0008045881986618042,-0.0036915927194058895,0.004005191847681999
1768576272589043000,4.60604296875,-0.0011075614020228386,-0.0029142159037292004,0.000850144773721695
1768576272599042800,4.616042724609375,-0.0011821428779512644,-0.00497142318636179,0.0029544690623879433
1768576272609042000,4.6260419921875,-0.00006441411096602678,-0.005282747093588114,0.003756613237783313
1768576272619041800,4.636041748046875,-0.002993457019329071,-0.004879222717136145,0.006656965706497431
1768576272629042000,4.6460419921875,-0.00033642107155174017,-0.006033170502632856,0.00844607688486576
1768576272639041800,4.656041748046875,-0.001701375120319426,-0.00465061841532588,0.007470742799341679
1768576272649042000,4.6660419921875,-0.0007040213095024228,-0.005179256200790405,0.006180973723530769
1768576272659041000,4.676041015625,0.00048792455345392227,-0.006491224281489849,0.005208615213632584
1768576272669041000,4.686041015625,0.0010698253754526377,-0.008357301354408264,0.005985725671052933
1768576272679041000,4.696041015625,-0.0022991010919213295,-0.008771653287112713,0.006797873415052891
1768576272689041000,4.706041015625,0.0010330460499972105,-0.007377754896879196,0.0017905975691974163
1768576272699040800,4.716040771484375,0.0014975720550864935,-0.011040421202778816,0.0028025787323713303
1768576272709039900,4.726039794921875,-0.00039540277794003487,-0.01257147267460823,0.006416488438844681
1768576272719040000,4.7360400390625,0.00007636880036443472,-0.010470530018210411,0.00632220646366477
1768576272729040000,4.746039794921875,-0.003371892496943474,-0.008564772084355354,0.005544563289731741
1768576272739040000,4.7560400390625,-0.0012968549272045493,-0.010440446436405182,0.002962751081213355
1768576272749039900,4.766039794921875,0.000031796167604625225,-0.006566345691680908,0.001099603483453393
1768576272759039000,4.7760390625,-0.001127856899984181,-0.0021141325123608112,-0.0033032894134521484
1768576272769038800,4.786038818359375,-0.0018668841803446412,0.0008401121012866497,-0.0033408398739993572
1768576272779039000,4.7960390625,-0.002080917591229081,0.004179278388619423,-0.0018124133348464966
1768576272789038800,4.806038818359375,0.0008408364956267178,0.003102029673755169,-0.0021077576093375683
1768576272799039000,4.8160390625,-0.0014615370891988277,-0.002412024885416031,0.00012452388182282448
1768576272809037800,4.826037841796875,-0.003910313826054335,-0.011211108416318893,0.0010571631137281656
1768576272819038000,4.836037841796875,-0.005642026662826538,-0.009034749120473862,0.0019882102496922016
1768576272829037800,4.846037841796875,-0.007149908225983381,-0.0053167096339166164,0.004550171084702015
1768576272839038000,4.856037841796875,-0.005338846705853939,-0.0022132685407996178,0.005160455591976643
1768576272849037800,4.866037841796875,-0.0038344268687069416,-0.00021243561059236526,0.010580787435173988
1768576272859037000,4.876036865234375,-0.001278101117350161,0.00022291112691164017,0.011372369714081287
1768576272869036800,4.886036865234375,0.0023323465138673782,-0.00046711391769349575,0.011087412014603615
1768576272879037000,4.896036865234375,0.0026393812149763107,-0.000010813586413860321,0.009599966928362846
1768576272889036800,4.906036865234375,0.0038551141042262316,-0.0010521095246076584,0.007304055150598288
1768576272899037000,4.916036865234375,0.00037647830322384834,-0.002687205094844103,0.006429899483919144
1768576272909036000,4.9260361328125,0.00046196579933166504,-0.0034925451036542654,0.004775010980665684
1768576272919036000,4.936035888671875,-0.003500537481158972,-0.004473005421459675,0.002560385037213564
1768576272929035800,4.946035888671875,-0.0040792422369122505,-0.008216877467930317,0.002212842460721731
1768576272939036000,4.956035888671875,-0.0032172463834285736,-0.010492528788745403,-0.0013171564787626266
1768576272949035800,4.966035888671875,-0.0010068226838484406,-0.01228323858231306,-0.0032008104026317596
1768576272959035000,4.976034912109375,0.001176856691017747,-0.009529322385787964,-0.003737326245754957
1768576272969035000,4.986034912109375,0.003373165614902973,-0.00779374036937952,-0.00390403950586915
1768576272979035000,4.996034912109375,0.003547981847077608,-0.008046149276196957,-0.004989389330148697
1768576272989035000,5.006034912109375,0.002395365620031953,-0.00843124184757471,-0.004487383179366589
1768576272999035000,5.016034912109375,0.0011268036905676126,-0.005757971201092005,-0.0055597154423594475
1768576273009034000,5.026033935546875,-0.0014836267801001668,-0.005361692979931831,-0.006881974637508392
1768576273019033900,5.036033935546875,-0.0002660434693098068,-0.0008179231081157923,-0.009281275793910027
1768576273029034000,5.046033935546875,0.0002234454732388258,-0.00038489303551614285,-0.009558244608342648
1768576273039033300,5.056033447265625,0.00293737486936152,-0.006409972440451384,-0.007416359148919582
1768576273049032400,5.066032470703125,0.0002699528122320771,-0.007951676845550537,-0.0018708594143390656
1768576273059032300,5.0760322265625,0.0006366976303979754,-0.004157571587711573,0.0020160935819149017
1768576273069032400,5.086032470703125,-0.0018586843507364392,-0.0047376081347465515,0.0022416634019464254
1768576273079032300,5.0960322265625,-0.0008380063809454441,-0.0036162114702165127,0.0030641593039035797
1768576273089032400,5.106032470703125,-0.0026564127765595913,-0.0005636962596327066,-0.00045041413977742195
1768576273099031600,5.116031494140625,-0.0019170910818502307,0.0028616259805858135,-0.0005214037373661995
1768576273109031400,5.126031494140625,-0.0014467769069597125,0.0026296647265553474,0.005084816366434097
1768576273119031600,5.136031494140625,-0.0005734983133152127,0.002598471473902464,0.006140344776213169
1768576273129031400,5.146031494140625,0.0022917967289686203,0.0036648008972406387,0.005476684775203466
1768576273139031300,5.15603125,0.0023980429396033287,0.004064692184329033,0.004666758701205254
1768576273149031400,5.166031494140625,0.0026616957038640976,0.0007525188848376274,0.0003769388422369957
1768576273159030500,5.176030517578125,0.0034120199270546436,-0.001871167914941907,-0.0021337345242500305
1768576273169030400,5.186030517578125,0.0013717722613364458,-0.005642204079777002,-0.0021347999572753906
1768576273179030500,5.196030517578125,0.0004335126141086221,-0.0052695926278829575,-0.003158902283757925
1768576273189030400,5.206030517578125,0.00015148380771279335,-0.0034951281268149614,-0.0019687358289957047
1768576273199029500,5.216029541015625,0.0010873186402022839,-0.0010252471547573805,-0.001990525983273983
1768576273209029400,5.226029296875,0.0006399076664820313,0.00042457785457372665,-0.003538887482136488
1768576273219029500,5.236029541015625,-0.0018792898626998067,0.003995153121650219,-0.0017934362404048443
1768576273229029400,5.246029296875,-0.0006795356748625636,0.002382342703640461,-0.0052622039802372456
1768576273239029500,5.256029541015625,-0.00015176576562225819,0.003298490773886442,-0.0034600207582116127
1768576273249028400,5.2660283203125,0.000026399735361337662,0.005119293928146362,-0.00008899113163352013
1768576273259028500,5.276028564453125,-0.0019638510420918465,0.003035391215234995,0.0014601896982640028
1768576273269028400,5.2860283203125,-0.002598748542368412,0.0015890281647443771,-0.0008469070307910442
1768576273279028500,5.296028564453125,-0.0018007544567808509,0.0007324153557419777,-0.0011098249815404415
1768576273289028400,5.3060283203125,-0.002696641720831394,0.000047449953854084015,-0.0009662806987762451
1768576273299027500,5.31602734375,-0.0008687871741130948,-0.0008565180469304323,-0.0000653853639960289
1768576273309027300,5.32602734375,-0.0008139259880408645,-0.00008766353130340576,-0.0018494371324777603
1768576273319027500,5.33602734375,-0.0009574702708050609,0.00024336762726306915,0.00042996229603886604
1768576273329027300,5.34602734375,0.000033758231438696384,0.00242822477594018,0.0029306707438081503
1768576273339027500,5.35602734375,-0.00000233424361795187,0.005776260048151016,0.00482119619846344
1768576273349026600,5.366026611328125,-0.0030005211010575294,0.006959236226975918,0.002991604618728161
1768576273359026400,5.3760263671875,-0.0002067949390038848,0.003534989897161722,0.0022475433070212603
1768576273369026300,5.3860263671875,-0.0000416790135204792,-0.0019969285931438208,0.00039797788485884666
1768576273379026400,5.3960263671875,0.0011183640453964472,-0.0002034548670053482,0.00006581097841262817
1768576273389026300,5.4060263671875,0.00260147824883461,0.0003659287467598915,-0.0013693664222955704
1768576273399025400,5.416025390625,0.0025907012168318033,-0.0010935247410088778,-0.0014554276131093502
1768576273409025500,5.426025634765625,0.0031206700950860977,-0.0018125784117728472,-0.0038189832121133804
1768576273419025400,5.436025390625,0.0033559103030711412,-0.0010030160192400217,-0.003617249894887209
1768576273429025500,5.446025634765625,0.002758297137916088,0.0010087359696626663,-0.004906752612441778
1768576273439025400,5.456025390625,0.0034271301701664925,0.002720941323786974,-0.004838419146835804
1768576273449024500,5.4660244140625,0.005194404162466526,0.006348432973027229,-0.009194019250571728
1768576273459024400,5.4760244140625,0.005305513273924589,0.007879947312176228,-0.008383119478821754
1768576273469024500,5.4860244140625,0.004000830929726362,0.006378989666700363,-0.007119183894246817
1768576273479024400,5.4960244140625,0.0013150329468771815,0.00027955183759331703,-0.0068651181645691395
1768576273489024500,5.5060244140625,0.0001669442281126976,-0.007941626012325287,-0.006942349951714277
1768576273499023400,5.5160234375,-0.0008067771559581161,-0.0035605058073997498,-0.004239000380039215
1768576273509023500,5.5260234375,-0.002574849408119917,-0.0031937884632498026,-0.0030762646347284317
1768576273519023400,5.5360234375,0.000022166757844388485,-0.007244200445711613,0.0004930268041789532
1768576273529023500,5.5460234375,0.0026901215314865112,-0.007896142080426216,0.002425416372716427
1768576273539023400,5.5560234375,0.002888498827815056,-0.004736266098916531,0.004552898462861776
1768576273549022500,5.5660224609375,0.004115949850529432,-0.003295229747891426,0.003834910225123167
1768576273559022300,5.576022216796875,0.003945942036807537,-0.00025144778192043304,0.0025229407474398613
1768576273569022500,5.5860224609375,0.0018668120028451085,-0.0013481376226991415,0.002439317526295781
1768576273579022300,5.596022216796875,-0.00032121327240020037,-0.001957503380253911,0.0020458188373595476
1768576273589022500,5.6060224609375,-0.00021841516718268394,-0.004878458566963673,0.0014838918577879667
1768576273599021300,5.616021240234375,-0.00046491133980453014,-0.0045156762935221195,0.0025799383874982595
1768576273609021400,5.626021484375,0.000811541685834527,-0.0051031699404120445,0.004363457206636667
1768576273619021300,5.636021240234375,-0.0010093458695337176,-0.0031520328484475613,0.0043923999182879925
1768576273629021400,5.646021484375,0.0009430174832232296,-0.005360592156648636,0.002449624240398407
1768576273639021300,5.656021240234375,0.0005633491091430187,-0.007090837694704533,0.0010862296912819147
1768576273649020400,5.6660205078125,0.002937557175755501,-0.008933478966355324,0.0013024783693253994
1768576273659020500,5.6760205078125,-0.0007291816873475909,-0.0052332268096506596,0.0025404850021004677
1768576273669020400,5.6860205078125,-0.0008170661749318242,-0.0033612907864153385,0.00005389144644141197
1768576273679020300,5.696020263671875,-0.002951337257400155,-0.0011142974253743887,-0.0006948290392756462
1768576273689020400,5.7060205078125,-0.0021936676930636168,0.004477009177207947,0.001180835533887148
1768576273699019500,5.71601953125,-0.0020151943899691105,0.007312357425689697,0.00030887313187122345
1768576273709019400,5.726019287109375,-0.0015539349988102913,0.005320046097040176,-0.0008357535116374493
1768576273719019500,5.73601953125,0.0005247178487479687,0.0032083559781312943,-0.0008672107942402363
1768576273729019400,5.746019287109375,-0.0031376611441373825,0.0009686374105513096,0.0021243179216980934
1768576273739019500,5.75601953125,-0.004950039554387331,0.003106346819549799,0.003046160563826561
1768576273749018400,5.766018310546875,-0.0032304367050528526,0.0008328058756887913,0.0002096276730298996
1768576273759018500,5.7760185546875,-0.00588569138199091,0.0006147981621325016,0.0004233955405652523
1768576273769018400,5.786018310546875,-0.004667028784751892,-0.0017237234860658646,0.0023808188270777464
1768576273779018500,5.7960185546875,-0.0035474090836942196,-0.0015813452191650867,0.0037963581271469593
1768576273789018400,5.806018310546875,-0.0025351415388286114,-0.0013073058798909187,0.004634454846382141
1768576273799017500,5.816017578125,-0.0014170336071401834,0.001428418792784214,0.002511052880436182
1768576273809017300,5.826017333984375,-0.00006068567745387554,0.003291832748800516,0.002531559206545353
1768576273819017500,5.836017578125,0.0011281067272648215,0.0006760614924132824,-0.0005740816704928875
1768576273829017300,5.846017333984375,0.00030492362566292286,0.001779941376298666,-0.003725667018443346
1768576273839017500,5.856017578125,-0.0029196038376539946,0.004566371440887451,-0.001944427378475666
1768576273849016300,5.866016357421875,-0.002323588589206338,0.0037751467898488045,-0.0018229875713586807
1768576273859016400,5.876016357421875,0.0004335688427090645,0.005127849988639355,-0.003740835003554821
1768576273869016300,5.886016357421875,-0.0007073292508721352,0.008218182250857353,-0.003848693333566189
1768576273879016400,5.896016357421875,-0.000540377339348197,0.00840597040951252,-0.0015345234423875809
1768576273889016300,5.906016357421875,0.0006287504220381379,0.007393702864646912,-0.005376133136451244
1768576273899015400,5.916015380859375,0.0009999391622841358,0.00582736823707819,-0.0064935158006846905
1768576273909015300,5.926015380859375,0.0022731963545084,0.0024065375328063965,-0.004785896744579077
1768576273919015400,5.936015380859375,0.0036790233571082354,0.0036540329456329346,-0.004764026962220669
1768576273929015300,5.946015380859375,0.0026861969381570816,0.006105738691985607,-0.006523311138153076
1768576273939015400,5.956015380859375,0.0025462955236434937,0.009189052507281303,-0.004813866689801216
1768576273949014500,5.9660146484375,0.001919387374073267,0.006902994588017464,-0.004034891724586487
1768576273959014400,5.976014404296875,0.003051512409001589,0.005874797701835632,-0.00270010344684124
1768576273969014500,5.9860146484375,0.004525572061538696,0.0046470798552036285,-0.006348900496959686
1768576273979014400,5.996014404296875,0.005725956987589598,0.007833829149603844,-0.004348190501332283
1768576273989014300,6.00601416015625,0.005259903613477945,0.009148098528385162,-0.0023180628195405006
1768576273999013400,6.016013427734375,0.00525928707793355,0.011416152119636536,-0.002729073166847229
1768576274009013500,6.026013427734375,0.005192175507545471,0.009191613644361496,-0.007472695782780647
1768576274019013400,6.036013427734375,0.0063924058340489864,0.011946722865104675,-0.010740895755589008
1768576274029013500,6.046013427734375,0.007569256704300642,0.013621319085359573,-0.010794424451887608
1768576274039013400,6.056013427734375,0.008110187016427517,0.014718889258801937,-0.008793681859970093
1768576274049012500,6.066012451171875,0.007650791667401791,0.019195929169654846,-0.008319639600813389
1768576274059012400,6.076012451171875,0.007960667833685875,0.02381891757249832,-0.012083062902092934
1768576274069012500,6.086012451171875,0.008277051150798798,0.0255529023706913,-0.017280487343668938
1768576274079012400,6.096012451171875,0.011250067502260208,0.028757326304912567,-0.02024548128247261
1768576274089012500,6.106012451171875,0.013506030663847923,0.02883215993642807,-0.024348881095647812
1768576274099011300,6.11601123046875,0.01278373971581459,0.03271150588989258,-0.02981972135603428
1768576274109011500,6.126011474609375,0.014489227905869484,0.03789801523089409,-0.036109842360019684
1768576274119011300,6.13601123046875,0.012020435184240341,0.043540436774492264,-0.039324138313531876
1768576274129011500,6.146011474609375,0.00960548035800457,0.055455151945352554,-0.04236600175499916
1768576274139011300,6.15601123046875,0.00854007713496685,0.06778763234615326,-0.04653177037835121
1768576274149010400,6.166010498046875,0.006457485258579254,0.07684344053268433,-0.053889818489551544
1768576274159010300,6.17601025390625,0.004936595913022757,0.07950694859027863,-0.06443417072296143
1768576274169010400,6.186010498046875,0.005096652079373598,0.08264362812042236,-0.07490837574005127
1768576274179010300,6.19601025390625,0.0012450612848624587,0.08631568402051926,-0.07719305157661438
1768576274189010400,6.206010498046875,-0.002047404646873474,0.0944734737277031,-0.08486960828304291
1768576274199009500,6.216009521484375,-0.0056693172082304955,0.0987660363316536,-0.08853688836097717
1768576274209009400,6.226009521484375,-0.008436341769993305,0.11066983640193939,-0.08336023986339569
1768576274219009300,6.23600927734375,-0.013325583189725876,0.11733032763004303,-0.07773807644844055
1768576274229009400,6.246009521484375,-0.013542629778385162,0.11805098503828049,-0.06694720685482025
1768576274239009300,6.25600927734375,-0.014072009362280369,0.12237109243869781,-0.06627292931079865
1768576274249008400,6.26600830078125,-0.009893244132399559,0.11207903921604156,-0.06931371986865997
1768576274259008500,6.276008544921875,-0.009594734758138657,0.11489410698413849,-0.07293809205293655
1768576274269008400,6.28600830078125,-0.006852743681520224,0.14146260917186737,-0.06563357263803482
1768576274279008500,6.296008544921875,-0.013860668055713177,0.13756456971168518,-0.06355537474155426
1768576274289008400,6.30600830078125,-0.026857692748308182,0.15771564841270447,-0.08243585377931595
1768576274299007500,6.316007568359375,0.0015091077657416463,0.2280157208442688,-0.15167585015296936
1768576274309007400,6.32600732421875,-0.02372674085199833,0.14801569283008575,-0.1720021665096283
1768576274319007500,6.336007568359375,-0.006939280312508345,0.08284700661897659,-0.14688527584075928
1768576274329007400,6.34600732421875,-0.012020058929920197,0.10655233263969421,-0.13357213139533997
1768576274339007500,6.356007568359375,-0.010942629538476467,0.09094318747520447,-0.11417689919471741
1768576274349006300,6.36600634765625,-0.007693572901189327,0.08350817859172821,-0.09035865217447281
1768576274359006500,6.37600634765625,-0.0089180376380682,0.09757405519485474,-0.08873766660690308
1768576274369006300,6.38600634765625,-0.014962080866098404,0.09965531527996063,-0.0927012488245964
1768576274379006500,6.39600634765625,-0.02122465893626213,0.10185807198286057,-0.10313215851783752
1768576274389006300,6.40600634765625,-0.02211841568350792,0.10339232534170151,-0.0912185087800026
1768576274399005400,6.41600537109375,-0.018018001690506935,0.09338963031768799,-0.08133437484502792
1768576274409005300,6.42600537109375,-0.014567609876394272,0.10501831769943237,-0.06991926580667496
1768576274419005400,6.43600537109375,-0.012838896363973618,0.10963910073041916,-0.06341692805290222
1768576274429005300,6.44600537109375,-0.014380067586898804,0.11383464187383652,-0.06706545501947403
1768576274439005400,6.45600537109375,-0.012772304005920887,0.11899596452713013,-0.0663500726222992
1768576274449004300,6.46600439453125,-0.010614078491926193,0.11666516959667206,-0.066111721098423
1768576274459004400,6.47600439453125,-0.010965573601424694,0.13031521439552307,-0.07231836020946503
1768576274469004300,6.48600439453125,-0.01319330744445324,0.13738670945167542,-0.07340679317712784
1768576274479004400,6.49600439453125,-0.014132757671177387,0.1421584188938141,-0.07015566527843475
1768576274489004300,6.50600439453125,-0.0119228670373559,0.1431584358215332,-0.06749357283115387
1768576274499003400,6.51600341796875,-0.00912483874708414,0.14680202305316925,-0.06465736776590347
1768576274509003500,6.52600341796875,-0.016359316185116768,0.14460039138793945,-0.07143618166446686
1768576274519003400,6.53600341796875,-0.01367204636335373,0.1784587800502777,-0.06699002534151077
1768576274529003300,6.546003173828125,-0.01205470785498619,0.18909117579460144,-0.06125384569168091
1768576274539003400,6.55600341796875,-0.011668787337839603,0.20992106199264526,-0.05698521062731743
1768576274549002500,6.56600244140625,-0.010587011463940144,0.2150322049856186,-0.051729995757341385
1768576274559002400,6.57600244140625,-0.009620830416679382,0.20993240177631378,-0.05931180715560913
1768576274569002500,6.58600244140625,-0.007053011562675238,0.21293377876281738,-0.07446838915348053
1768576274579002400,6.59600244140625,-0.0003275345079600811,0.22612464427947998,-0.07232936471700668
1768576274589002500,6.60600244140625,0.007253419607877731,0.23972833156585693,-0.06905633956193924
1768576274599001300,6.61600146484375,0.016740594059228897,0.24633218348026276,-0.06132623180747032
1768576274609001500,6.62600146484375,0.024145780131220818,0.25951141119003296,-0.05621695518493652
1768576274619001300,6.63600146484375,0.0320894829928875,0.27246150374412537,-0.05295925959944725
1768576274629001500,6.64600146484375,0.039171893149614334,0.2804725468158722,-0.05289454385638237
1768576274639001300,6.65600146484375,0.04386448115110397,0.28967323899269104,-0.0512259304523468
1768576274649000400,6.66600048828125,0.04568981006741524,0.2804722785949707,-0.04259489104151726
1768576274659000300,6.676000244140625,0.051622889935970306,0.27026262879371643,-0.030741121619939804
1768576274669000400,6.68600048828125,0.06047949567437172,0.27781882882118225,-0.023458976298570633
1768576274679000300,6.696000244140625,0.06256052106618881,0.2754853367805481,-0.021509425714612007
1768576274689000400,6.70600048828125,0.06228568032383919,0.261749804019928,-0.02699074149131775
1768576274698999300,6.715999267578125,0.05734934285283089,0.24646878242492676,-0.03867713361978531
1768576274708999400,6.72599951171875,0.0660291239619255,0.254066526889801,-0.04491797834634781
1768576274718999300,6.735999267578125,0.06976278871297836,0.2638879120349884,-0.05447264015674591
1768576274728999400,6.74599951171875,0.06370143592357635,0.2803768813610077,-0.04990292340517044
1768576274738999300,6.755999267578125,0.06452823430299759,0.28938814997673035,-0.05355773866176605
1768576274748998400,6.765998291015625,0.07169320434331894,0.2897780239582062,-0.064339280128479
1768576274758998300,6.775998291015625,0.07468460500240326,0.28208789229393005,-0.07320786267518997
1768576274768998400,6.785998291015625,0.07658157497644424,0.26105797290802,-0.09506868571043015
1768576274778998300,6.795998291015625,0.09049920737743378,0.2317015528678894,-0.12912407517433167
1768576274788998400,6.805998291015625,0.10823719203472137,0.209354966878891,-0.16447195410728455
1768576274798997500,6.81599755859375,0.11982441693544388,0.19755621254444122,-0.19336584210395813
1768576274808997400,6.825997314453125,0.1228492334485054,0.1723768264055252,-0.21744561195373535
1768576274818997500,6.83599755859375,0.1316857635974884,0.15307855606079102,-0.23777468502521515
1768576274828997400,6.845997314453125,0.12378869205713272,0.1579180657863617,-0.24818657338619232
1768576274838997200,6.855997314453125,0.11735951900482178,0.1674128770828247,-0.2658672630786896
1768576274848996400,6.865996337890625,0.10119573026895523,0.1975364238023758,-0.2828800678253174
1768576274858996500,6.87599658203125,0.10088945180177689,0.16489925980567932,-0.2525584399700165
1768576274868996400,6.885996337890625,0.10961209982633591,0.14109086990356445,-0.19984090328216553
1768576274878996500,6.89599658203125,0.094657763838768,0.12606890499591827,-0.17854580283164978
1768576274888996400,6.905996337890625,0.09476375579833984,0.10826380550861359,-0.1939822882413864
1768576274898995500,6.915995361328125,0.10272718220949173,0.07092437148094177,-0.21299609541893005
1768576274908995300,6.925995361328125,0.11681743711233139,0.08618002384901047,-0.1987319439649582
1768576274918995500,6.935995361328125,0.11154255270957947,0.10326334834098816,-0.1946631669998169
1768576274928995300,6.945995361328125,0.131414532661438,0.1218426302075386,-0.19971863925457
1768576274938995500,6.955995361328125,0.1321525275707245,0.13097025454044342,-0.20944124460220337
1768576274948994300,6.965994384765625,0.1324598491191864,0.09776248782873154,-0.21205459535121918
1768576274958994400,6.975994384765625,0.15117698907852173,0.04124765843153,-0.2061389982700348
1768576274968994300,6.985994384765625,0.15017618238925934,0.014005381613969803,-0.18812377750873566
1768576274978994400,6.995994384765625,0.14934363961219788,0.03188354894518852,-0.19554822146892548
1768576274988994300,7.005994384765625,0.15501005947589874,0.0463130883872509,-0.1975671648979187
1768576274998993400,7.015993408203125,0.13875740766525269,0.055691689252853394,-0.19719363749027252
1768576275008993300,7.0259931640625,0.13216634094715118,0.08552175760269165,-0.21825551986694336
1768576275018993400,7.035993408203125,0.11685499548912048,0.10209985077381134,-0.23246125876903534
1768576275028993300,7.0459931640625,0.07089762389659882,0.1651776134967804,-0.29835665225982666
1768576275038993400,7.055993408203125,0.04568380117416382,0.14908930659294128,-0.3133753836154938
1768576275048992300,7.0659921875,0.03702905774116516,0.12984636425971985,-0.29815781116485596
1768576275058992000,7.0759921875,0.02494552731513977,0.15483690798282623,-0.2585684657096863
1768576275068992300,7.0859921875,0.020928682759404182,0.17457331717014313,-0.26299649477005005
1768576275078992100,7.0959921875,0.03343719616532326,0.14396652579307556,-0.24121405184268951
1768576275088992000,7.105991943359375,0.04261045530438423,0.14347702264785767,-0.21634837985038757
1768576275098991000,7.1159912109375,0.05636845901608467,0.13891489803791046,-0.21629838645458221
1768576275108991200,7.1259912109375,0.05658816918730736,0.1156385987997055,-0.22672972083091736
1768576275118991000,7.1359912109375,0.04762087017297745,0.10387935489416122,-0.22091887891292572
1768576275128991200,7.1459912109375,0.04184846952557564,0.07957055419683456,-0.2036096602678299
1768576275138991000,7.1559912109375,0.04639503359794617,0.06295893341302872,-0.16095320880413055
1768576275148990200,7.165990234375,0.04238777607679367,0.02603740245103836,-0.10905752331018448
1768576275158990000,7.175989990234375,0.046442508697509766,0.04680824279785156,-0.08494924008846283
1768576275168990200,7.185990234375,0.06298313289880753,0.05949980020523071,-0.046456702053546906
1768576275178990000,7.195989990234375,0.08524470776319504,0.08406966179609299,-0.00012192968279123306
1768576275188990200,7.205990234375,0.10025561600923538,0.0891331285238266,0.035395849496126175
1768576275198989000,7.215989013671875,0.08465326577425003,0.08843466639518738,0.043053414672613144
1768576275208989200,7.2259892578125,0.05541494861245155,0.06461268663406372,0.02020961605012417
1768576275218989000,7.235989013671875,0.056165192276239395,0.010093752294778824,-0.03737766295671463
1768576275228989200,7.2459892578125,0.061874743551015854,-0.01965082809329033,-0.09198284894227982
1768576275238989000,7.255989013671875,0.09747906029224396,-0.013708431273698807,-0.12346631288528442
1768576275248988200,7.26598828125,0.10370446741580963,-0.009902507066726685,-0.1239403635263443
1768576275258988000,7.275988037109375,0.12498734146356583,-0.013126011937856674,-0.0749918520450592
1768576275268988200,7.28598828125,0.12798258662223816,-0.04067428410053253,-0.026268785819411278
1768576275278988000,7.295988037109375,0.09516645967960358,-0.04769999533891678,0.02478666976094246
1768576275288988200,7.30598828125,0.029030844569206238,-0.10272756218910217,0.04018266871571541
1768576275298987300,7.3159873046875,0.0769881010055542,-0.14907841384410858,0.07820002734661102
1768576275308987100,7.325987060546875,0.09065917134284973,-0.15976488590240479,0.05291171371936798
1768576275318987000,7.335987060546875,0.09996435046195984,-0.13679412007331848,0.006602903828024864
1768576275328987100,7.345987060546875,0.09462311118841171,-0.12317204475402832,-0.05084627494215965
1768576275338986200,7.355986328125,0.07425619661808014,-0.1112317368388176,-0.08514059334993362
1768576275348986000,7.365986083984375,0.05968790873885155,-0.1279420107603073,-0.12964893877506256
1768576275358986200,7.375986328125,0.046518031507730484,-0.15843477845191956,-0.1564691662788391
1768576275368986000,7.385986083984375,0.04059915617108345,-0.17051194608211517,-0.1533961445093155
1768576275378986200,7.395986328125,0.0446653813123703,-0.191719651222229,-0.13005812466144562
1768576275388985000,7.405985107421875,0.037402406334877014,-0.2631578743457794,-0.10107468068599701
1768576275398985200,7.415985107421875,0.04533676430583,-0.3166775703430176,-0.08510476350784302
1768576275408985000,7.425985107421875,0.05080130323767662,-0.32413893938064575,-0.07991373538970947
1768576275418985200,7.435985107421875,0.03821396827697754,-0.3823622763156891,-0.09631279855966568
1768576275428985000,7.445985107421875,0.03191612660884857,-0.4219121038913727,-0.11169042438268661
1768576275438985200,7.455985107421875,0.03342975676059723,-0.41710495948791504,-0.119219109416008
1768576275448984000,7.465984130859375,0.04708085209131241,-0.38968798518180847,-0.1371813416481018
1768576275458984200,7.475984130859375,0.05753593519330025,-0.34842467308044434,-0.16368712484836578
1768576275468984000,7.485984130859375,0.05358859524130821,-0.35885360836982727,-0.1915120929479599
1768576275478984200,7.495984130859375,0.0340038500726223,-0.3903011977672577,-0.20436632633209229
1768576275488983000,7.505983154296875,0.03655595704913139,-0.41445258259773254,-0.20703160762786865
1768576275498983200,7.515983154296875,0.02985810674726963,-0.425658643245697,-0.21958096325397491
1768576275508983000,7.525983154296875,0.03345763683319092,-0.41297826170921326,-0.25897735357284546
1768576275518983200,7.535983154296875,0.032409414649009705,-0.40346166491508484,-0.28184667229652405
1768576275528983000,7.545983154296875,0.005579397547990084,-0.35584592819213867,-0.2917751967906952
1768576275538982100,7.555982177734375,-0.03311963751912117,-0.3149186074733734,-0.28341734409332275
1768576275548982000,7.56598193359375,-0.0717724934220314,-0.3015093207359314,-0.27571922540664673
1768576275558982100,7.575982177734375,-0.08791538327932358,-0.3195992112159729,-0.2833702564239502
1768576275568982000,7.58598193359375,-0.10544191300868988,-0.31878986954689026,-0.2710651159286499
1768576275578982100,7.595982177734375,-0.11073952913284302,-0.3161681294441223,-0.25123435258865356
1768576275588981200,7.605981201171875,-0.10547153651714325,-0.3362504839897156,-0.22610796988010406
1768576275598981000,7.615981201171875,-0.09137049317359924,-0.351691335439682,-0.20733006298542023
1768576275608981200,7.625981201171875,-0.08552059531211853,-0.4241969585418701,-0.18896357715129852
1768576275618981000,7.635981201171875,-0.06403429061174393,-0.46641287207603455,-0.17494845390319824
1768576275628981000,7.64598095703125,-0.04641081765294075,-0.469589501619339,-0.1659078150987625
1768576275638980000,7.65597998046875,-0.03294775262475014,-0.4420500695705414,-0.15530870854854584
1768576275648980200,7.665980224609375,-0.015288333408534527,-0.4337569773197174,-0.12811118364334106
1768576275658980000,7.67597998046875,-0.014073566533625126,-0.44554081559181213,-0.09152010083198547
1768576275668980200,7.685980224609375,-0.0009905222104862332,-0.4589482247829437,-0.06337901204824448
1768576275678980000,7.69597998046875,-0.0025211521424353123,-0.4736308157444,-0.05506477504968643
1768576275688979200,7.705979248046875,0.002749510109424591,-0.4937187731266022,-0.05601552128791809
1768576275698979000,7.71597900390625,-0.01393691822886467,-0.5170000195503235,-0.06470216810703278
1768576275708979200,7.725979248046875,-0.016425110399723053,-0.5320226550102234,-0.0745963454246521
1768576275718979000,7.73597900390625,-0.015726899728178978,-0.5449537038803101,-0.07708349823951721
1768576275728979200,7.745979248046875,-0.020393023267388344,-0.5791699886322021,-0.08117996901273727
1768576275738978000,7.75597802734375,-0.02308424562215805,-0.6177163124084473,-0.08762256801128387
1768576275748978200,7.765978271484375,-0.015893977135419846,-0.6403800845146179,-0.10221189260482788
1768576275758978000,7.77597802734375,-0.008160424418747425,-0.6473450064659119,-0.11159394681453705
1768576275768978200,7.785978271484375,-0.022167585790157318,-0.6490779519081116,-0.11719962954521179
1768576275778978000,7.79597802734375,-0.027629559859633446,-0.6429502367973328,-0.1156148836016655
1768576275788977200,7.80597705078125,-0.0328938327729702,-0.645390510559082,-0.11724980175495148
1768576275798977000,7.81597705078125,-0.04284225031733513,-0.6658817529678345,-0.11841192096471786
1768576275808977200,7.82597705078125,-0.040594011545181274,-0.6911977529525757,-0.1137324795126915
1768576275818977000,7.83597705078125,-0.03869369253516197,-0.7162840962409973,-0.1164507046341896
1768576275828977200,7.84597705078125,-0.04233050346374512,-0.7332391142845154,-0.13506725430488586
1768576275838976300,7.855976318359375,-0.04607057571411133,-0.7313982248306274,-0.1618541181087494
1768576275848976100,7.86597607421875,-0.0577450767159462,-0.7436141967773438,-0.1881142109632492
1768576275858976000,7.87597607421875,-0.06041378527879715,-0.761086106300354,-0.19162599742412567
1768576275868976000,7.88597607421875,-0.05818525329232216,-0.7857909202575684,-0.17593705654144287
1768576275878976000,7.89597607421875,-0.05919623374938965,-0.8198729753494263,-0.16665711998939514
1768576275888975000,7.90597509765625,-0.05651123449206352,-0.8601061701774597,-0.16698363423347473
1768576275898975200,7.915975341796875,-0.0529949925839901,-0.9103275537490845,-0.16654928028583527
1768576275908975000,7.92597509765625,-0.05530954524874687,-0.9646360278129578,-0.16532769799232483
1768576275918975200,7.935975341796875,-0.05712272599339485,-1.0186678171157837,-0.16503670811653137
1768576275928975000,7.94597509765625,-0.059240736067295074,-1.0680636167526245,-0.17073693871498108
1768576275938974200,7.95597412109375,-0.06155872344970703,-1.0960713624954224,-0.17541466653347015
1768576275948974000,7.96597412109375,-0.06774071604013443,-1.1150099039077759,-0.1761944442987442
1768576275958974200,7.97597412109375,-0.07260103523731232,-1.1194300651550293,-0.17697331309318542
1768576275968974000,7.98597412109375,-0.09181254357099533,-1.114682674407959,-0.1781347095966339
1768576275978974200,7.99597412109375,-0.11353453248739243,-1.100744366645813,-0.17696157097816467
1768576275988973000,8.00597314453125,-0.13578976690769196,-1.0898953676223755,-0.17356044054031372
1768576275998973200,8.01597314453125,-0.15352395176887512,-1.0764647722244263,-0.17360861599445343
1768576276008973000,8.02597314453125,-0.16664108633995056,-1.0616346597671509,-0.17852534353733063
1768576276018973200,8.03597314453125,-0.17456190288066864,-1.0365562438964844,-0.1783377230167389
1768576276028973000,8.04597314453125,-0.18162167072296143,-1.0101933479309082,-0.16758227348327637
1768576276038972200,8.05597216796875,-0.18880121409893036,-0.9866844415664673,-0.15160216391086578
1768576276048971800,8.0659716796875,-0.19589188694953918,-0.955104410648346,-0.1332215666770935
1768576276058971600,8.0759716796875,-0.20039503276348114,-0.9051185250282288,-0.10582524538040161
1768576276068971500,8.085971435546876,-0.20446594059467316,-0.8510837554931641,-0.07844715565443039
1768576276078971600,8.0959716796875,-0.20919038355350494,-0.8064824938774109,-0.05815667659044266
1768576276088970800,8.105970703125,-0.22059935331344604,-0.7769190073013306,-0.05426846444606781
1768576276098970600,8.115970703125,-0.2286529541015625,-0.7485738396644592,-0.0632890984416008
1768576276108970800,8.125970703125,-0.2276417464017868,-0.7333965301513672,-0.06716186553239822
1768576276118970600,8.135970703125,-0.22890673577785492,-0.7051849961280823,-0.06850883364677429
1768576276128970500,8.145970458984374,-0.22431091964244843,-0.671209990978241,-0.06512102484703064
1768576276138969600,8.155969482421876,-0.2238379716873169,-0.6275085210800171,-0.04905509203672409
1768576276148969700,8.1659697265625,-0.22167867422103882,-0.585145115852356,-0.03646686300635338
1768576276158969600,8.175969482421875,-0.2177869826555252,-0.534051239490509,-0.033704619854688644
1768576276168969700,8.1859697265625,-0.2119986116886139,-0.4861694872379303,-0.026248034089803696
1768576276178969600,8.195969482421875,-0.2034236490726471,-0.4355655610561371,-0.01854810118675232
1768576276188968700,8.20596875,-0.1939457207918167,-0.4034118950366974,-0.006780923344194889
1768576276198968600,8.215968505859376,-0.1914171576499939,-0.35949987173080444,-0.010553179308772087
1768576276208968700,8.22596875,-0.1835019886493683,-0.33746063709259033,-0.0006065396592020988
1768576276218968600,8.235968505859375,-0.17398673295974731,-0.3061263859272003,0.007909844629466534
1768576276228968700,8.24596875,-0.16248640418052673,-0.2767064571380615,0.01050669327378273
1768576276238967600,8.255967529296875,-0.14714644849300385,-0.24695314466953278,0.00005629425868391991
1768576276248967700,8.2659677734375,-0.13653108477592468,-0.2138063758611679,-0.03662209212779999
1768576276258967600,8.275967529296874,-0.12271619588136673,-0.17857569456100464,-0.0859382376074791
1768576276268967700,8.2859677734375,-0.11541301012039185,-0.1553846150636673,-0.14091546833515167
1768576276278967600,8.295967529296876,-0.1127765104174614,-0.12488819658756256,-0.182662233710289
1768576276288966700,8.305966552734375,-0.11024384200572968,-0.12235686182975769,-0.2185685783624649
1768576276298966500,8.315966552734375,-0.10223506391048431,-0.14252793788909912,-0.21947379410266876
1768576276308966700,8.325966552734375,-0.09788345545530319,-0.14021365344524384,-0.19375590980052948
1768576276318966500,8.335966552734375,-0.08892899751663208,-0.14383308589458466,-0.1620124727487564
1768576276328966700,8.345966552734374,-0.09033142030239105,-0.14957140386104584,-0.1355489045381546
1768576276338965800,8.3559658203125,-0.08917365223169327,-0.18375451862812042,-0.11760763823986053
1768576276348965600,8.365965576171876,-0.09995599091053009,-0.2140895128250122,-0.10758483409881592
1768576276358965800,8.3759658203125,-0.1123393326997757,-0.23295825719833374,-0.10371804982423782
1768576276368965600,8.385965576171875,-0.11955170333385468,-0.24265243113040924,-0.10111720114946365
1768576276378965500,8.395965576171875,-0.12636229395866394,-0.2708485424518585,-0.11211933940649033
1768576276388964600,8.405964599609375,-0.1278267651796341,-0.29711344838142395,-0.11584030836820602
1768576276398964700,8.41596484375,-0.13146241009235382,-0.2920193374156952,-0.11749265342950821
1768576276408964600,8.425964599609374,-0.12410436570644379,-0.2729250192642212,-0.10556036233901978
1768576276418964700,8.43596484375,-0.11500129848718643,-0.26117590069770813,-0.09201749414205551
1768576276428964600,8.445964599609376,-0.09861859679222107,-0.258127361536026,-0.07546035945415497
1768576276438963700,8.455963623046875,-0.08453363180160522,-0.2608804702758789,-0.058576811105012894
1768576276448963600,8.465963623046875,-0.07719928026199341,-0.25651100277900696,-0.04983231797814369
1768576276458963700,8.475963623046875,-0.077448770403862,-0.239974707365036,-0.05108296871185303
1768576276468963600,8.485963623046874,-0.08108105510473251,-0.2293497622013092,-0.05976007878780365
1768576276478963700,8.495963623046874,-0.08428532630205154,-0.22522291541099548,-0.06574594229459763
1768576276488962600,8.505962646484376,-0.0814831480383873,-0.21569785475730896,-0.07646249979734421
1768576276498962700,8.515962646484375,-0.07695373147726059,-0.21119533479213715,-0.08845342695713043
1768576276508962600,8.525962646484375,-0.07415395230054855,-0.20410467684268951,-0.10371892899274826
1768576276518962700,8.535962646484375,-0.06416746228933334,-0.20038850605487823,-0.10647411644458771
1768576276528962600,8.545962646484375,-0.058560438454151154,-0.176199272274971,-0.09680630266666412
1768576276538961700,8.555961669921874,-0.048274386674165726,-0.13836199045181274,-0.08436859399080276
1768576276548961500,8.56596142578125,-0.03975706547498703,-0.11257778853178024,-0.06825380772352219
1768576276558961700,8.575961669921876,-0.0315629243850708,-0.09535621851682663,-0.04469842091202736
1768576276568961500,8.58596142578125,-0.027325034141540527,-0.06619726866483688,-0.02694685384631157
1768576276578961700,8.595961669921875,-0.032672200351953506,-0.03660932183265686,-0.006472498178482056
1768576276588960800,8.605960693359375,-0.03396729379892349,-0.03168141096830368,-0.009459232911467552
1768576276598960600,8.615960693359375,-0.032534584403038025,-0.03994331508874893,-0.01047760434448719
1768576276608960500,8.62596044921875,-0.02534564957022667,-0.03485667705535889,0.00682308804243803
1768576276618960600,8.635960693359374,-0.01041658315807581,-0.01703896000981331,0.031276680529117584
1768576276628959700,8.645959716796876,0.007188242394477129,0.00973006896674633,0.04798455536365509
1768576276638959600,8.655959716796875,0.016199875622987747,0.027784936130046844,0.06592611968517303
1768576276648959700,8.665959716796875,0.016622252762317657,0.027186255902051926,0.08634085208177567
1768576276658959600,8.675959716796875,0.0024886312894523144,0.01798504963517189,0.09565378725528717
1768576276668959700,8.685959716796875,-0.007773060351610184,-0.008520593866705894,0.08023727685213089
1768576276678958600,8.69595849609375,-0.024019435048103333,-0.04087790101766586,0.05195070803165436
1768576276688958700,8.705958740234376,-0.035949867218732834,-0.06156427040696144,0.02886136993765831
1768576276698958600,8.71595849609375,-0.04282243177294731,-0.07459476590156555,0.017852287739515305
1768576276708958700,8.725958740234375,-0.045789193361997604,-0.07608240097761154,0.01927095279097557
1768576276718958600,8.73595849609375,-0.05381014570593834,-0.06310217827558517,0.0314827524125576
1768576276728957700,8.745957763671875,-0.06176847219467163,-0.033192213624715805,0.05265354737639427
1768576276738957600,8.75595751953125,-0.06680241972208023,-0.0073798042722046375,0.06766459345817566
1768576276748957700,8.765957763671874,-0.07693148404359818,-0.0020939623937010765,0.08016201108694077
1768576276758957600,8.77595751953125,-0.087981216609478,0.0013549155555665493,0.07816427201032639
1768576276768957700,8.785957763671876,-0.10058702528476715,-0.010918261483311653,0.08518649637699127
1768576276778956500,8.79595654296875,-0.10419826954603195,-0.037825774401426315,0.08458408713340759
1768576276788956700,8.805956787109375,-0.109060138463974,-0.05766019970178604,0.08558277040719986
1768576276798956500,8.81595654296875,-0.10496032983064651,-0.047695428133010864,0.08069614320993423
1768576276808956700,8.825956787109375,-0.10564422607421875,-0.03851018100976944,0.07904977351427078
1768576276818956500,8.83595654296875,-0.0995255783200264,-0.0365251824259758,0.07354870438575745
1768576276828955600,8.84595556640625,-0.09362906962633133,-0.04394688084721565,0.07121897488832474
1768576276838955500,8.85595556640625,-0.08505205065011978,-0.04720784351229668,0.058225054293870926
1768576276848955600,8.86595556640625,-0.07867617905139923,-0.03855443373322487,0.05230458080768585
1768576276858955500,8.87595556640625,-0.08152152597904205,-0.028581123799085617,0.05042240396142006
1768576276868955600,8.88595556640625,-0.0814533531665802,-0.007870253175497055,0.03916362300515175
1768576276878954800,8.895954833984375,-0.08069921284914017,0.018507778644561768,0.021433072164654732
1768576276888954600,8.90595458984375,-0.07615132629871368,0.048931997269392014,-0.0006953985430300236
1768576276898954800,8.915954833984374,-0.07512800395488739,0.08066518604755402,-0.009323501959443092
1768576276908954600,8.92595458984375,-0.07330001145601273,0.10935648530721664,-0.015718817710876465
1768576276918954500,8.93595458984375,-0.06591685116291046,0.13249199092388153,-0.0299733504652977
1768576276928953600,8.94595361328125,-0.054069507867097855,0.13093218207359314,-0.049749985337257385
1768576276938953700,8.95595361328125,-0.03373213857412338,0.11141369491815567,-0.05517825111746788
1768576276948953600,8.96595361328125,-0.016280710697174072,0.0925302803516388,-0.0470750518143177
1768576276958953700,8.97595361328125,-0.01244584284722805,0.06594432145357132,-0.028774425387382507
1768576276968953600,8.98595361328125,-0.014731100760400295,0.058572955429553986,-0.011987989768385887
1768576276978952700,8.99595263671875,-0.009415837936103344,0.06523163616657257,-0.004797992296516895
1768576276988952600,9.00595263671875,-0.013863849453628063,0.08816411346197128,-0.0015167118981480598
1768576276998952700,9.01595263671875,-0.01624770276248455,0.09125558286905289,0.000004251021891832352
1768576277008952600,9.02595263671875,-0.01501279417425394,0.07741886377334595,-0.002094586379826069
1768576277018952700,9.03595263671875,-0.017247747629880905,0.07532943785190582,0.004769109655171633
1768576277028951600,9.04595166015625,-0.010587979108095169,0.06302191317081451,0.007720691151916981
1768576277038951700,9.05595166015625,-0.005913921166211367,0.05041031911969185,0.014503794722259045
1768576277048952600,9.06595263671875,-0.006589032709598541,0.04453778266906738,0.01889561302959919
1768576277058952400,9.075952392578126,-0.003075930755585432,0.05065204203128815,0.011773735284805298
1768576277068952600,9.08595263671875,-0.0029789917171001434,0.04963391274213791,0.007438907399773598
1768576277078951700,9.09595166015625,-0.004117310978472233,0.05045327544212341,0.011104444041848183
1768576277088951600,9.10595166015625,-0.0068193539045751095,0.04670247808098793,0.015864312648773193
1768576277098951700,9.11595166015625,-0.006673174910247326,0.04029781371355057,0.02139127254486084
1768576277108951600,9.12595166015625,-0.006142939440906048,0.030774882063269615,0.028803914785385132
1768576277118951700,9.13595166015625,-0.009356182999908924,0.015149290673434734,0.024901580065488815
1768576277128950500,9.145950439453125,-0.006346811540424824,0.006551009602844715,0.026692822575569153
1768576277138950700,9.15595068359375,-0.008566737174987793,0.004036346450448036,0.03445229306817055
1768576277148950500,9.165950439453125,-0.008809617720544338,-0.0009725268464535475,0.03970937430858612
1768576277158950700,9.17595068359375,-0.0065726893953979015,0.007606937550008297,0.04609036073088646
1768576277168950500,9.185950439453125,-0.006178008858114481,0.02149612084031105,0.04019012674689293
1768576277178949600,9.19594970703125,-0.003949770238250494,0.03359702602028847,0.03514811024069786
1768576277188949500,9.205949462890626,-0.003183312714099884,0.044229164719581604,0.03435422480106354
1768576277198949600,9.21594970703125,-0.0029920144006609917,0.048617683351039886,0.028871659189462662
1768576277208949500,9.225949462890625,-0.0018037117552012205,0.0558425709605217,0.026421286165714264
1768576277218949600,9.23594970703125,-0.00554361566901207,0.06046845018863678,0.02954980358481407
1768576277228948500,9.245948486328125,-0.0053353565745055676,0.05447714030742645,0.025906596332788467
1768576277238948600,9.255948486328125,-0.008535228669643402,0.04628569260239601,0.018260890617966652
1768576277248948500,9.265948486328124,-0.008823382668197155,0.025382010266184807,0.007083071395754814
1768576277258948600,9.275948486328126,-0.009636474773287773,0.01503719761967659,0.005076481029391289
1768576277268947700,9.28594775390625,-0.010442347265779972,0.013925859704613686,0.006871984340250492
1768576277278947600,9.295947509765625,-0.01185830682516098,0.02078118361532688,0.006527280900627375
1768576277288947500,9.305947509765625,-0.016162775456905365,0.02973579429090023,0.009172865189611912
1768576277298947600,9.315947509765625,-0.020705679431557655,0.04561879485845566,0.01782890036702156
1768576277308947500,9.325947509765625,-0.02832072228193283,0.05633562058210373,0.024777885526418686
1768576277318946600,9.335946533203124,-0.033213648945093155,0.06232987344264984,0.03134804591536522
1768576277328946700,9.34594677734375,-0.036590803414583206,0.07245174795389175,0.033726248890161514
1768576277338946600,9.355946533203126,-0.0362427681684494,0.09097422659397125,0.037392981350421906
1768576277348946700,9.36594677734375,-0.03141419216990471,0.09370502829551697,0.03831683099269867
1768576277358946600,9.375946533203125,-0.02473069727420807,0.0890873372554779,0.037923067808151245
1768576277368945700,9.385945556640625,-0.018432853743433952,0.08381533622741699,0.04777782782912254
1768576277378945500,9.395945556640624,-0.011208145879209042,0.0843384861946106,0.05490102618932724
1768576277388945700,9.405945556640624,-0.009016630239784718,0.08502823859453201,0.058708809316158295
1768576277398945500,9.415945556640626,-0.008467696607112885,0.09753970056772232,0.06614352762699127
1768576277408945700,9.425945556640626,-0.00946718081831932,0.10011550784111023,0.06694567203521729
1768576277418944500,9.435944580078125,-0.0086464649066329,0.09312466531991959,0.05686291679739952
1768576277428944600,9.445944580078125,-0.010749297216534615,0.09216193109750748,0.04326668009161949
1768576277438944500,9.455944580078125,-0.009031963534653187,0.08611014485359192,0.02013126015663147
1768576277448944600,9.465944580078125,-0.009243418462574482,0.07440688461065292,-0.003452627919614315
1768576277458944500,9.475944580078124,-0.006968112196773291,0.06002553924918175,-0.01195757556706667
1768576277468943600,9.485943603515626,-0.0035792398266494274,0.04595179483294487,-0.012212707661092281
1768576277478943500,9.495943603515625,-0.003173023695126176,0.03577335178852081,-0.007534513249993324
1768576277488943600,9.505943603515625,-0.0035746286157518625,0.03112667053937912,-0.0024798340164124966
1768576277498943500,9.515943603515625,-0.006881027016788721,0.025690730661153793,-0.00350869819521904
1768576277508943600,9.525943603515625,-0.009066684171557426,0.015960071235895157,-0.00179388839751482
1768576277518942700,9.535942626953124,-0.008750075474381447,0.010372480377554893,0.00110589899122715
1768576277528942600,9.545942626953124,-0.011272089555859566,0.009053416550159454,0.00252802693285048
1768576277538942500,9.5559423828125,-0.01107187569141388,0.013386383652687073,0.0049948981031775475
1768576277548942600,9.565942626953126,-0.012483084574341774,0.020398752763867378,0.007676168344914913
1768576277558942500,9.5759423828125,-0.0124095119535923,0.024145398288965225,0.006892207078635693
1768576277568941600,9.585941650390625,-0.010328784584999084,0.031786274164915085,0.009413953870534897
1768576277578941700,9.595941650390625,-0.007494451943784952,0.03583556413650513,0.011282403022050858
1768576277588941600,9.605941650390625,-0.0028730682097375393,0.041780807077884674,0.011522885411977768
1768576277598941400,9.61594140625,-0.0006052195094525814,0.045685723423957825,0.011264367029070854
1768576277608941600,9.625941650390626,0.001407064963132143,0.04637441411614418,0.013480650261044502
1768576277618940700,9.635940673828125,0.0034874859265983105,0.044513653963804245,0.008541157469153404
1768576277628940500,9.6459404296875,0.005441447254270315,0.03917507827281952,0.007109975442290306
1768576277638940700,9.655940673828125,0.006259794346988201,0.042988646775484085,0.0034793782979249954
1768576277648940500,9.6659404296875,0.011599431745707989,0.03993426635861397,-0.0005803443491458893
1768576277658940700,9.675940673828125,0.015433203428983688,0.04201899468898773,0.00010424526408314705
1768576277668939500,9.685939453125,0.01718183606863022,0.04622812196612358,-0.00007045827805995941
1768576277678939600,9.695939697265626,0.017526494339108467,0.047206513583660126,0.003365900833159685
1768576277688939500,9.705939453125,0.02024105377495289,0.04048895835876465,0.0003669154830276966
1768576277698939600,9.715939697265625,0.015431917272508144,0.028250930830836296,-0.0038233022205531597
1768576277708939500,9.725939453125,0.01712382398545742,0.022632993757724762,-0.0065850005485117435
1768576277718938600,9.735938720703125,0.016669459640979767,0.02528453804552555,-0.00883251242339611
1768576277728938500,9.7459384765625,0.015304590575397015,0.018384553492069244,-0.008903885260224342
1768576277738938600,9.755938720703124,0.013703666627407074,0.0033661797642707825,-0.008270728401839733
1768576277748938500,9.7659384765625,0.011138776317238808,-0.015265561640262604,-0.012632986530661583
1768576277758938600,9.775938720703126,0.012395044788718224,-0.03661539405584335,-0.014408281072974205
1768576277768937500,9.7859375,0.01137718465179205,-0.05017887428402901,-0.019207030534744263
1768576277778937600,9.7959375,0.00844545103609562,-0.049149271100759506,-0.02326568402349949
1768576277788937500,9.8059375,0.009634817950427532,-0.04580140858888626,-0.023900581523776054
1768576277798937600,9.8159375,0.011100215837359428,-0.03702179342508316,-0.02666148543357849
1768576277808936700,9.825936767578124,0.010851743631064892,-0.040545154362916946,-0.0242430679500103
1768576277818936600,9.8359365234375,0.010993996635079384,-0.03151063248515129,-0.020009845495224
1768576277828936700,9.845936767578126,0.015043333172798157,-0.02777235396206379,-0.01808810979127884
1768576277838936600,9.8559365234375,0.016219427809119225,-0.033992618322372437,-0.015932904556393623
1768576277848936400,9.8659365234375,0.016817040741443634,-0.03942280262708664,-0.01644689403474331
1768576277858935600,9.875935546875,0.015402566641569138,-0.04730041325092316,-0.012680363841354847
1768576277868935700,9.885935791015624,0.011467213742434978,-0.0427464097738266,-0.006867215968668461
1768576277878935600,9.895935546875,0.007981752045452595,-0.033267855644226074,-0.0027603181079030037
1768576277888935700,9.905935791015626,0.003859444987028837,-0.023347582668066025,0.00219529215246439
1768576277898935600,9.915935546875,0.0019224161515012383,-0.012085133232176304,0.007234637625515461
1768576277908934700,9.9259345703125,0.003165846224874258,0.00031214766204357147,0.006441015750169754
1768576277918934500,9.9359345703125,0.0022590397857129574,0.0029918202199041843,0.001849459484219551
1768576277928934700,9.9459345703125,0.0020095014479011297,0.0039945002645254135,0.0002246648073196411
1768576277938934500,9.9559345703125,0.003172335447743535,0.005335411988198757,0.0005563714075833559
1768576277948934700,9.9659345703125,0.0035371885169297457,0.0007254807278513908,0.0038839911576360464
1768576277958933500,9.97593359375,0.004840722307562828,-0.0028323973529040813,0.0048556942492723465
1768576277968933600,9.98593359375,0.003283571917563677,-0.005573589354753494,0.004019461572170258
1768576277978933500,9.99593359375,0.005113079212605953,-0.0024181706830859184,0.0056990329176187515
1768576277988933600,10.00593359375,0.006507777143269777,-0.0006125476211309433,0.006327805109322071
1768576277998933500,10.01593359375,0.005050676874816418,0.004476059228181839,0.0036200834438204765
1768576278008932600,10.0259326171875,0.0061178058385849,0.005318150855600834,0.00293511850759387
1768576278018932500,10.035932373046874,0.004997399635612965,0.00789783988147974,0.0030935178510844707
1768576278028932600,10.0459326171875,0.004131339490413666,0.00843712966889143,0.003784874454140663
1768576278038932500,10.055932373046875,0.0032236226834356785,0.00612225104123354,0.0034654070623219013
1768576278048931800,10.065931884765625,0.0005644564516842365,0.005058583803474903,0.0018858860712498426
1768576278058931000,10.075930908203125,-0.00009851669892668724,0.006687778979539871,-0.0004690829664468765
1768576278068930800,10.085930908203125,0.0031228428706526756,0.0026283226907253265,-0.0018613836728036404
1768576278078931000,10.095930908203124,0.0047349086962640285,-0.001142582157626748,-0.0048300898633897305
1768576278088930800,10.105930908203124,0.006008964963257313,-0.00801167357712984,-0.00790843740105629
1768576278098931000,10.115930908203126,0.0073761772364377975,-0.011839033104479313,-0.012125738896429539
1768576278108929800,10.1259296875,0.0097421295940876,-0.014057446271181107,-0.017658457159996033
1768576278118930000,10.135929931640625,0.00724017433822155,-0.018173467367887497,-0.022261379286646843
1768576278128929800,10.1459296875,0.004678745754063129,-0.02391897141933441,-0.020717278122901917
1768576278138930000,10.155929931640625,0.0026913685724139214,-0.022974587976932526,-0.021482665091753006
1768576278148929800,10.1659296875,0.00009744975250214338,-0.025782093405723572,-0.011844951659440994
1768576278158929000,10.175928955078126,-0.0027922901790589094,-0.02980007231235504,-0.008279277011752129
1768576278168928800,10.1859287109375,-0.0032538159284740686,-0.024473752826452255,-0.005596408620476723
1768576278178929000,10.195928955078125,-0.002349672606214881,-0.01980842649936676,-0.0073868511244654655
1768576278188928800,10.2059287109375,-0.0014135714154690504,-0.01412018109112978,-0.0074784643948078156
1768576278198929000,10.215928955078125,-0.00005932594649493694,-0.007372298277914524,-0.002713951747864485
1768576278208927700,10.225927734375,-0.00017277663573622704,-0.003140002954751253,0.0036560632288455963
1768576278218927900,10.235927978515624,-0.0023503038100898266,-0.001893552951514721,0.0053733219392597675
1768576278228927700,10.245927734375,-0.0029495148919522762,-0.0038973153568804264,0.005789041519165039
1768576278238928000,10.255927978515626,-0.0008852985920384526,-0.003625939367339015,0.003971434198319912
1768576278248927000,10.265927001953125,-0.0020959717221558094,-0.0024871716741472483,0.0022491677664220333
1768576278258926800,10.2759267578125,-0.0012047936907038093,-0.0012335269711911678,0.0027432218194007874
1768576278268927000,10.285927001953125,-0.0027507590129971504,-0.0031334259547293186,0.004032458178699017
1768576278278926800,10.2959267578125,-0.003880738280713558,-0.0034516737796366215,0.007668738253414631
1768576278288926700,10.3059267578125,-0.001799477613531053,-0.00625624880194664,0.007917477749288082
1768576278298925800,10.31592578125,-0.002433422254398465,-0.008232640102505684,0.007156191393733025
1768576278308926000,10.325926025390626,-0.005815103650093079,-0.00775513518601656,0.010048916563391685
1768576278318925800,10.33592578125,-0.0069534797221422195,-0.006624181289225817,0.013018821366131306
1768576278328926000,10.345926025390625,-0.004583798348903656,-0.006339755840599537,0.016709696501493454
1768576278338925800,10.35592578125,-0.005391016602516174,-0.006435745861381292,0.018005264922976494
1768576278348925000,10.365925048828124,-0.004956921562552452,-0.007771054748445749,0.017636150121688843
1768576278358924800,10.3759248046875,-0.005031952168792486,-0.007527596317231655,0.01311626099050045
1768576278368925000,10.385925048828126,-0.0032782605849206448,-0.005006647668778896,0.009630182757973671
1768576278378924800,10.3959248046875,-0.0017117771785706282,0.0005171964876353741,0.010175436735153198
1768576278388925000,10.405925048828125,0.0016387456562370062,0.001057285349816084,0.010195410810410976
1768576278398923800,10.415923828125,0.003067547455430031,0.0017292499542236328,0.014258607290685177
1768576278408924000,10.425923828125,0.0013556675985455513,-0.002065488137304783,0.012826359830796719
1768576278418923800,10.435923828125,0.0024300427176058292,-0.0059162224642932415,0.01572704315185547
1768576278428924000,10.445923828125,0.0018468104535713792,-0.008102944120764732,0.011869986541569233
1768576278438923800,10.455923828125,0.000007309135980904102,-0.007541745901107788,0.006745297461748123
1768576278448923000,10.4659228515625,0.00042569171637296677,-0.004296684637665749,0.003911960404366255
1768576278458922800,10.4759228515625,0.0028915684670209885,-0.006154841743409634,0.0026764883659780025
1768576278468923000,10.4859228515625,0.006029571406543255,-0.0033606530632823706,0.004755618050694466
1768576278478922800,10.4959228515625,0.006814306601881981,-0.0018985881470143795,0.006910771131515503
1768576278488923000,10.5059228515625,0.008032969199120998,-0.002850934397429228,0.005088369827717543
1768576278498922000,10.515921875,0.010807504877448082,-0.003076107706874609,0.0059591433964669704
1768576278508921900,10.525921875,0.010792591609060764,-0.001392457401379943,0.004262443166226149
1768576278518921700,10.535921630859375,0.00937550887465477,-0.0000020046718418598175,0.0023742979392409325
1768576278528921900,10.545921875,0.008033009245991707,0.0020374441519379616,0.0012464490719139576
1768576278538921700,10.555921630859375,0.005778406746685505,0.0034940927289426327,0.0008936510421335697
1768576278548920800,10.5659208984375,0.005584529135376215,0.0018447968177497387,-0.0004147603176534176
1768576278558921000,10.5759208984375,0.006303119473159313,0.00002796761691570282,-0.0016084099188446999
1768576278568920800,10.5859208984375,0.006168363615870476,-0.0023949763271957636,-0.0026843268424272537
1768576278578921000,10.5959208984375,0.004764121025800705,-0.0031203413382172585,-0.0019818758592009544
1768576278588920800,10.6059208984375,0.0067681497894227505,-0.00911325216293335,-0.0007712030783295631
1768576278598920000,10.615919921875,0.007392828352749348,-0.014066741801798344,0.005952868610620499
1768576278608919800,10.625919921875,0.006099064834415913,-0.017118724063038826,0.0039056965615600348
1768576278618920000,10.635919921875,0.004156528040766716,-0.013151045888662338,0.0035743301268666983
1768576278628919800,10.645919921875,0.006083059124648571,-0.010043935850262642,0.004472614265978336
1768576278638920000,10.655919921875,0.006717787589877844,-0.008345361799001694,0.00635374803096056
1768576278648918800,10.665918701171876,0.0063041988760232925,-0.005728006828576326,0.003118273802101612
1768576278658919000,10.6759189453125,0.006632019765675068,-0.004921250976622105,0.0039064642041921616
1768576278668918800,10.685918701171875,0.006916179321706295,-0.004686626605689526,0.0038196449168026447
1768576278678919000,10.6959189453125,0.0072954692877829075,-0.005851763766258955,0.004685453604906797
1768576278688918800,10.705918701171875,0.005829398985952139,-0.005709284450858831,0.0035730511881411076
1768576278698918000,10.71591796875,0.004738778807222843,-0.005340367089956999,0.003569887951016426
1768576278708917800,10.725917724609374,0.0028394123073667288,-0.007234673481434584,0.005556606221944094
1768576278718918000,10.73591796875,0.00150577153544873,-0.007825116626918316,0.0037288577295839787
1768576278728917800,10.745917724609376,0.000369400717318058,-0.009652843698859215,0.0017141762655228376
1768576278738916900,10.755916748046875,-0.0007567938882857561,-0.009967966005206108,0.0030164304189383984
1768576278748917000,10.7659169921875,0.0015023656887933612,-0.008943714201450348,0.006016748026013374
1768576278758916900,10.775916748046875,0.0038867078255861998,-0.00469665601849556,0.0041914754547178745
1768576278768916700,10.785916748046875,0.0037663329858332872,-0.0053153084591031075,0.006206689402461052
1768576278778916900,10.795916748046874,0.004018197767436504,-0.003081228118389845,0.0039805262349545956
1768576278788916000,10.805916015625,0.005022475961595774,-0.0013656197115778923,0.0008723512291908264
1768576278798915800,10.815915771484375,0.0027461738791316748,-0.0008081640116870403,0.00022830255329608917
1768576278808916000,10.825916015625,0.0004960690857842565,-0.004250033292919397,-0.0005653193220496178
1768576278818915800,10.835915771484375,0.0018205571686848998,-0.0042887055315077305,-0.0062987422570586205
1768576278828915700,10.845915771484375,0.0026650456711649895,-0.010114369913935661,-0.005969042889773846
1768576278838914800,10.855914794921874,-0.0003924872726202011,-0.00809428095817566,-0.002146698534488678
1768576278848915000,10.8659150390625,-0.0008039458189159632,-0.011498067528009415,0.0013476351741701365
1768576278858914800,10.875914794921876,-0.002594052581116557,-0.011604814790189266,0.006247344892472029
1768576278868915000,10.8859150390625,0.00008908216841518879,-0.013263964094221592,0.007316337898373604
1768576278878914800,10.895914794921875,-0.0016528504202142358,-0.010063362307846546,0.0070307087153196335
1768576278888914000,10.905913818359375,-0.002415579743683338,-0.00795387290418148,0.009041128680109978
1768576278898913800,10.915913818359375,-0.002963083330541849,-0.005755352787673473,0.007954202592372894
1768576278908914000,10.925913818359374,-0.005213987082242966,-0.006374537944793701,0.004994365386664867
1768576278918913800,10.935913818359374,-0.0038604699075222015,-0.01091015711426735,0.0023811492137610912
1768576278928914000,10.945913818359376,-0.003754209727048874,-0.011835073120892048,-0.0016154567711055279
1768576278938912800,10.955912841796875,-0.002659945283085108,-0.012070195749402046,-0.00016175443306565285
1768576278948913000,10.965912841796875,-0.000907318782992661,-0.011616925708949566,-0.00043898914009332657
1768576278958912800,10.975912841796875,-0.0016849476378411055,-0.007947240024805069,-0.001544941682368517
1768576278968913000,10.985912841796875,-0.0014583126176148653,-0.00855257548391819,-0.002584905829280615
1768576278978912800,10.995912841796875,-0.0003900928422808647,-0.0057664779014885426,-0.002662867773324251
1768576278988911900,11.005911865234374,-0.0017970409244298935,-0.004379237070679665,-0.001635153777897358
1768576278998911700,11.015911865234376,-0.0034535108134150505,0.002780852373689413,0.002735999645665288
1768576279008912000,11.025911865234375,-0.0039057154208421707,0.0027518239803612232,0.004348809830844402
1768576279018911700,11.035911865234375,-0.004151133354753256,0.0013024411164224148,0.007633232977241278
1768576279028911900,11.045911865234375,-0.002507430035620928,-0.0014004011172801256,0.007765325717628002
1768576279038911000,11.055910888671875,-0.00195124966558069,-0.004515108652412891,0.009446782059967518
1768576279048912000,11.065911865234375,-0.0030679129995405674,-0.004431485198438168,0.006429953034967184
1768576279058911700,11.075911865234374,-0.0029440061189234257,-0.003532357281073928,0.0012772951740771532
1768576279068911900,11.085911865234374,-0.0017836667830124497,-0.00031419331207871437,0.00019152415916323662
1768576279078911700,11.095911865234376,-0.0014621113659814,0.0015541408210992813,0.000463634729385376
1768576279088910800,11.105910888671875,0.000020736712031066418,0.0013019395992159843,-0.0013079000636935234
1768576279098910700,11.11591064453125,-0.0012152643175795674,0.0014324686489999294,0.0009538063313812017
1768576279108910800,11.125910888671875,-0.0018030240898951888,0.001844992395490408,0.0035261535085737705
1768576279118910700,11.13591064453125,-0.0030143153853714466,-0.0009383719880133867,0.004046762827783823
1768576279128910800,11.145910888671875,-0.003166115377098322,0.0017357082106173038,0.0035202561412006617
1768576279138909700,11.15590966796875,-0.0032500873785465956,0.0001799291931092739,0.00412386329844594
1768576279148909800,11.165909912109376,-0.0009611004497855902,0.0006941854953765869,0.0002841176465153694
1768576279158909700,11.17590966796875,-0.0003499048762023449,-0.00005203252658247948,0.001686538103967905
1768576279168909800,11.185909912109375,-0.00014963524881750345,0.00004384154453873634,0.002564316149801016
1768576279178909700,11.19590966796875,0.00038197380490601063,0.0010908101685345173,0.001132776727899909
1768576279188908800,11.20590869140625,0.0005212571704760194,0.0013624527491629124,0.002494983607903123
1768576279198909000,11.215908935546874,0.0007944271783344448,0.0008667926304042339,-0.001159699633717537
1768576279208908800,11.22590869140625,0.0013204014394432306,0.0027898610569536686,-0.000052889809012413025
1768576279218908700,11.23590869140625,-0.00212525250390172,0.0020104246214032173,-0.0005905497819185257
1768576279228907800,11.24590771484375,-0.0004240252310410142,-0.000043937936425209045,-0.001840903889387846
1768576279238908000,11.255907958984375,0.0010739329736679792,0.003107401542365551,-0.004096580669283867
1768576279248907800,11.26590771484375,-0.0008454072521999478,0.003625919111073017,-0.001836888026446104
1768576279258908000,11.275907958984375,-0.000040697865188121796,0.005530601367354393,0.00027885008603334427
1768576279268907800,11.28590771484375,0.0028128791600465775,0.0077538080513477325,0.0007576863281428814
1768576279278907000,11.295906982421876,-0.0003375143278390169,0.009015589021146297,0.0029023243114352226
1768576279288906800,11.30590673828125,0.0015245679533109069,0.007995864376425743,0.006137266289442778
1768576279298907000,11.315906982421875,0.0005530468188226223,0.009746626950800419,0.003947881516069174
1768576279308906800,11.32590673828125,-0.0004698734264820814,0.008050725795328617,0.004399819765239954
1768576279318907000,11.335906982421875,-0.0022193328477442265,0.00621497817337513,0.002713607158511877
1768576279328905700,11.34590576171875,-0.0004400749458000064,0.006252795457839966,0.001379629597067833
1768576279338905900,11.35590576171875,0.000358369667083025,0.005596889182925224,0.0016684818547219038
1768576279348905700,11.36590576171875,0.0013027265667915344,0.007472819648683071,-0.0005331533029675484
1768576279358905900,11.37590576171875,0.002114485949277878,0.009831812232732773,0.00027416739612817764
1768576279368905700,11.38590576171875,0.0026998487301170826,0.008718345314264297,0.004130424931645393
1768576279378904800,11.39590478515625,0.0046235062181949615,0.0073125921189785,0.0051953429356217384
1768576279388904700,11.40590478515625,0.0035952595062553883,0.006302189081907272,0.005147939082235098
1768576279398904800,11.41590478515625,0.0035309786908328533,0.002857646904885769,0.003501695115119219
1768576279408904700,11.42590478515625,0.002687555504962802,0.0035428781993687153,0.00497096125036478
1768576279418904800,11.43590478515625,0.0021223495714366436,0.005533495917916298,0.0023157529067248106
1768576279428904000,11.445904052734376,0.0024432605132460594,0.005585427395999432,-0.0012411652132868767
1768576279438903800,11.45590380859375,0.004342486150562763,0.00691611785441637,-0.004446599166840315
1768576279448903700,11.465903564453125,0.005218932405114174,0.006908661685883999,-0.0029720072634518147
1768576279458903800,11.47590380859375,0.007328042760491371,0.008779406547546387,0.000835843849927187
1768576279468903700,11.485903564453125,0.008019931614398956,0.008547711186110973,0.0012728685978800058
1768576279478902800,11.49590283203125,0.009962850250303745,0.004534950479865074,0.0029869331046938896
1768576279488903000,11.50590283203125,0.012327470816671848,0.007183464244008064,0.0017046211287379265
1768576279498902800,11.51590283203125,0.01137808058410883,0.009951318614184856,0.000480263726785779
1768576279508903000,11.52590283203125,0.011062229983508587,0.007178701460361481,0.000626471359282732
1768576279518902800,11.53590283203125,0.007612456101924181,0.007512490265071392,0.0019165449775755405
1768576279528902000,11.54590185546875,0.005016406998038292,0.01029948890209198,0.002192448591813445
1768576279538901800,11.55590185546875,0.0035239290446043015,0.00983149092644453,0.001050575403496623
1768576279548902000,11.56590185546875,0.0034048857633024454,0.009508183225989342,0.000913688912987709
1768576279558901800,11.57590185546875,0.0010428153909742832,0.01243513822555542,0.0019350748043507338
1768576279568902000,11.58590185546875,0.003315024310722947,0.01634811982512474,0.00010468438267707825
1768576279578900700,11.595900634765625,0.003698856569826603,0.017026472836732864,-0.0004409709945321083
1768576279588900900,11.60590087890625,0.005285035353153944,0.018998542800545692,0.003862164681777358
1768576279598900700,11.615900634765625,0.004874809645116329,0.02130802720785141,0.005397599656134844
1768576279608900900,11.62590087890625,0.0028412197716534138,0.018638474866747856,0.006329705938696861
1768576279618899700,11.635899658203124,0.004197890870273113,0.019099928438663483,0.006296384613960981
1768576279628899800,11.64589990234375,0.0006111453985795379,0.01715315878391266,0.005443107802420855
1768576279638899700,11.655899658203126,0.0004565423587337136,0.013646016828715801,0.004724049475044012
1768576279648899800,11.66589990234375,-0.0017490875907242298,0.011491785757243633,0.0051299151964485645
1768576279658899700,11.675899658203125,-0.0017834424506872892,0.010313869453966618,0.008623715490102768
1768576279668898800,11.68589892578125,-0.002276659943163395,0.009949016384780407,0.012525513768196106
1768576279678898700,11.695898681640625,-0.002550699282437563,0.011749579571187496,0.014014487154781818
1768576279688898800,11.70589892578125,-0.002154420828446746,0.010880590416491032,0.014631275087594986
1768576279698898700,11.715898681640626,-0.0033472927752882242,0.011320730671286583,0.01638771966099739
1768576279708898800,11.72589892578125,-0.0039861854165792465,0.012908508069813251,0.017481213435530663
1768576279718898000,11.73589794921875,-0.003658083500340581,0.013179351575672626,0.019076179713010788
1768576279728897800,11.745897705078125,-0.003964879550039768,0.012620086781680584,0.0213241558521986
1768576279738898000,11.75589794921875,-0.0028782538138329983,0.009094523265957832,0.01727079227566719
1768576279748897800,11.765897705078125,-0.0025805127806961536,0.005366098135709763,0.009536439552903175
1768576279758897700,11.775897705078124,-0.001782153034582734,0.004525409080088139,0.003445289796218276
1768576279768896800,11.785896728515626,-0.00020396371837705374,0.007891644723713398,0.001737404614686966
1768576279778897000,11.79589697265625,0.0025484133511781693,0.00901629775762558,0.0029635238461196423
1768576279788896800,11.805896728515625,0.00396628025919199,0.006900149397552013,0.004863955546170473
1768576279798897000,11.81589697265625,0.002769090700894594,0.0035110004246234894,0.007561327889561653
1768576279808896800,11.825896728515625,0.001682787318713963,0.0003058863803744316,0.006704588420689106
1768576279818896000,11.835895751953124,0.001428652205504477,-0.0019322135485708714,0.004109092988073826
