time,seconds_elapsed,z,y,x
1768576268024134400,0.041134521484375,-0.004219246096909046,0.005093029234558344,-0.0112236263230443
1768576268034134300,0.05113427734375,-0.005164668429642916,0.010958908125758171,-0.011291536502540112
1768576268044134700,0.061134765625,-0.006676278542727232,0.010743724182248116,-0.01164440531283617
1768576268054134500,0.071134521484375,-0.004512992687523365,0.014148576185107231,-0.012019910849630833
1768576268064134700,0.081134765625,-0.0021848573815077543,0.017488712444901466,-0.011064635589718819
1768576268074133800,0.0911337890625,-0.0015297196805477142,0.01877129077911377,-0.011507518589496613
1768576268084133600,0.101133544921875,-0.00044767739018425345,0.02009807713329792,-0.01327159721404314
1768576268094133500,0.111133544921875,0.0004546015989035368,0.018151840195059776,-0.014474812895059586
1768576268104133600,0.121133544921875,0.0032591766212135553,0.011559983715415001,-0.011263573542237282
1768576268114133500,0.131133544921875,-0.00031079089967533946,0.006649913266301155,-0.010304835624992847
1768576268124132600,0.141132568359375,-0.00173717993311584,0.00751890242099762,-0.0070619042962789536
1768576268134132700,0.1511328125,0.0019092201255261898,0.0105314701795578,-0.011068630032241344
1768576268144132600,0.161132568359375,0.0020157466642558575,0.01230673398822546,-0.008745288476347923
1768576268154132500,0.171132568359375,0.0017587515758350492,0.013709953054785728,-0.006742591038346291
1768576268164131600,0.181131591796875,0.002323608146980405,0.010012952610850334,-0.0065476479940116405
1768576268174131700,0.191131591796875,0.0005893575726076961,0.006425941362977028,-0.006514891050755978
1768576268184131600,0.201131591796875,-0.00043542683124542236,0.006654174067080021,-0.008556736633181572
1768576268194131700,0.211131591796875,0.0008966863388195634,0.007840612903237343,-0.012017514556646347
1768576268204131600,0.221131591796875,-0.0029465213883668184,0.006520750001072884,-0.015564844943583012
1768576268214130700,0.231130615234375,-0.006458431947976351,-0.006208893842995167,-0.02112765610218048
1768576268224130600,0.241130615234375,-0.003459978848695755,-0.014314756728708744,-0.02273806929588318
1768576268234130700,0.251130615234375,-0.0027885958552360535,-0.012955212965607643,-0.018880214542150497
1768576268244130600,0.261130615234375,0.0015012238873168826,-0.023988423869013786,-0.018551314249634743
1768576268254130700,0.271130615234375,0.0008527441532351077,-0.028981316834688187,-0.013383716344833374
1768576268264129500,0.281129638671875,0.001454618526622653,-0.03196911886334419,-0.010445983149111271
1768576268274129700,0.291129638671875,0.001278849900700152,-0.024524783715605736,-0.01236505713313818
1768576268284129500,0.301129638671875,0.0004593952908180654,-0.02371811307966709,-0.013828463852405548
1768576268294129700,0.311129638671875,-0.0018615495646372437,-0.02027145028114319,-0.01022467389702797
1768576268304129500,0.321129638671875,-0.0015211976133286953,-0.018446119502186775,-0.011174357496201992
1768576268314128600,0.331128662109375,-0.001418932224623859,-0.02021685428917408,-0.018311362713575363
1768576268324128500,0.34112841796875,-0.002127333078533411,-0.01882695034146309,-0.019891949370503426
1768576268334128600,0.351128662109375,-0.0017278589075431228,-0.02208239957690239,-0.01593768782913685
1768576268344128500,0.36112841796875,-0.0006756439688615501,-0.022490927949547768,-0.013392504304647446
1768576268354128600,0.371128662109375,-0.00042344260145910084,-0.020893298089504242,-0.00827843602746725
1768576268364127700,0.381127685546875,-0.0030059099663048983,-0.02004481479525566,-0.008040882647037506
1768576268374127600,0.391127685546875,-0.0015542207984253764,-0.016759272664785385,-0.008715727366507053
1768576268384127700,0.401127685546875,-0.002035187790170312,-0.009830792434513569,-0.005238970275968313
1768576268394127600,0.411127685546875,-0.0026698189321905375,-0.0078046596609056,-0.0027920580469071865
1768576268404127500,0.42112744140625,-0.005178783088922501,-0.004938299767673016,-0.0011835087789222598
1768576268414126600,0.431126708984375,-0.004568386357277632,0.0012815131340175867,-0.0010077401529997587
1768576268424126700,0.441126708984375,-0.003905525663867593,-0.00022264027211349458,0.0005992112564854324
1768576268434126600,0.451126708984375,-0.0038224351592361927,-0.00020666129421442747,0.002642654813826084
1768576268444126700,0.461126708984375,-0.004032026045024395,0.0018285263795405626,0.0028517129831016064
1768576268454126600,0.471126708984375,-0.004200870171189308,0.001579787116497755,0.002103364560753107
1768576268464125700,0.481125732421875,-0.005043228156864643,-0.006098372396081686,0.0011925635626539588
1768576268474125600,0.49112548828125,-0.00412363838404417,-0.013310479000210762,0.003035204717889428
1768576268484125700,0.501125732421875,-0.003841609926894307,-0.015959525480866432,0.004550809506326914
1768576268494125600,0.51112548828125,-0.0024088292848318815,-0.011825500056147575,0.003213103860616684
1768576268504125700,0.521125732421875,-0.0035329493694007397,-0.015179751440882683,0.0032842103391885757
1768576268514124500,0.53112451171875,-0.000007456851108145202,-0.01635793410241604,0.0032655680552124977
1768576268524124700,0.541124755859375,-0.0017449031583964825,-0.01441302802413702,0.00042504051816649735
1768576268534124500,0.55112451171875,-0.003418167121708393,-0.009969810023903847,0.00035260253935121
1768576268544124700,0.561124755859375,-0.0032109732273966074,-0.005285309627652168,-0.0057409764267504215
1768576268554124500,0.57112451171875,-0.0018021611031144857,-0.0059897154569625854,-0.007152984384447336
1768576268564123600,0.58112353515625,-0.0022972426377236843,-0.001449292292818427,-0.006825415417551994
1768576268574123500,0.59112353515625,0.000597879639826715,-0.00016671388584654778,-0.008445682935416698
1768576268584123600,0.60112353515625,0.002150502521544695,-0.0010157296201214194,-0.00401604687795043
1768576268594123500,0.61112353515625,0.0027270768769085407,-0.010015616193413734,-0.0009914948605000973
1768576268604122600,0.62112255859375,0.00034674355993047357,-0.018938271328806877,0.0015805860748514533
1768576268614122800,0.631122802734375,-0.0011917646043002605,-0.016395485028624535,-0.00033449303009547293
1768576268624122600,0.64112255859375,-0.004388622939586639,-0.01695900969207287,-0.00123783724848181
1768576268634122500,0.65112255859375,-0.009157013148069382,-0.017944911494851112,0.003972104750573635
1768576268644122600,0.66112255859375,-0.010632670484483242,-0.01667804643511772,0.008229168131947517
1768576268654121700,0.671121826171875,-0.008271511644124985,-0.01763225719332695,0.007940215058624744
1768576268664121600,0.68112158203125,-0.005536978133022785,-0.01841469295322895,0.011181015521287918
1768576268674121700,0.691121826171875,-0.004318848252296448,-0.010461162775754929,0.013666011393070221
1768576268684121600,0.70112158203125,-0.002007757080718875,-0.009489108808338642,0.010263290256261826
1768576268694121500,0.71112158203125,-0.0010705908061936498,-0.011698734015226364,0.008521582931280136
1768576268704120600,0.72112060546875,-0.003457049373537302,-0.012290487997233868,0.009347961284220219
1768576268714120700,0.73112060546875,-0.0032447953708469868,-0.012123508378863335,0.011231881566345692
1768576268724120600,0.74112060546875,-0.003971838392317295,-0.00469541922211647,0.010004431009292603
1768576268734120700,0.75112060546875,-0.00315957423299551,0.0002767024270724505,0.007202252745628357
1768576268744120600,0.76112060546875,-0.004875182639807463,0.008656338788568974,0.00637960247695446
1768576268754119700,0.77111962890625,-0.0034344124142080545,0.012566657736897469,0.006073871627449989
1768576268764119600,0.78111962890625,-0.001910285442136228,0.010207097046077251,0.0028660940006375313
1768576268774119700,0.79111962890625,-0.0016921724891290069,0.008566590026021004,-0.0015430354978889227
1768576268784119600,0.80111962890625,-0.0007102650706656277,0.00743101816624403,-0.005526325665414333
1768576268794119700,0.81111962890625,-0.000060986389144090936,0.002540655666962266,-0.006131395697593689
1768576268804118500,0.821118408203125,-0.001141963410191238,-0.002923884429037571,-0.009224124252796173
1768576268814118700,0.83111865234375,-0.002329733222723007,-0.006083725020289421,-0.011412976309657097
1768576268824118500,0.841118408203125,-0.0012122709304094315,-0.004814994987100363,-0.009139169938862324
1768576268834118700,0.85111865234375,-0.0027662254869937897,-0.0017563547007739544,-0.010774883441627026
1768576268844118500,0.861118408203125,0.00007376955909421667,0.0028072381392121315,-0.007423028815537691
1768576268854117600,0.87111767578125,0.0018639464396983385,0.00621182331815362,-0.006945790257304907
1768576268864117500,0.881117431640625,-0.0011566109023988247,0.007200122345238924,-0.005844307132065296
1768576268874117600,0.89111767578125,-0.0018756643403321505,0.008971390314400196,-0.005781989078968763
1768576268884117500,0.901117431640625,-0.004667189903557301,0.006344981025904417,-0.009296029806137085
1768576268894117600,0.91111767578125,-0.003477822057902813,0.0007512777228839695,-0.010577277280390263
1768576268904116700,0.92111669921875,-0.003997404593974352,-0.0021968416403979063,-0.00830932892858982
1768576268914116600,0.93111669921875,-0.00535481795668602,-0.0024200144689530134,-0.002103630919009447
1768576268924116700,0.94111669921875,-0.005095159634947777,-0.0027387947775423527,-0.0032732912804931402
1768576268934116600,0.95111669921875,-0.005323126446455717,-0.007129814941436052,0.0005390237784013152
1768576268944115700,0.96111572265625,-0.005557750817388296,-0.004195810295641422,0.0029558425303548574
1768576268954115600,0.971115478515625,-0.004034156445413828,0.0034991272259503603,0.001088966615498066
1768576268964115700,0.98111572265625,-0.000833036785479635,0.00649784691631794,0.00056219327962026
1768576268974115600,0.991115478515625,0.00011185276525793597,-0.0028216191567480564,-0.005315669346600771
1768576268984115700,1.00111572265625,-0.0017917747609317303,-0.0057044909335672855,-0.010178601369261742
1768576268994114600,1.011114501953125,-0.0020881847012788057,0.0005126585019752383,-0.014345383271574974
1768576269004114700,1.02111474609375,-0.004775846842676401,0.004267981741577387,-0.008314388804137707
1768576269014114600,1.031114501953125,-0.003823500359430909,0.00566960358992219,-0.004811533261090517
1768576269024114700,1.04111474609375,-0.0034290861804038286,0.0029702235478907824,-0.004796619527041912
1768576269034114600,1.051114501953125,-0.004906075540930033,0.0002258360618725419,0.0009576727170497179
1768576269044113700,1.06111376953125,-0.0030477214604616165,0.0021611552219837904,0.00039414784987457097
1768576269054113500,1.071113525390625,-0.0024951156228780746,0.0013912353897467256,0.0001496696495451033
1768576269064113700,1.08111376953125,-0.0027454528026282787,-0.002159823663532734,-0.003487143199890852
1768576269074113500,1.091113525390625,-0.0029031119775027037,-0.00038509309524670243,-0.010220679454505444
1768576269084113700,1.10111376953125,-0.0012343751732259989,0.004459196701645851,-0.011203119531273842
1768576269094112500,1.111112548828125,-0.000985103310085833,0.007472563534975052,-0.007898136973381042
1768576269104112600,1.121112548828125,-0.0023249397054314613,0.009826797991991043,-0.006203833501785994
1768576269114112500,1.131112548828125,-0.0012594088912010193,0.009250223636627197,-0.007306116167455912
1768576269124112600,1.141112548828125,-0.0021723404061049223,0.006387059111148119,-0.002781938062980771
1768576269134112500,1.151112548828125,-0.003999801818281412,0.006481068674474955,0.002272475278005004
1768576269144111600,1.161111572265625,-0.003422162029892206,0.006625678390264511,-0.0022160164080560207
1768576269154111700,1.17111181640625,-0.002320412313565612,0.004673581570386887,-0.0036791570018976927
1768576269164111600,1.181111572265625,-0.0028242822736501694,0.008501342497766018,-0.0031643679831176996
1768576269174111500,1.191111572265625,-0.005036570131778717,0.007166832685470581,-0.0015989618841558695
1768576269184111600,1.201111572265625,-0.004979046061635017,0.0024434502702206373,0.0003856257244478911
1768576269194110700,1.21111083984375,-0.0047177900560200214,-0.00024980452144518495,0.00472551304847002
1768576269204110600,1.221110595703125,-0.002816825406625867,0.0026991136837750673,0.007056311704218388
1768576269214110700,1.23111083984375,-0.002688727341592312,-0.001133174984715879,0.004929777234792709
1768576269224110600,1.241110595703125,-0.0005520732956938446,0.0007805725326761603,0.0009779128013178706
1768576269234109700,1.251109619140625,0.0014881744282320142,0.0038637141697108746,-0.0021459751296788454
1768576269244109600,1.261109619140625,0.0028455876745283604,0.0067657604813575745,-0.004539890680462122
1768576269254109700,1.271109619140625,0.002567020943388343,0.012801814824342728,-0.005322327371686697
1768576269264109600,1.281109619140625,0.004418184049427509,0.015132347121834755,-0.0022125542163848877
1768576269274109700,1.291109619140625,0.0025068335235118866,0.013302222825586796,-0.001683916780166328
1768576269284108500,1.301108642578125,0.0006620618514716625,0.007362042553722858,-0.0006729807937517762
1768576269294108700,1.311108642578125,-0.0017350494163110852,-0.00324799120426178,0.000037550569686573
1768576269304108500,1.321108642578125,-0.005148422904312611,-0.006133526097983122,-0.0018988338997587562
1768576269314108700,1.331108642578125,-0.007933557033538818,-0.0021022993605583906,-0.004855209030210972
1768576269324108500,1.341108642578125,-0.006223807577043772,-0.0008769789128564298,-0.001990180229768157
1768576269334107600,1.351107666015625,-0.004729773849248886,-0.0013598100049421191,0.00010466222738614306
1768576269344107500,1.361107421875,-0.0021462414879351854,-0.0001968075957847759,0.0025212145410478115
1768576269354107600,1.371107666015625,0.00148125016130507,-0.0039044604636728764,0.004384894855320454
1768576269364107500,1.381107421875,0.0024945829063653946,-0.003742273896932602,0.005564142484217882
1768576269374107600,1.391107666015625,0.0006950850365683436,-0.00007909588020993397,0.0012751214671880007
1768576269384106800,1.401106689453125,0.0005805690889246762,0.0016000272007659078,0.0010743191232904792
1768576269394106600,1.411106689453125,-0.0019465044606477022,-0.004985171370208263,0.001141963410191238
1768576269404106500,1.4211064453125,-0.0028426581993699074,-0.004454935900866985,0.0020096213556826115
1768576269414106600,1.431106689453125,-0.005628058221191168,-0.0031992553267627954,0.002653573639690876
1768576269424106500,1.4411064453125,-0.0029289445374161005,-0.006468551699072123,0.0008218514849431813
1768576269434105600,1.451105712890625,-0.002177400514483452,-0.007033142261207104,-0.0007773766992613673
1768576269444105700,1.461105712890625,-0.0012897689593955874,-0.0065713501535356045,-0.0005834985640831292
1768576269454105600,1.471105712890625,0.0015390408225357533,-0.006478405557572842,0.0005012069013901055
1768576269464105700,1.481105712890625,0.0010610034223645926,-0.0065316688269376755,-0.0028610338922590017
1768576269474105600,1.491105712890625,0.0023433153983205557,-0.006726079620420933,-0.0015315839555114508
1768576269484104700,1.501104736328125,-0.0006705839768983424,-0.0037505298387259245,-0.003054911969229579
1768576269494104600,1.5111044921875,-0.0019046928500756621,-0.00424294825643301,-0.008558867499232292
1768576269504104700,1.521104736328125,-0.002287655370309949,-0.0044072652235627174,-0.008234760724008083
1768576269514104600,1.5311044921875,-0.0008436894277110696,-0.0059692091308534145,-0.004914331249892712
1768576269524104700,1.541104736328125,-0.00022770027862861753,-0.0038402783684432507,-0.0027869981713593006
1768576269534103600,1.551103515625,0.00031638352083973587,-0.0018093516118824482,-0.0010317085543647408
1768576269544103700,1.561103759765625,-0.0010644654976204038,-0.000859934720210731,0.0000697748182574287
1768576269554103600,1.571103515625,-0.0017009610310196877,-0.0010969560826197267,-0.001975266495719552
1768576269564103700,1.581103759765625,-0.003421629313379526,0.0016900419723242521,-0.0021462414879351854
1768576269574102500,1.5911025390625,-0.004462392535060644,0.0019347865600138903,-0.002785133896395564
1768576269584102700,1.6011025390625,-0.006762298755347729,0.0038868836127221584,-0.0034993935842067003
1768576269594102500,1.6111025390625,-0.004381965380162001,0.005328719038516283,-0.0015704660909250379
1768576269604102700,1.6211025390625,-0.000428502622526139,0.002807770622894168,-0.004447478801012039
1768576269614102500,1.6311025390625,-0.0002972087822854519,0.0021664814557880163,-0.005685316398739815
1768576269624102700,1.6411025390625,0.0019497001776471734,-0.0012482235906645656,-0.0060030315071344376
1768576269634101500,1.6511015625,0.0016247945604845881,-0.0011768508702516556,-0.0039007319137454033
1768576269644101600,1.6611015625,0.003203516360372305,0.0009930927772074938,-0.006080795545130968
1768576269654101500,1.6711015625,0.002428004052489996,0.0007459514308720827,-0.009995642118155956
1768576269664101600,1.6811015625,0.0019036275334656239,0.002083390951156616,-0.009882192127406597
1768576269674100700,1.691100830078125,0.0003866909828502685,0.007187605369836092,-0.011802330613136292
1768576269684100600,1.7011005859375,-0.0014612764352932572,0.01041269302368164,-0.013561614789068699
1768576269694100700,1.711100830078125,-0.0030599720776081085,0.011026285588741302,-0.013713947497308254
1768576269704100600,1.7211005859375,-0.002996056107804179,0.01233150064945221,-0.011772503145039082
1768576269714100500,1.7311005859375,-0.003326288191601634,0.010379403829574585,-0.01022893562912941
1768576269724099600,1.741099609375,-0.002739860210567713,0.00503976596519351,-0.011196994222700596
1768576269734099700,1.751099609375,-0.0011944277212023735,0.004164917394518852,-0.009059540927410126
1768576269744099600,1.761099609375,-0.0019446401856839657,0.0025808694772422314,-0.007565508130937815
1768576269754099700,1.771099609375,-0.002055960241705179,0.003151052165776491,-0.006780674215406179
1768576269764099600,1.781099609375,-0.001856223214417696,0.006868824828416109,-0.005780657287687063
1768576269774098700,1.7910986328125,-0.0030365362763404846,0.007224889472126961,-0.005130846053361893
1768576269784098600,1.8010986328125,-0.003662112867459655,0.015007445588707924,-0.006303968373686075
1768576269794098700,1.8110986328125,-0.003631486324593425,0.01847274973988533,-0.005877329967916012
1768576269804098600,1.8210986328125,-0.002817358123138547,0.014399179257452488,-0.0073354109190404415
1768576269814098700,1.8310986328125,-0.002235191175714135,0.009438242763280869,-0.004668254870921373
1768576269824097500,1.84109765625,-0.0016255935188382864,0.007151119876652956,-0.0057590859942138195
1768576269834097700,1.85109765625,-0.0030575753189623356,0.005195028148591518,-0.003913515247404575
1768576269844097500,1.86109765625,-0.004117513541132212,0.00887684803456068,-0.0016647420125082135
1768576269854097700,1.87109765625,-0.006717291194945574,0.0060022324323654175,-0.0012506204657256603
1768576269864097500,1.88109765625,-0.0034946000669151545,0.005946838762611151,-0.002689792774617672
1768576269874096600,1.8910966796875,-0.005575061310082674,0.007026217877864838,-0.004720453172922134
1768576269884096500,1.901096435546875,-0.004683434963226318,0.008894691243767738,-0.0023755396250635386
1768576269894096600,1.9110966796875,-0.0041305627673864365,0.011448130942881107,-0.0002002697146963328
1768576269904096500,1.921096435546875,-0.004188885912299156,0.008713596500456333,0.00170761882327497
1768576269914096600,1.9310966796875,-0.002588059986010194,0.005803560372442007,0.004965996369719505
1768576269924095700,1.941095703125,-0.0023126890882849693,0.0052136704325675964,0.004707669839262962
1768576269934095600,1.951095703125,-0.0035108451265841722,0.003462908323854208,0.0035569178871810436
1768576269944095500,1.961095458984375,-0.002484196564182639,0.006614759564399719,0.0008420915110036731
1768576269954095600,1.971095703125,-0.002112152986228466,0.011391138657927513,0.0023582291323691607
1768576269964095500,1.981095458984375,-0.0031225562561303377,0.015545403584837914,0.006773750297725201
1768576269974094600,1.991094482421875,-0.0020516992080956697,0.014790131710469723,0.00986488163471222
1768576269984094700,2.0010947265625,-0.0025774072855710983,0.009098423644900322,0.005125519819557667
1768576269994094600,2.011094482421875,-0.004408597014844418,0.0035625104792416096,0.002365685999393463
1768576270004094700,2.0210947265625,-0.006367884576320648,0.0012658004416152835,-0.002442651428282261
1768576270014094600,2.031094482421875,-0.00746244378387928,0.0026586337480694056,-0.00008974852971732616
1768576270024093700,2.04109375,-0.006744721904397011,0.006392118986696005,0.00015579492901451886
1768576270034093600,2.051093505859375,-0.006770554464310408,0.004566255956888199,0.0038043255917727947
1768576270044093700,2.06109375,-0.005430984310805798,0.006445115897804499,0.00672235107049346
1768576270054093600,2.071093505859375,-0.0034445326309651136,0.00563897704705596,0.0067961206659674644
1768576270064092700,2.0810927734375,-0.0031933963764458895,0.005428321193903685,0.007140733767300844
1768576270074092500,2.091092529296875,-0.0022498385515064,0.00577772781252861,0.0070736221969127655
1768576270084092700,2.1010927734375,-0.002909237053245306,0.0032929987646639347,0.006880276836454868
1768576270094092500,2.111092529296875,-0.003991812001913786,0.00044075315236113966,0.005747634451836348
1768576270104092700,2.1210927734375,-0.005865079816430807,0.0016322514275088906,0.005542837083339691
1768576270114091500,2.131091552734375,-0.006530603393912315,0.003745736088603735,0.003919107839465141
1768576270124091600,2.141091552734375,-0.006946855690330267,0.001067661214619875,0.004484497010707855
1768576270134091500,2.151091552734375,-0.005320463329553604,0.0005182511522434652,0.005458681378513575
1768576270144091600,2.161091552734375,-0.0025180187076330185,0.0028474517166614532,0.004541222471743822
1768576270154091500,2.171091552734375,-0.00032863407977856696,0.0033992587123066187,0.0028668928425759077
1768576270164090600,2.181090576171875,0.0004732437082566321,0.000672181835398078,0.0016306535108014941
1768576270174090500,2.191090576171875,-0.0008799084462225437,-0.0014293185668066144,-0.002448244020342827
1768576270184090600,2.201090576171875,-0.0031380027066916227,0.0006444850005209446,-0.007754059974104166
1768576270194090500,2.211090576171875,-0.003938282374292612,0.004790227860212326,-0.01074079517275095
1768576270204090600,2.221090576171875,-0.0021257351618260145,0.008111456409096718,-0.012737899087369442
1768576270214089700,2.23108984375,-0.00019574233738239855,0.007367635145783424,-0.011284612119197845
1768576270224089600,2.241089599609375,0.0021427792962640524,0.005811816547065973,-0.009243032895028591
1768576270234089700,2.25108984375,0.001984853995963931,0.00324852392077446,-0.007182811852544546
1768576270244089600,2.261089599609375,0.00026285400963388383,0.0014761901693418622,-0.005458947736769915
1768576270254089500,2.27108935546875,0.0005254416610114276,0.004233893472701311,-0.007197725586593151
1768576270264088600,2.281088623046875,-0.001618403010070324,0.0080296965315938,-0.010673150420188904
1768576270274088700,2.291088623046875,-0.0031523837242275476,0.007727428339421749,-0.010949586518108845
1768576270284088600,2.301088623046875,-0.004662395920604467,0.008872054517269135,-0.013911288231611252
1768576270294088700,2.311088623046875,-0.0028599686920642853,0.00848616287112236,-0.011860121041536331
1768576270304088600,2.321088623046875,-0.0020301276817917824,0.007818774320185184,-0.013311011716723442
1768576270314087700,2.331087646484375,-0.00022610237647313625,0.007459780666977167,-0.016154734417796135
1768576270324087600,2.341087646484375,0.0010279801208525896,0.007552192080765963,-0.015794675797224045
1768576270334087700,2.351087646484375,0.0012511530658230186,0.006625678390264511,-0.01606179028749466
1768576270344087600,2.361087646484375,0.003254116512835026,0.006825415417551994,-0.020901020616292953
1768576270354087700,2.371087646484375,0.0019052254501730204,0.007492537144571543,-0.021195832639932632
1768576270364086500,2.38108642578125,0.003981958609074354,0.005397694651037455,-0.020662400871515274
1768576270374086700,2.391086669921875,0.0018972359830513597,0.007765245158225298,-0.01697632111608982
1768576270384086500,2.40108642578125,-0.0001776328426785767,0.00583871454000473,-0.01774810440838337
1768576270394086700,2.411086669921875,-0.001145425601862371,0.004740160424262285,-0.019157182425260544
1768576270404086500,2.42108642578125,-0.0011835087789222598,0.00469462014734745,-0.01865970343351364
1768576270414085600,2.431085693359375,0.0008812400046736002,0.002659432590007782,-0.013037770986557007
1768576270424085500,2.44108544921875,-0.0005209143273532391,0.0011800467036664486,-0.012971725314855576
1768576270434085600,2.451085693359375,-0.0002873550693038851,0.004416053649038076,-0.009504023008048534
1768576270444085500,2.46108544921875,-0.0010492854053154588,0.0064866612665355206,-0.0087807085365057
1768576270454085600,2.471085693359375,-0.0005094627267681062,0.009413741528987885,-0.010084325447678566
1768576270464084700,2.481084716796875,-0.0028013791888952255,0.011622301302850246,-0.009245430119335651
1768576270474084600,2.491084716796875,-0.0012535499408841133,0.011010839603841305,-0.008160724304616451
1768576270484084500,2.50108447265625,-0.00293400464579463,0.007727694697678089,-0.007982558570802212
1768576270494084600,2.511084716796875,-0.003004844533279538,0.007726096548140049,-0.0057676080614328384
1768576270504084500,2.52108447265625,-0.0032871398143470287,0.007639011368155479,-0.005316202063113451
1768576270514083600,2.53108349609375,-0.0035894084721803665,0.006170011591166258,-0.0046607982367277145
1768576270524083700,2.541083740234375,-0.003594468580558896,0.006388657260686159,-0.005243231542408466
1768576270534083600,2.55108349609375,-0.0039265644736588,0.005003546830266714,-0.005396629683673382
1768576270544083700,2.561083740234375,-0.004160390235483646,0.009188970550894737,-0.003725496120750904
1768576270554083600,2.57108349609375,-0.0009065400226972997,0.0070768180303275585,-0.00780679052695632
1768576270564082700,2.581082763671875,-0.0030751521699130535,0.005423261318355799,-0.010100038722157478
1768576270574082600,2.59108251953125,-0.002840793924406171,0.0041039311327040195,-0.009559416212141514
1768576270584082700,2.601082763671875,-0.003864779369905591,0.00347489258274436,-0.006908772513270378
1768576270594082600,2.61108251953125,-0.005751895252615213,0.002779008587822318,-0.003879426745697856
1768576270604082700,2.621082763671875,-0.004201669245958328,0.0018040252616629004,-0.004833637271076441
1768576270614081500,2.63108154296875,-0.0037875475827604532,0.00401684595271945,-0.0054789213463664055
1768576270624081700,2.64108154296875,-0.004141215234994888,0.0041492050513625145,-0.003893541404977441
1768576270634081500,2.65108154296875,-0.003546797903254628,0.003501257859170437,-0.005289037711918354
1768576270644081700,2.66108154296875,-0.0038538603112101555,0.0002668487431947142,-0.005535114090889692
1768576270654081500,2.67108154296875,-0.0031308121979236603,0.0015249260468408465,-0.006641923915594816
1768576270664080600,2.68108056640625,-0.003373958868905902,0.0054429685696959496,-0.006476008798927069
1768576270674080500,2.69108056640625,-0.0022927154786884785,0.006618221756070852,-0.008176171220839024
1768576270684080600,2.70108056640625,-0.001332645770162344,0.00652687530964613,-0.007979629561305046
1768576270694080500,2.71108056640625,0.0010346380295231938,0.002466619713231921,-0.0062128882855176926
1768576270704080600,2.72108056640625,0.0006681871018372476,-0.00373055599629879,-0.005112470127642155
1768576270714079700,2.731079833984375,-0.0008285093936137855,-0.008166316896677017,-0.003835484618321061
1768576270724079600,2.74107958984375,-0.002820287598297,-0.005092230159789324,-0.002691923175007105
1768576270734079500,2.75107958984375,-0.005683984607458115,-0.0011925635626539588,0.0007789746159687638
1768576270744079600,2.76107958984375,-0.0067716194316744804,0.00007723167072981596,0.0017725999932736158
1768576270754079500,2.77107958984375,-0.005059473216533661,-0.0028248149901628494,0.002382996492087841
1768576270764078600,2.78107861328125,-0.002356897573918104,-0.005420864559710026,0.002703641075640917
1768576270774078700,2.79107861328125,0.00023036343918647617,-0.005060538649559021,0.008112254552543163
1768576270784078600,2.80107861328125,0.0011116034584119916,-0.007458448875695467,0.006638195365667343
1768576270794078500,2.811078369140625,0.0008900284301489592,-0.010722152888774872,0.003216299694031477
1768576270804078600,2.82107861328125,-0.0005446164286695421,-0.013361345045268536,0.0011179950088262558
1768576270814077700,2.83107763671875,-0.0031787490006536245,-0.010726147331297398,0.004701810888946056
1768576270824077600,2.84107763671875,-0.005327919963747263,-0.005878129042685032,0.006485596299171448
1768576270834077700,2.85107763671875,-0.0046213832683861256,-0.00974743627011776,0.007426757365465164
1768576270844077600,2.86107763671875,-0.006590791046619415,-0.004307130351662636,0.0036136433482170105
1768576270854077700,2.87107763671875,-0.003828826593235135,0.00043329631444066763,0.004034156445413828
1768576270864076500,2.88107666015625,-0.001955559244379401,-0.00009747169679030776,0.006162554491311312
1768576270874076700,2.89107666015625,-0.0025007082149386406,0.001273257308639586,0.004077033139765263
1768576270884076500,2.90107666015625,-0.001237571006640792,0.004345479886978865,0.001924932817928493
1768576270894076700,2.91107666015625,-0.0015092133544385433,0.0019773971289396286,0.000675377668812871
1768576270904076500,2.92107666015625,-0.0019254654180258512,0.0020128171890974045,-0.00043516053119674325
1768576270914075600,2.93107568359375,-0.0012479572324082255,0.004343615844845772,-0.007256315089762211
1768576270924075500,2.941075439453125,-0.0021936458069831133,0.007707720622420311,-0.009873935952782631
1768576270934075600,2.95107568359375,-0.0001001348573481664,0.01113307848572731,-0.007126885466277599
1768576270944075500,2.961075439453125,-0.0006852313526906073,0.01136770285665989,-0.00908830389380455
1768576270954074600,2.97107470703125,-0.004988899454474449,0.012614594772458076,-0.00905474741011858
1768576270964074500,2.981074462890625,-0.005076251458376646,0.013472399674355984,-0.010861968621611595
1768576270974074600,2.99107470703125,-0.006347644608467817,0.01302392315119505,-0.005028048064559698
1768576270984074500,3.001074462890625,-0.005824865773320198,0.011914716102182865,-0.003585147438570857
1768576270994074600,3.01107470703125,-0.005884520709514618,0.010272877290844917,-0.0037476003635674715
1768576271004074500,3.021074462890625,-0.004915129859000444,0.005024852231144905,-0.006039250176399946
1768576271014073600,3.031073486328125,-0.003456516657024622,0.005282113794237375,-0.004142014309763908
1768576271024073700,3.04107373046875,-0.0020567593164741993,0.008672583848237991,-0.0051689292304217815
1768576271034073600,3.051073486328125,-0.001555552356876433,0.011196727864444256,-0.006355900317430496
1768576271044074000,3.061073974609375,-0.000672181835398078,0.007555121555924416,-0.0038685076870024204
1768576271054074000,3.07107421875,-0.0004809668753296137,0.00493244081735611,-0.00561074772849679
1768576271064073000,3.081072998046875,0.0009648632840253413,0.004415520932525396,-0.0070701600052416325
1768576271074073000,3.091072998046875,-0.00006072007090551779,0.0041521345265209675,-0.004807005636394024
1768576271084073000,3.101072998046875,-0.0015006912872195244,0.0005994775565341115,-0.00552366254851222
1768576271094073000,3.111072998046875,-0.0022738068364560604,-0.00045060686534270644,-0.006200904026627541
1768576271104073000,3.121072998046875,-0.003576625371351838,0.00253426400013268,-0.007748999632894993
1768576271114072000,3.131072021484375,-0.004796086810529232,-0.001514273346401751,-0.0076280920766294
1768576271124072200,3.141072265625,-0.002805373864248395,0.0014713965356349945,-0.0057218014262616634
1768576271134072000,3.151072021484375,-0.0021907163318246603,0.002537193475291133,-0.006354568526148796
1768576271144072000,3.161072021484375,-0.003824033075943589,0.003631752682849765,-0.002172074280679226
1768576271154072000,3.171072021484375,-0.0029225528705865145,0.00017363809456583112,-0.0005568669876083732
1768576271164071200,3.1810712890625,-0.003466104157269001,-0.0043681166134774685,-0.004305266309529543
1768576271174071000,3.191071044921875,-0.006121009588241577,-0.0034405377227813005,-0.005112736485898495
1768576271184071200,3.2010712890625,-0.005077582783997059,-0.002177666872739792,-0.006158293690532446
1768576271194071000,3.211071044921875,-0.005185707006603479,-0.004593686666339636,-0.014647386036813259
1768576271204070100,3.221070068359375,-0.005854959599673748,-0.003400590270757675,-0.016645023599267006
1768576271214070000,3.231070068359375,-0.003837615018710494,-0.0021257351618260145,-0.011034009046852589
1768576271224070100,3.241070068359375,-0.002951315138489008,0.0018753979820758104,-0.009877131320536137
1768576271234070000,3.251070068359375,-0.003695935010910034,0.0017185378819704056,-0.008400408551096916
1768576271244070100,3.261070068359375,-0.0018192053539678454,-0.0034000577870756388,-0.005614209920167923
1768576271254069000,3.271069091796875,-0.004577441141009331,0.00039414784987457097,-0.008982310071587563
1768576271264069000,3.281069091796875,-0.0016058861510828137,-0.000627707049716264,-0.013588246889412403
1768576271274069000,3.291069091796875,-0.001776062068529427,0.0018341189716011286,-0.014991199597716331
1768576271284069000,3.301069091796875,-0.003974501509219408,0.00236328924074769,-0.01134213712066412
1768576271294069000,3.311069091796875,-0.003867176128551364,0.00809281412512064,-0.008779376745223999
1768576271304069000,3.321069091796875,-0.005031243897974491,0.01025769766420126,-0.0076065207831561565
1768576271314068000,3.33106787109375,-0.003952663857489824,0.010018013417720795,-0.011172492988407612
1768576271324068000,3.341068115234375,-0.005246960092335939,0.009612147696316242,-0.010144779458642006
1768576271334068000,3.35106787109375,-0.005714078433811665,0.011138404719531536,-0.00811864621937275
1768576271344068000,3.361068115234375,-0.006957508157938719,0.008261125534772873,-0.0070129018276929855
1768576271354068000,3.37106787109375,-0.008075769990682602,0.011519236490130424,-0.0003616572648752481
1768576271364067000,3.381067138671875,-0.009252620860934258,0.013221529312431812,0.0016202671686187387
1768576271374067000,3.39106689453125,-0.010936005041003227,0.016749419271945953,-0.0011462245602160692
1768576271384067000,3.401067138671875,-0.009466205723583698,0.020016051828861237,-0.0020575581584125757
1768576271394067000,3.41106689453125,-0.006084790453314781,0.023842748254537582,0.001618136651813984
1768576271404066000,3.421066162109375,-0.004700745455920696,0.018972625955939293,0.0018136126454919577
1768576271414066200,3.431066162109375,-0.004225371405482292,0.01341407559812069,0.0031997880432754755
1768576271424066000,3.441066162109375,-0.004923119675368071,0.008807606063783169,0.00239231763407588
1768576271434066200,3.451066162109375,-0.006511428859084845,0.00276063266210258,0.0025355955585837364
1768576271444066000,3.461066162109375,-0.006074137985706329,0.006681604776531458,-0.0020098877139389515
1768576271454065200,3.471065185546875,-0.010403105989098549,0.01203802041709423,0.00695005152374506
1768576271464065000,3.48106494140625,-0.01062201801687479,0.012434831820428371,0.006143379956483841
1768576271474065200,3.491065185546875,-0.014068680815398693,0.011902465485036373,0.003736681304872036
1768576271484065000,3.50106494140625,-0.014250840991735458,0.01630680076777935,0.005585447885096073
1768576271494065200,3.511065185546875,-0.012564794160425663,0.01913348026573658,0.005422462243586779
1768576271504064000,3.52106396484375,-0.01215999387204647,0.02099263295531273,0.010076869279146194
1768576271514064100,3.531064208984375,-0.010758638381958008,0.020115654915571213,0.009944243356585503
1768576271524064000,3.54106396484375,-0.012016182765364647,0.023553529754281044,0.006600910797715187
1768576271534064000,3.551064208984375,-0.01019564550369978,0.02473597228527069,0.008346613496541977
1768576271544064000,3.56106396484375,-0.01031442265957594,0.024379640817642212,0.007986021228134632
1768576271554064100,3.571064208984375,-0.009282181970775127,0.025298697873950005,0.008193481713533401
1768576271564063000,3.58106298828125,-0.010054497979581356,0.02593359537422657,0.005983323790132999
1768576271574063000,3.59106298828125,-0.007497863844037056,0.024594558402895927,-0.0003195793251506984
1768576271584063000,3.60106298828125,-0.007450725883245468,0.026870496571063995,-0.0015422365395352244
1768576271594063000,3.61106298828125,-0.004828843753784895,0.024700285866856575,-0.0014708638191223145
1768576271604063000,3.62106298828125,-0.0067963870242238045,0.02526833862066269,0.0007680556736886501
1768576271614062000,3.63106201171875,-0.004777977243065834,0.026551982387900352,-0.0012367720482870936
1768576271624062000,3.64106201171875,-0.006195844151079655,0.02694879285991192,-0.0026378610637038946
1768576271634062000,3.65106201171875,-0.00893570389598608,0.03251240402460098,-0.0037412086967378855
1768576271644062000,3.66106201171875,-0.006953780073672533,0.03525466099381447,-0.00492098880931735
1768576271654061000,3.67106103515625,-0.003397927153855562,0.032996032387018204,-0.005953496787697077
1768576271664061200,3.681061279296875,-0.0034522556234151125,0.03298031911253929,-0.005905826110392809
1768576271674061000,3.69106103515625,-0.002523078816011548,0.03146018832921982,-0.004304999951273203
1768576271684061000,3.70106103515625,-0.0017118799732998013,0.028320055454969406,-0.0037742317654192448
1768576271694061000,3.71106103515625,-0.002832538215443492,0.029470540583133698,-0.0049220542423427105
1768576271704060200,3.72106005859375,-0.0049406965263187885,0.024396685883402824,-0.0067937239073216915
1768576271714060000,3.73106005859375,-0.003973702434450388,0.023062707856297493,-0.011753861792385578
1768576271724060200,3.74106005859375,-0.004838431254029274,0.022529544308781624,-0.010295514017343521
1768576271734060000,3.75106005859375,-0.0009954896522685885,0.022401979193091393,-0.0080336919054389
1768576271744060200,3.76106005859375,0.002132392954081297,0.01914306730031967,-0.00917432364076376
1768576271754059000,3.77105908203125,0.004611529875546694,0.01691480167210102,-0.00592633243650198
1768576271764059100,3.78105908203125,0.0062395199202001095,0.014244715683162212,-0.005942577496170998
1768576271774059000,3.79105908203125,0.007479754276573658,0.0062275356613099575,-0.007684551179409027
1768576271784059100,3.80105908203125,0.005389172583818436,0.006081594619899988,-0.009783121757209301
1768576271794059000,3.81105908203125,0.0015811186749488115,0.008701079525053501,-0.011951467953622341
1768576271804058000,3.82105810546875,-0.0017963021527975798,0.011811119504272938,-0.016763268038630486
1768576271814058000,3.83105810546875,-0.0015781891997903585,0.013254818506538868,-0.016384832561016083
1768576271824058000,3.84105810546875,-0.0018157431622967124,0.007583084981888533,-0.013736318796873093
1768576271834058000,3.85105810546875,-0.001883121207356453,0.005872536450624466,-0.011474762111902237
1768576271844058000,3.86105810546875,-0.0013590110465884209,0.006130862981081009,-0.013757357373833656
1768576271854058000,3.87105810546875,-0.0004069310089107603,0.004634432960301638,-0.013292902149260044
1768576271864057000,3.88105712890625,0.00039015308720991015,0.002545981900766492,-0.012553342618048191
1768576271874057000,3.891056884765625,0.0006415555253624916,0.0025603631511330605,-0.012574381195008755
1768576271884057000,3.90105712890625,-0.0018066884949803352,0.004444549325853586,-0.012056396342813969
1768576271894057000,3.911056884765625,-0.0026399914640933275,0.005981726106256247,-0.00586587842553854
1768576271904056000,3.92105615234375,-0.0018471685471013188,0.009838249534368515,-0.0057383133098483086
1768576271914056000,3.931055908203125,-0.0014335796004161239,0.012047075666487217,-0.004188885912299156
1768576271924056000,3.94105615234375,-0.00026258768048137426,0.011266236193478107,-0.0032834112644195557
1768576271934056000,3.951055908203125,-0.0007696535321883857,0.007022489327937365,0.000532365869730711
1768576271944056000,3.96105615234375,-0.0008591357618570328,0.008266451768577099,0.0005536712124012411
1768576271954055200,3.97105517578125,-0.00077631144085899,0.008259261026978493,-0.005485845264047384
1768576271964055000,3.981054931640625,-0.0024767396971583366,0.0040442761965096,-0.005067463032901287
1768576271974055200,3.99105517578125,-0.003501524217426777,0.001996571896597743,-0.002993126632645726
1768576271984055000,4.001054931640625,-0.005285309627652168,-0.0008655273704789579,-0.0006383596919476986
1768576271994055000,4.011054931640625,-0.004689027555286884,-0.0008199872681871057,0.005502623505890369
1768576272004054000,4.021053955078125,-0.006194779183715582,0.0031047132797539234,0.00569996377453208
1768576272014054100,4.03105419921875,-0.006087986286729574,0.003979295492172241,0.0042719766497612
1768576272024054000,4.041053955078125,-0.006914365105330944,0.007398527581244707,0.004667988512665033
1768576272034054100,4.05105419921875,-0.0065473816357553005,0.0065622953698039055,0.006341252941638231
1768576272044053800,4.0610537109375,-0.006548712961375713,0.0037670412566512823,0.00632127933204174
1768576272054052900,4.071052978515625,-0.003201385959982872,0.0054640076123178005,0.005411277059465647
1768576272064052700,4.081052734375,-0.004561462439596653,0.0017771273851394653,0.002989931032061577
1768576272074052900,4.091052978515625,-0.0030453247018158436,0.0037822213489562273,0.005029912106692791
1768576272084052700,4.101052734375,-0.0032794165890663862,0.007862184196710587,0.004150004126131535
1768576272094052900,4.111052978515625,-0.001984321279451251,0.009577259421348572,-0.0024256070610135794
1768576272104051700,4.1210517578125,-0.0014226606581360102,0.011177552863955498,-0.0032642364967614412
1768576272114051800,4.1310517578125,-0.000020506340661086142,0.012457468546926975,-0.0021694109309464693
1768576272124051700,4.1410517578125,-0.00025992453447543085,0.004250671248883009,0.004922853317111731
1768576272134051800,4.1510517578125,-0.004641357343643904,-0.0012064119800925255,0.006536195985972881
1768576272144051700,4.1610517578125,-0.006911968346685171,-0.0022538332268595695,0.0020325244404375553
1768576272154050800,4.17105078125,-0.008769789710640907,-0.0046964846551418304,-0.0003480751474853605
1768576272164051000,4.181051025390625,-0.00809334684163332,-0.0022154836915433407,0.003949734382331371
1768576272174050800,4.19105078125,-0.007841411046683788,-0.003976631909608841,0.008217183873057365
1768576272184050700,4.20105078125,-0.003561977995559573,-0.002519350266084075,0.01044278685003519
1768576272194050800,4.21105078125,-0.0018367822049185634,-0.0020359866321086884,0.008921323344111443
1768576272204050000,4.2210498046875,-0.0018599516479298472,-0.004051733296364546,0.0054304515942931175
1768576272214049800,4.2310498046875,0.0006945523782633245,-0.00726350536569953,0.007118895649909973
1768576272224050000,4.2410498046875,-0.0010450243717059493,-0.005735650192946196,0.0032208270858973265
1768576272234049800,4.2510498046875,-0.0026075011119246483,-0.0041065942496061325,0.002822417998686433
1768576272244049700,4.261049560546875,-0.003373692510649562,-0.007548197638243437,0.0026442527305334806
1768576272254048800,4.271048828125,-0.0014705975772812963,-0.007665643002837896,-0.0006860303110443056
1768576272264049000,4.281048828125,-0.001904160133562982,-0.007125287316739559,-0.0019742012955248356
1768576272274048800,4.291048828125,-0.0001930791768245399,-0.005434446502476931,-0.0002181128947995603
1768576272284049000,4.301048828125,0.0015712650492787361,-0.007922904565930367,0.0039854203350842
1768576272294048800,4.311048828125,0.0038011297583580017,-0.007448595017194748,0.003364904085174203
1768576272304047900,4.3210478515625,0.004358795937150717,-0.009663812816143036,-0.00008362325752386823
1768576272314047700,4.3310478515625,0.0013904364313930273,-0.008951949886977673,-0.003732952754944563
1768576272324048000,4.3410478515625,0.000794420950114727,-0.008393485099077225,-0.007182279136031866
1768576272334047700,4.3510478515625,0.00009454221435589716,-0.002919090911746025,-0.011122958734631538
1768576272344047900,4.3610478515625,0.0023284016642719507,0.0001102548703784123,-0.01690707728266716
1768576272354046700,4.371046630859375,0.002679672557860613,-0.0009379653492942452,-0.016083361580967903
1768576272364046800,4.381046875,0.0028045750223100185,-0.0008484831196255982,-0.013108877465128899
1768576272374046700,4.391046630859375,0.003852262394502759,-0.004177434369921684,-0.01221831701695919
1768576272384046800,4.401046875,0.0004058657505083829,-0.005185707006603479,-0.009812151081860065
1768576272394046700,4.411046630859375,-0.0019462381023913622,-0.005146558862179518,-0.0057534934021532536
1768576272404045800,4.4210458984375,-0.005321528296917677,-0.005043760873377323,-0.00558278476819396
1768576272414045700,4.431045654296875,-0.003948935307562351,-0.004826446995139122,-0.003057841444388032
1768576272424045800,4.4410458984375,-0.003614442190155387,-0.0029230855870991945,-0.0005131911602802575
1768576272434045700,4.451045654296875,-0.0021406488958746195,-0.0031380027066916227,0.0013353090034797788
1768576272444045800,4.4610458984375,0.000055660068028373644,-0.0017100156983360648,0.001633316627703607
1768576272454045000,4.471044921875,-0.0006996124284341931,0.0009033442474901676,0.0019244002178311348
1768576272464044800,4.481044921875,-0.000461259507574141,0.0014751249691471457,0.0022865901701152325
1768576272474044700,4.491044677734375,-0.0005864280392415822,-0.0003784351865760982,0.00007004113285802305
1768576272484044800,4.501044921875,-0.000892691605258733,-0.000854075769893825,-0.0017425062833353877
1768576272494044700,4.511044677734375,-0.0012982910266146064,0.00035606464371085167,-0.007964449934661388
1768576272504043800,4.521043701171875,-0.0022711437195539474,-0.002560895634815097,-0.008410529233515263
1768576272514044000,4.5310439453125,-0.002829342382028699,-0.0017662084428593516,-0.007608384825289249
1768576272524043800,4.541043701171875,-0.0019081549253314734,-0.0029878003988415003,-0.009518936276435852
1768576272534044000,4.5510439453125,-0.001534779672510922,-0.002776611829176545,-0.006304501090198755
1768576272544043800,4.561043701171875,-0.001725728390738368,-0.004259193316102028,-0.005715409759432077
1768576272554043000,4.57104296875,-0.003335076617076993,-0.002316950121894479,-0.005055745132267475
1768576272564042800,4.581042724609375,-0.0032285500783473253,-0.001606418751180172,-0.0005129248020239174
1768576272574043000,4.59104296875,-0.003403519745916128,0.00020825919636990875,0.0004777711001224816
1768576272584042800,4.601042724609375,-0.0012120045721530914,0.0004316983977332711,-0.002814695006236434
1768576272594043000,4.61104296875,-0.004459463059902191,0.0028280108235776424,-0.002415753435343504
1768576272604041700,4.621041748046875,-0.0023156185634434223,0.0007600661483593285,-0.0037582528311759233
1768576272614041900,4.631041748046875,-0.005111937876790762,-0.0008436894277110696,-0.0001371527905575931
1768576272624041700,4.641041748046875,-0.0036573191173374653,-0.0010399643797427416,0.002154231071472168
1768576272634041900,4.651041748046875,-0.004012851044535637,-0.0015704660909250379,0.004824848845601082
1768576272644041700,4.661041748046875,-0.0026341325137764215,-0.00034221619716845453,0.003877029987052083
1768576272654040800,4.671040771484375,-0.001094559207558632,-0.0005094627267681062,0.0017478326335549355
1768576272664040700,4.681040771484375,-0.0018239989876747131,-0.0023723437916487455,0.0012532835826277733
1768576272674040800,4.691040771484375,-0.003022954100742936,-0.004796885885298252,0.0026783409994095564
1768576272684040700,4.701040771484375,-0.00327275856398046,-0.0046333675272762775,-0.00011371697473805398
1768576272694040800,4.711040771484375,-0.0006854976527392864,-0.004086886998265982,-0.0020546286832541227
1768576272704040000,4.7210400390625,-0.0006479470757767558,-0.008803877979516983,0.00010199906682828441
1768576272714039800,4.731039794921875,-0.0020698087755590677,-0.007531419396400452,0.0026325348298996687
1768576272724039700,4.741039794921875,-0.004114051349461079,-0.006777212489396334,0.0013411679537966847
1768576272734039800,4.751039794921875,-0.0027172232512384653,-0.0043960800394415855,-0.001433845958672464
1768576272744039700,4.761039794921875,-0.0028687571175396442,-0.0047116647474467754,-0.0003014698449987918
1768576272754038800,4.771038818359375,-0.0025300029665231705,-0.000708134553860873,-0.004828577395528555
1768576272764039000,4.781038818359375,-0.0023182816803455353,0.004884503781795502,-0.006419283337891102
1768576272774038800,4.791038818359375,-0.003328418591991067,0.005800365004688501,-0.006770820822566748
1768576272784038700,4.80103857421875,-0.0010282464791089296,0.008481902070343494,-0.007494135294109583
1768576272794038800,4.811038818359375,-0.001898034941405058,0.007131146267056465,-0.005455485545098782
1768576272804038000,4.821037841796875,-0.005755091086030006,-0.001967277145013213,-0.0025984463281929493
1768576272814037800,4.831037841796875,-0.0054823835380375385,-0.006178267300128937,-0.004037618637084961
1768576272824038000,4.841037841796875,-0.007691741921007633,-0.0038072550669312477,-0.0010868359822779894
1768576272834037800,4.851037841796875,-0.007297327741980553,0.0003028014034498483,0.00013076121103949845
1768576272844038000,4.861037841796875,-0.005967611446976662,0.0017670074012130499,0.004067446105182171
1768576272854036700,4.87103662109375,-0.004292482975870371,0.004296211525797844,0.008212123066186905
1768576272864036900,4.881036865234375,-0.0018466358305886388,0.0037774275988340378,0.005819006823003292
1768576272874036700,4.89103662109375,0.0006000102148391306,0.003858920419588685,0.005735650192946196
1768576272884036900,4.901036865234375,0.0032674323301762342,0.003946272190660238,0.004858404863625765
1768576272894036700,4.91103662109375,0.0007113303290680051,0.00276063266210258,0.0034298852551728487
1768576272904035800,4.921035888671875,-0.0018455706303939223,0.0024024376180022955,0.0021845910232514143
1768576272914035700,4.93103564453125,-0.00427357479929924,0.0013076120521873236,-0.000987500068731606
1768576272924035800,4.941035888671875,-0.00430127140134573,-0.0019089538836851716,-0.0006447513005696237
1768576272934035700,4.95103564453125,-0.004730572924017906,-0.004249872639775276,-0.004668521229177713
1768576272944035800,4.961035888671875,-0.0017457021167501807,-0.006587062496691942,-0.0063007730059325695
1768576272954034700,4.97103466796875,-0.0004601942200679332,-0.0065042381174862385,-0.007183344569057226
1768576272964034800,4.981034912109375,0.0017004283145070076,-0.0029531794134527445,-0.008114651776850224
1768576272974034700,4.99103466796875,0.0006846986943855882,-0.001490571303293109,-0.010072873905301094
1768576272984034800,5.001034912109375,0.00005672533006872982,-0.005056543741375208,-0.008289887569844723
1768576272994034700,5.01103466796875,0.0006878945278003812,-0.001573928166180849,-0.009555688127875328
1768576273004033800,5.02103369140625,-0.00044022052315995097,0.00008495483780279756,-0.01062361616641283
1768576273014034000,5.031033935546875,-0.0009257147903554142,0.0032431974541395903,-0.0135642783716321
1768576273024033800,5.04103369140625,-0.000627973407972604,0.0024684839881956577,-0.01444285549223423
1768576273034033700,5.05103369140625,-0.00032570460462011397,0.001838646363466978,-0.014080398716032505
1768576273044033500,5.061033447265625,0.000987500068731606,-0.0026320021133869886,-0.008843292482197285
1768576273054032600,5.07103271484375,-0.0005906891310587525,-0.0017779263434931636,-0.0037579864729195833
1768576273064032500,5.081032470703125,-0.001913481275551021,-0.0017859158106148243,-0.0025715483352541924
1768576273074032600,5.09103271484375,-0.0036663739010691643,0.000054328484111465514,-0.0020626182667911053
1768576273084032500,5.101032470703125,-0.0041036647744476795,0.004840561654418707,-0.0035960664972662926
1768576273094032600,5.11103271484375,-0.005387308541685343,0.00523683987557888,-0.005539641249924898
1768576273104031500,5.121031494140625,-0.0024700819049030542,0.005820072256028652,-0.0015510249650105834
1768576273114031600,5.131031494140625,-0.001344363670796156,0.006133792456239462,0.0018165421206504107
1768576273124031500,5.141031494140625,0.000179230744834058,0.007272293791174889,0.0019289276096969843
1768576273134031600,5.151031494140625,0.000520647969096899,0.007843808270990849,0.0005126585019752383
1768576273144031500,5.161031494140625,0.000029827404432580806,0.007862184196710587,-0.0019046928500756621
1768576273154030600,5.171030517578125,0.0006921555614098907,0.0038980687968432903,-0.0054123420268297195
1768576273164030500,5.181030517578125,0.00020213393145240843,-0.001160072977654636,-0.008824916556477547
1768576273174030600,5.191030517578125,-0.0009422263829037547,-0.001181378262117505,-0.0062637547962367535
1768576273184030500,5.201030517578125,-0.002019474981352687,-0.000672448193654418,-0.0066062374971807
1768576273194030600,5.211030517578125,0.00026551715563982725,0.0015422365395352244,-0.004452805500477552
1768576273204029400,5.221029541015625,-0.0006149238906800747,0.0035473306197673082,-0.006001433357596397
1768576273214029600,5.231029541015625,-0.001960619119927287,0.007387342397123575,-0.005782255437225103
1768576273224029400,5.241029541015625,-0.0013763216556981206,0.007845672778785229,-0.00737296137958765
1768576273234029600,5.251029541015625,-0.00033182985498569906,0.006287190597504377,-0.009854760952293873
1768576273244029400,5.261029541015625,-0.003981425892561674,0.008706139400601387,-0.004818190820515156
1768576273254028500,5.271028564453125,-0.0033071134239435196,0.007410778198391199,-0.0035955337807536125
1768576273264028700,5.281028564453125,-0.0035390746779739857,0.006109557580202818,-0.005163602996617556
1768576273274028500,5.291028564453125,-0.0032322786282747984,0.0068302094005048275,-0.004846686962991953
1768576273284028400,5.3010283203125,-0.003540406236425042,0.004336158744990826,-0.004853078629821539
1768576273294028500,5.311028564453125,-0.003263970138505101,0.0057196710258722305,-0.004568652715533972
1768576273304027600,5.321027587890625,-0.0014966964954510331,0.0020700751338154078,-0.005352154839783907
1768576273314027500,5.331027587890625,-0.001967543503269553,0.003893807763233781,-0.005249623209238052
1768576273324027600,5.341027587890625,-0.0010008158860728145,0.004614459350705147,-0.0020817930344492197
1768576273334027500,5.351027587890625,-0.001582716591656208,0.00749173853546381,-0.00048363005043938756
1768576273344027400,5.36102734375,-0.002812031889334321,0.008767925202846527,-0.0021632856223732233
1768576273354026500,5.371026611328125,-0.002305232221260667,0.012825516983866692,-0.0010511496802791953
1768576273364026600,5.381026611328125,-0.003448527306318283,0.005035505164414644,-0.00159470085054636
1768576273374026500,5.391026611328125,-0.0015813850332051516,0.003022421384230256,-0.005515672732144594
1768576273384026600,5.401026611328125,-0.0015188007382676005,0.004553738981485367,-0.0067756143398582935
1768576273394026500,5.411026611328125,0.0006159891490824521,0.0035955337807536125,-0.006896521896123886
1768576273404025600,5.421025634765625,7.989483492565341e-7,0.0013520868960767984,-0.006418750621378422
1768576273414025500,5.431025390625,0.00010652644414221868,0.001960619119927287,-0.007555654272437096
1768576273424025600,5.441025634765625,0.000713993504177779,0.004924184642732143,-0.007500793319195509
1768576273434025500,5.451025390625,0.0018069547368213534,0.005635248962789774,-0.009191900491714478
1768576273444025600,5.461025634765625,0.0021526331547647715,0.01050377357751131,-0.01068060752004385
1768576273454024400,5.4710244140625,0.005249090492725372,0.011839881539344788,-0.012548016384243965
1768576273464024600,5.481024658203125,0.003224821761250496,0.012162656523287296,-0.012501676566898823
1768576273474024400,5.4910244140625,0.0011728560784831643,0.007178017869591713,-0.011456918902695179
1768576273484024600,5.501024658203125,-0.00010226538870483637,-0.001698830397799611,-0.012205267325043678
1768576273494024400,5.5110244140625,-0.0029550434555858374,-0.0022397185675799847,-0.010639861226081848
1768576273504023600,5.5210234375,-0.003069825703278184,0.0011821772204712033,-0.008026234805583954
1768576273514023400,5.5310234375,-0.0037816886324435472,-0.0013440974289551377,-0.005404352676123381
1768576273524023600,5.5410234375,-0.00010439591278554872,-0.0031169636640697718,-0.0027457191608846188
1768576273534023400,5.5510234375,0.0010908307740464807,-0.0017515610670670867,-0.000547279603779316
1768576273544023600,5.5610234375,0.00006418218254111707,0.0008314388687722385,0.00011398329661460593
1768576273554022700,5.571022705078125,0.0018602180061861873,0.0026754115242511034,-0.00024447820032946765
1768576273564022500,5.5810224609375,0.0011688614031299949,0.003847468877211213,-0.0033633061684668064
1768576273574022700,5.591022705078125,-0.001446096459403634,0.0020754013676196337,-0.0028357338160276413
1768576273584022500,5.6010224609375,-0.0016058861510828137,0.00031664984999224544,-0.001442900625988841
1768576273594022400,5.6110224609375,-0.0013933659065514803,-0.0012575446162372828,-0.0034141724463552237
1768576273604021500,5.621021484375,-0.0030421288684010506,0.0005693838465958834,-0.0007611314067617059
1768576273614021600,5.631021728515625,-0.002852511825039983,0.00042051312630064785,0.0012668657582253218
1768576273624021500,5.641021484375,-0.001907355966977775,-0.0010871023405343294,-0.0005555353709496558
1768576273634021600,5.651021728515625,-0.0004293015517760068,-0.0008263788768090308,-0.0016490293201059103
1768576273644021500,5.661021484375,0.00017443705291952938,-0.004132693167775869,-0.004823251161724329
1768576273654020600,5.6710205078125,-0.0014468954177573323,-0.004279699642211199,-0.0025390577502548695
1768576273664020500,5.6810205078125,-0.003546531544998288,0.0017949705943465233,-0.0020793962758034468
1768576273674020600,5.6910205078125,-0.0023635553661733866,0.002528138691559434,-0.006341785658150911
1768576273684020500,5.7010205078125,-0.0041702440939843655,0.00589757040143013,-0.004621915984898806
1768576273694020600,5.7110205078125,-0.00318966805934906,0.010451575741171837,-0.005287440028041601
1768576273704019500,5.72101953125,-0.0034197650384157896,0.011886220425367355,-0.005141498986631632
1768576273714019600,5.73101953125,-0.002543585142120719,0.007655256427824497,-0.005887982901185751
1768576273724019500,5.74101953125,-0.0037923413328826427,0.005303685087710619,-0.004877313040196896
1768576273734019600,5.75101953125,-0.005900499876588583,0.006666691042482853,-0.002816559048369527
1768576273744018400,5.761018310546875,-0.0056922403164207935,0.006609166972339153,-0.0031156321056187153
1768576273754018600,5.7710185546875,-0.006886668037623167,0.005071723833680153,-0.0036695697344839573
1768576273764018400,5.781018310546875,-0.00794207863509655,0.002718554809689522,-0.0027238810434937477
1768576273774018600,5.7910185546875,-0.0054182009771466255,0.0028075044974684715,-0.0018282600212842226
1768576273784018400,5.801018310546875,-0.00464615086093545,0.0022032330743968487,-0.000013848437447450124
1768576273794017500,5.811017578125,-0.0026964505668729544,0.005115665961056948,0.00004953479583491571
1768576273804017700,5.821017578125,-0.002153165638446808,0.006453904323279858,-0.0007137271459214389
1768576273814017500,5.831017578125,-0.0016639430541545153,0.007194529753178358,-0.004255465231835842
1768576273824017400,5.841017333984375,-0.0007827030494809151,0.0044291033409535885,-0.00654631620272994
1768576273834017500,5.851017578125,-0.001891909632831812,0.007262174040079117,-0.007668306119740009
1768576273844017400,5.861017333984375,-0.004021106753498316,0.0075852153822779655,-0.005658418405801058
1768576273854016500,5.8710166015625,-0.002499376656487584,0.007547931279987097,-0.007761782966554165
1768576273864016600,5.8810166015625,-0.0019893813878297806,0.010840930044651031,-0.008102933876216412
1768576273874016500,5.8910166015625,-0.001996305538341403,0.014507037587463856,-0.008300806395709515
1768576273884016600,5.9010166015625,-0.00011078749957960099,0.01007953193038702,-0.008265652693808079
1768576273894016500,5.9110166015625,0.0011065434664487839,0.010692059062421322,-0.010263822972774506
1768576273904015600,5.921015625,-0.00005299690383253619,0.007808388210833073,-0.009199623949825764
1768576273914015500,5.931015380859375,0.0003587277897167951,0.006728210020810366,-0.008039817214012146
1768576273924015600,5.941015625,0.000568052229937166,0.00923371221870184,-0.010275540873408318
1768576273934015500,5.951015380859375,0.0008143946761265397,0.010959174484014511,-0.010043046437203884
1768576273944015600,5.961015625,0.0006356965750455856,0.011808189563453197,-0.008068579249083996
1768576273954014500,5.971014404296875,0.001241033081896603,0.010382600128650665,-0.00680144689977169
1768576273964014600,5.9810146484375,0.0021789984311908484,0.00842597521841526,-0.0066637615673244
1768576273974014500,5.991014404296875,0.001680987305007875,0.00954104121774435,-0.009750897996127605
1768576273984014600,6.0010146484375,0.003394465195015073,0.013013802468776703,-0.007931958884000778
1768576273994013400,6.011013427734375,0.0027947211638092995,0.013422598131000996,-0.006564159411936998
1768576274004013600,6.021013671875,0.004962267819792032,0.013938452117145061,-0.010323211550712585
1768576274014013400,6.031013427734375,0.0037816886324435472,0.01363405305892229,-0.011990882456302643
1768576274024013600,6.041013671875,0.004260258749127388,0.01630839891731739,-0.013653228059411049
1768576274034013400,6.051013427734375,0.005842708982527256,0.01894652657210827,-0.014846590347588062
1768576274044012500,6.061012451171875,0.0067481836304068565,0.02129437029361725,-0.01309183333069086
1768576274054012400,6.071012451171875,0.006451241206377745,0.02659832127392292,-0.013146694749593735
1768576274064012500,6.081012451171875,0.006996124051511288,0.02792643941938877,-0.01960805617272854
1768576274074012400,6.091012451171875,0.008078965358436108,0.031001592054963112,-0.020963871851563454
1768576274084012500,6.101012451171875,0.010748517699539661,0.0340714156627655,-0.027936825528740883
1768576274094012400,6.111012451171875,0.010875284671783447,0.0358181856572628,-0.032347820699214935
1768576274104011500,6.121011474609375,0.010424677282571793,0.038178011775016785,-0.03744431212544441
1768576274114011600,6.13101171875,0.011198858730494976,0.0434420146048069,-0.044259339570999146
1768576274124011500,6.141011474609375,0.00902412086725235,0.05312127619981766,-0.04585324227809906
1768576274134011400,6.151011474609375,0.006431533955037594,0.06537368148565292,-0.047816257923841476
1768576274144011500,6.161011474609375,0.005607285536825657,0.07568170875310898,-0.052327919751405716
1768576274154010600,6.1710107421875,0.0049103363417088985,0.08272071182727814,-0.06468924880027771
1768576274164010500,6.181010498046875,0.0026996464002877474,0.0850009098649025,-0.0730675533413887
1768576274174010600,6.1910107421875,0.0010655306978151202,0.08705713599920273,-0.08273935317993164
1768576274184010500,6.201010498046875,-0.003043726785108447,0.09507591277360916,-0.08699402213096619
1768576274194009300,6.21100927734375,-0.005619802512228489,0.10030529648065567,-0.09023535251617432
1768576274204009500,6.221009521484375,-0.007430485915392637,0.1097579225897789,-0.0909847691655159
1768576274214009600,6.231009521484375,-0.013419934548437595,0.11970403045415878,-0.08393990993499756
1768576274224009500,6.241009521484375,-0.014523815363645554,0.12322952598333359,-0.07621381431818008
1768576274234009600,6.251009521484375,-0.01549400482326746,0.12402927130460739,-0.07034660130739212
1768576274244008400,6.261008544921875,-0.010904845781624317,0.1280844658613205,-0.06854337453842163
1768576274254008600,6.271008544921875,-0.012079299427568913,0.11492658406496048,-0.0761437714099884
1768576274264008400,6.281008544921875,-0.009097358211874962,0.1371176391839981,-0.0750633254647255
1768576274274008600,6.291008544921875,-0.009693640284240246,0.1418016105890274,-0.06762272119522095
1768576274284008400,6.301008544921875,-0.022884277626872063,0.14431563019752502,-0.07554136216640472
1768576274294007600,6.311007568359375,-0.017961157485842705,0.17767465114593506,-0.10179080814123154
1768576274304007400,6.32100732421875,-0.024644359946250916,0.2041344940662384,-0.17857693135738373
1768576274314007600,6.331007568359375,-0.01601198874413967,0.11584111303091049,-0.16762813925743103
1768576274324007400,6.34100732421875,-0.013202087953686714,0.09141913056373596,-0.14099626243114471
1768576274334007600,6.351007568359375,-0.012076370418071747,0.10775548964738846,-0.13530482351779938
1768576274344006700,6.361006591796875,-0.010876616463065147,0.08789576590061188,-0.10289043188095093
1768576274354006500,6.371006591796875,-0.009608418680727482,0.09325084835290909,-0.0933600440621376
1768576274364006400,6.38100634765625,-0.014754978008568287,0.10305953770875931,-0.0940878838300705
1768576274374006500,6.391006591796875,-0.02304779551923275,0.11106154322624207,-0.10746227949857712
1768576274384006400,6.40100634765625,-0.02280438132584095,0.10610087215900421,-0.10305128246545792
1768576274394005500,6.411005615234375,-0.020507937297225,0.1027199849486351,-0.08996717631816864
1768576274404005600,6.421005615234375,-0.0167909637093544,0.10421828180551529,-0.07989057153463364
1768576274414005500,6.431005615234375,-0.011712849140167236,0.11671809107065201,-0.06923100352287292
1768576274424005600,6.441005615234375,-0.015212508849799633,0.11361631006002426,-0.0703604519367218
1768576274434005500,6.451005615234375,-0.013228453695774078,0.12137676030397415,-0.07195115834474564
1768576274444004600,6.461004638671875,-0.013700099661946297,0.12041163444519043,-0.06980384886264801
1768576274454004500,6.47100439453125,-0.012799684889614582,0.12659336626529694,-0.07400977611541748
1768576274464004600,6.481004638671875,-0.01269635371863842,0.13989877700805664,-0.07776909321546555
1768576274474004500,6.49100439453125,-0.016570987179875374,0.14448846876621246,-0.07694964110851288
1768576274484004600,6.501004638671875,-0.015778962522745132,0.1465042233467102,-0.07414133846759796
1768576274494003500,6.51100341796875,-0.0120675815269351,0.14934980869293213,-0.06674813479185104
1768576274504003600,6.521003662109375,-0.01996651664376259,0.1471463143825531,-0.07443109154701233
1768576274514003500,6.53100341796875,-0.012923521921038628,0.16822150349617004,-0.0774039775133133
1768576274524003600,6.541003662109375,-0.013666809536516666,0.19103200733661652,-0.06616304069757462
1768576274534003500,6.55100341796875,-0.014256966300308704,0.20597048103809357,-0.06537181884050369
1768576274544002600,6.56100244140625,-0.009886186569929123,0.21848386526107788,-0.059422045946121216
1768576274554002400,6.57100244140625,-0.012565859593451023,0.21411281824111938,-0.05837995186448097
1768576274564002600,6.58100244140625,-0.010463027283549309,0.21460923552513123,-0.07245289534330368
1768576274574002400,6.59100244140625,-0.006472546607255936,0.2204410284757614,-0.08182961493730545
1768576274584002600,6.60100244140625,0.002055427758023143,0.23815371096134186,-0.07468835264444351
1768576274594001400,6.61100146484375,0.01146623957902193,0.24529071152210236,-0.06975963711738586
1768576274604001500,6.62100146484375,0.019030949100852013,0.2583037316799164,-0.062243666499853134
1768576274614001400,6.63100146484375,0.025721607729792595,0.26874810457229614,-0.05793467164039612
1768576274624001500,6.64100146484375,0.03195127472281456,0.27975600957870483,-0.05627419054508209
1768576274634001400,6.65100146484375,0.039792418479919434,0.2896011769771576,-0.058331482112407684
1768576274644000500,6.66100048828125,0.04440607875585556,0.29026564955711365,-0.052272260189056396
1768576274654000600,6.671000732421875,0.0461491197347641,0.27709072828292847,-0.03723844885826111
1768576274664000500,6.68100048828125,0.053573478013277054,0.27794772386550903,-0.030944867059588432
1768576274674000400,6.69100048828125,0.059841763228178024,0.27923110127449036,-0.02658740244805813
1768576274684000500,6.70100048828125,0.06100796163082123,0.27430984377861023,-0.027359718456864357
1768576274693999600,6.71099951171875,0.05897010862827301,0.2572579085826874,-0.03779425099492073
1768576274703999500,6.72099951171875,0.060866013169288635,0.2558048665523529,-0.04710226505994797
1768576274713999600,6.73099951171875,0.06631457805633545,0.26404309272766113,-0.0540832094848156
1768576274723999500,6.74099951171875,0.06419123709201813,0.2752622067928314,-0.059236690402030945
1768576274733999600,6.75099951171875,0.06089717149734497,0.2906467318534851,-0.056648630648851395
1768576274743998500,6.76099853515625,0.06513266265392303,0.29427504539489746,-0.06093951687216759
1768576274753998600,6.77099853515625,0.07345157861709595,0.29378262162208557,-0.07441644370555878
1768576274763998500,6.78099853515625,0.07444653660058975,0.2761703431606293,-0.08642356842756271
1768576274773998600,6.79099853515625,0.08101895451545715,0.2521374225616455,-0.11838523298501968
1768576274783998500,6.80099853515625,0.0966826006770134,0.22250869870185852,-0.1482808142900467
1768576274793997600,6.81099755859375,0.1148458942770958,0.21250401437282562,-0.18617652356624603
1768576274803997400,6.82099755859375,0.1210651695728302,0.18991240859031677,-0.21039319038391113
1768576274813997600,6.83099755859375,0.12802347540855408,0.1594565063714981,-0.23038581013679504
1768576274823997400,6.84099755859375,0.12549561262130737,0.16016383469104767,-0.2472124546766281
1768576274833997600,6.85099755859375,0.11821266263723373,0.1657508909702301,-0.2605721950531006
1768576274843996400,6.860996337890625,0.10692272335290909,0.1947263479232788,-0.2824098467826843
1768576274853996500,6.87099658203125,0.09702321887016296,0.18362468481063843,-0.2770233452320099
1768576274863996400,6.880996337890625,0.10606332123279572,0.15276584029197693,-0.22931547462940216
1768576274873996500,6.89099658203125,0.10171730816364288,0.1390441656112671,-0.18985942006111145
1768576274883996400,6.900996337890625,0.09035999327898026,0.12639708817005157,-0.1838420033454895
1768576274893995500,6.91099560546875,0.09562133252620697,0.08915624022483826,-0.20991115272045135
1768576274903995400,6.920995361328125,0.10595706105232239,0.07917364686727524,-0.21372373402118683
1768576274913995500,6.93099560546875,0.1131523847579956,0.09699685126543045,-0.19954107701778412
1768576274923995400,6.940995361328125,0.11837910860776901,0.12471742928028107,-0.19527681171894073
1768576274933995500,6.95099560546875,0.13130129873752594,0.1319817304611206,-0.21050290763378143
1768576274943994600,6.96099462890625,0.12818220257759094,0.12269609421491623,-0.21604308485984802
1768576274953994500,6.970994384765625,0.13973365724086761,0.07251974195241928,-0.21365875005722046
1768576274963994600,6.98099462890625,0.15302550792694092,0.023971378803253174,-0.19984573125839233
1768576274973994500,6.990994384765625,0.14296993613243103,0.024763403460383415,-0.19594606757164001
1768576274983994400,7.000994384765625,0.15085023641586304,0.046910252422094345,-0.20330172777175903
1768576274993993500,7.010993408203125,0.1483447253704071,0.0574028380215168,-0.20018263161182404
1768576275003993600,7.02099365234375,0.13113725185394287,0.0794929638504982,-0.21241745352745056
1768576275013993500,7.030993408203125,0.12846262753009796,0.0921110212802887,-0.2276802957057953
1768576275023993600,7.04099365234375,0.09085720032453537,0.17086787521839142,-0.2706370949745178
1768576275033993500,7.050993408203125,0.05090286210179329,0.1433028280735016,-0.3142801821231842
1768576275043992600,7.06099267578125,0.03899267315864563,0.1509418487548828,-0.31261223554611206
1768576275053992200,7.0709921875,0.03056403435766697,0.13635064661502838,-0.2800785303115845
1768576275063992300,7.080992431640625,0.01618696004152298,0.17541788518428802,-0.26199114322662354
1768576275073992200,7.0909921875,0.026125343516469002,0.16443873941898346,-0.26024729013442993
1768576275083992300,7.100992431640625,0.03460298478603363,0.1424759179353714,-0.22918365895748138
1768576275093991200,7.1109912109375,0.04739893972873688,0.1492597907781601,-0.21715974807739258
1768576275103991300,7.1209912109375,0.05999010056257248,0.12808287143707275,-0.22818416357040405
1768576275113991200,7.1309912109375,0.05055025964975357,0.11312149465084076,-0.22979405522346497
1768576275123991300,7.1409912109375,0.04156608507037163,0.09657740592956543,-0.21754217147827148
1768576275133991200,7.1509912109375,0.045936599373817444,0.07552991062402725,-0.19132815301418304
1768576275143990300,7.160990234375,0.03696760535240173,0.04728629067540169,-0.13978266716003418
1768576275153990100,7.170990234375,0.04492859169840813,0.031977906823158264,-0.10315833985805511
1768576275163990300,7.180990234375,0.05126158893108368,0.05878874659538269,-0.07006777077913284
1768576275173990100,7.190990234375,0.07477543503046036,0.08706219494342804,-0.025955967605113983
1768576275183990300,7.200990234375,0.09148890525102615,0.08689308911561966,0.014915832318365574
1768576275193989400,7.2109892578125,0.09399627149105072,0.09331876039505005,0.038658179342746735
1768576275203989200,7.2209892578125,0.06617981940507889,0.09031791239976883,0.030706780031323433
1768576275213989400,7.2309892578125,0.055150870233774185,0.038357242941856384,-0.011886753141880035
1768576275223989200,7.2409892578125,0.05742707476019859,-0.00455693481490016,-0.0705559253692627
1768576275233989000,7.250989013671875,0.08051428198814392,-0.0021321268286556005,-0.12486497312784195
1768576275243988200,7.26098828125,0.097057044506073,-0.005566006526350975,-0.13577274978160858
1768576275253988400,7.27098828125,0.11197660118341446,-0.007282414007931948,-0.10733284801244736
1768576275263988200,7.28098828125,0.12998223304748535,-0.01877688430249691,-0.05237079784274101
1768576275273988400,7.29098828125,0.11126899719238281,-0.046121157705783844,-0.0027270768769085407
1768576275283988200,7.30098828125,0.052374523133039474,-0.05915200337767601,0.031502265483140945
1768576275293987300,7.3109873046875,0.04177594184875488,-0.1571398228406906,0.06966856122016907
1768576275303987200,7.3209873046875,0.093593068420887,-0.15053623914718628,0.06283275783061981
1768576275313987300,7.3309873046875,0.09043189883232117,-0.14605121314525604,0.026261964812874794
1768576275323987200,7.3409873046875,0.1015295535326004,-0.12792281806468964,-0.027169568464159966
1768576275333987300,7.3509873046875,0.0805523693561554,-0.10990545898675919,-0.07329472154378891
1768576275343986200,7.360986083984375,0.06502294540405273,-0.11858044564723969,-0.11002770066261292
1768576275353986300,7.370986328125,0.05385177955031395,-0.13467685878276825,-0.15481141209602356
1768576275363986200,7.380986083984375,0.03947976604104042,-0.16263312101364136,-0.16036197543144226
1768576275373986300,7.390986328125,0.04267928749322891,-0.17522375285625458,-0.14623524248600006
1768576275383986200,7.400986083984375,0.04210804030299187,-0.21544121205806732,-0.12075198441743851
1768576275393985300,7.4109853515625,0.032233305275440216,-0.28206685185432434,-0.09580641984939575
1768576275403985200,7.420985107421875,0.0454990416765213,-0.323078989982605,-0.08596497774124146
1768576275413985300,7.4309853515625,0.04587002098560333,-0.34374403953552246,-0.09078050404787064
1768576275423985200,7.440985107421875,0.032282836735248566,-0.40218445658683777,-0.10698690265417099
1768576275433985300,7.4509853515625,0.0320599302649498,-0.4203011393547058,-0.12001428753137589
1768576275443984400,7.460984375,0.04170297086238861,-0.40587133169174194,-0.13231569528579712
1768576275453984300,7.470984375,0.05222272500395775,-0.35080116987228394,-0.15225344896316528
1768576275463984000,7.480984130859375,0.05824093520641327,-0.34948715567588806,-0.18376849591732025
1768576275473984300,7.490984375,0.04619386047124863,-0.3747695982456207,-0.2053678035736084
1768576275483984100,7.500984130859375,0.028912873938679695,-0.39094510674476624,-0.20743334293365479
1768576275493983200,7.510983154296875,0.027889687567949295,-0.42377549409866333,-0.21723590791225433
1768576275503983400,7.5209833984375,0.03167057782411575,-0.41235506534576416,-0.24160251021385193
1768576275513983200,7.530983154296875,0.02881859801709652,-0.408065527677536,-0.278804212808609
1768576275523983400,7.5409833984375,0.02273593842983246,-0.3798631727695465,-0.29120999574661255
1768576275533983200,7.550983154296875,-0.014492389746010303,-0.3285760283470154,-0.2936673164367676
1768576275543982300,7.560982421875,-0.05535806342959404,-0.2890395224094391,-0.2791275084018707
1768576275553982200,7.570982177734375,-0.08122028410434723,-0.30986490845680237,-0.2867204546928406
1768576275563982300,7.580982421875,-0.09851991385221481,-0.3125115633010864,-0.28346580266952515
1768576275573982200,7.590982177734375,-0.1126069724559784,-0.3169981837272644,-0.26701492071151733
1768576275583982300,7.600982421875,-0.11180509626865387,-0.31704452633857727,-0.24116361141204834
1768576275593981200,7.610981201171875,-0.09951087832450867,-0.33969631791114807,-0.22000080347061157
1768576275603981300,7.620981201171875,-0.09093603491783142,-0.387478232383728,-0.20463436841964722
1768576275613981200,7.630981201171875,-0.07750411331653595,-0.4440922141075134,-0.18450699746608734
1768576275623981300,7.640981201171875,-0.05702733248472214,-0.4711001515388489,-0.17398618161678314
1768576275633981200,7.650981201171875,-0.041789792478084564,-0.45036929845809937,-0.16815891861915588
1768576275643980300,7.660980224609375,-0.02966202236711979,-0.4276144504547119,-0.1496233195066452
1768576275653980200,7.670980224609375,-0.01332592498511076,-0.4349256157875061,-0.11501473933458328
1768576275663980300,7.680980224609375,-0.008987636305391788,-0.4478648602962494,-0.0801885798573494
1768576275673980200,7.690980224609375,-0.002061286708340049,-0.4530372619628906,-0.0603293851017952
1768576275683980300,7.700980224609375,-0.0008159925346262753,-0.4821759760379791,-0.05721881613135338
1768576275693979100,7.710979248046875,-0.004471180960536003,-0.5006359219551086,-0.0604763925075531
1768576275703979300,7.720979248046875,-0.023926371708512306,-0.5222501754760742,-0.07272027432918549
1768576275713979100,7.730979248046875,-0.017050089314579964,-0.5309954285621643,-0.08141390234231949
1768576275723979300,7.740979248046875,-0.01811322383582592,-0.554779589176178,-0.08391114324331284
1768576275733979100,7.750979248046875,-0.02497139573097229,-0.5939232707023621,-0.08504245430231094
1768576275743978200,7.760978271484375,-0.01667378470301628,-0.6247328519821167,-0.10057294368743896
1768576275753978400,7.770978271484375,-0.012837234884500504,-0.6400595903396606,-0.11367197334766388
1768576275763978200,7.780978271484375,-0.016956079751253128,-0.6453260183334351,-0.12030138075351715
1768576275773978000,7.79097802734375,-0.028979454189538956,-0.6417009234428406,-0.12380210310220718
1768576275783978200,7.800978271484375,-0.03080398589372635,-0.6368044018745422,-0.11921826750040054
1768576275793977300,7.810977294921875,-0.04075009375810623,-0.6498110294342041,-0.12436775863170624
1768576275803977200,7.820977294921875,-0.04430381581187248,-0.673059344291687,-0.12218582630157471
1768576275813977300,7.830977294921875,-0.03952663764357567,-0.7015945911407471,-0.11883051693439484
1768576275823977200,7.840977294921875,-0.04080335423350334,-0.7192950248718262,-0.12764957547187805
1768576275833977300,7.850977294921875,-0.04478984326124191,-0.7319839596748352,-0.1519506424665451
1768576275843976200,7.86097607421875,-0.05464007705450058,-0.7306368947029114,-0.18301083147525787
1768576275853976300,7.870976318359375,-0.06257416307926178,-0.7471125721931458,-0.19788405299186707
1768576275863976200,7.88097607421875,-0.06180104985833168,-0.7677845358848572,-0.1889568716287613
1768576275873976300,7.890976318359375,-0.061112623661756516,-0.797532320022583,-0.17442239820957184
1768576275883976200,7.90097607421875,-0.06058797985315323,-0.8352251052856445,-0.17184153199195862
1768576275893975300,7.910975341796875,-0.055020108819007874,-0.880030632019043,-0.1711006462574005
1768576275903975200,7.92097509765625,-0.05519108474254608,-0.9347975254058838,-0.17067107558250427
1768576275913975300,7.930975341796875,-0.05787315219640732,-0.9877435564994812,-0.16750377416610718
1768576275923975200,7.94097509765625,-0.060683052986860275,-1.0377827882766724,-0.17154139280319214
1768576275933975300,7.950975341796875,-0.05927131325006485,-1.07965087890625,-0.17991596460342407
1768576275943974100,7.96097412109375,-0.06568074226379395,-1.103784441947937,-0.17844857275485992
1768576275953974300,7.970974365234375,-0.07137911021709442,-1.114349126815796,-0.18072371184825897
1768576275963974100,7.98097412109375,-0.08357425779104233,-1.1129467487335205,-0.18196527659893036
1768576275973974300,7.990974365234375,-0.10340575128793716,-1.105137825012207,-0.183057963848114
1768576275983974100,8.00097412109375,-0.12644581496715546,-1.0898137092590332,-0.17972129583358765
1768576275993973200,8.01097314453125,-0.14631487429141998,-1.0787723064422607,-0.17737585306167603
1768576276003973000,8.02097314453125,-0.162845641374588,-1.064118504524231,-0.18070586025714874
1768576276013973200,8.03097314453125,-0.1710231453180313,-1.0462092161178589,-0.18241988122463226
1768576276023973000,8.04097314453125,-0.1799575239419937,-1.0184993743896484,-0.17909066379070282
1768576276033973200,8.05097314453125,-0.18733447790145874,-0.9970166683197021,-0.16426803171634674
1768576276043972400,8.060972412109376,-0.1943657547235489,-0.970574140548706,-0.14828000962734222
1768576276053971700,8.0709716796875,-0.2010103315114975,-0.9292586445808411,-0.12557309865951538
1768576276063971800,8.080971923828125,-0.2032947987318039,-0.874271035194397,-0.09706795960664749
1768576276073971700,8.0909716796875,-0.20852550864219666,-0.8237199783325195,-0.06744056195020676
1768576276083971800,8.100971923828125,-0.2164904922246933,-0.783333420753479,-0.06084976717829704
1768576276093970700,8.110970703125,-0.22569145262241364,-0.758749783039093,-0.0595722496509552
1768576276103970800,8.120970703125,-0.23126065731048584,-0.7355000972747803,-0.06949146091938019
1768576276113970700,8.130970703125,-0.22982999682426453,-0.7208734750747681,-0.07052716612815857
1768576276123970800,8.140970703125,-0.22638334333896637,-0.6848102807998657,-0.07289471477270126
1768576276133969700,8.1509697265625,-0.22746804356575012,-0.6497729420661926,-0.0592058002948761
1768576276143969800,8.1609697265625,-0.2243122011423111,-0.6006687879562378,-0.049918822944164276
1768576276153969700,8.1709697265625,-0.22122745215892792,-0.5549862384796143,-0.03641100600361824
1768576276163969800,8.1809697265625,-0.21812701225280762,-0.5053345561027527,-0.03633963316679001
1768576276173969700,8.1909697265625,-0.2078796923160553,-0.4549315571784973,-0.025242771953344345
1768576276183968800,8.20096875,-0.20030486583709717,-0.415058434009552,-0.020369453355669975
1768576276193969000,8.210968994140625,-0.1957995891571045,-0.37292855978012085,-0.014860971830785275
1768576276203968800,8.22096875,-0.19057287275791168,-0.34242233633995056,-0.011724567040801048
1768576276213968600,8.23096875,-0.18261614441871643,-0.31773456931114197,0.000023435817638528533
1768576276223968800,8.24096875,-0.17008517682552338,-0.2881156802177429,0.005759884603321552
1768576276233967900,8.2509677734375,-0.15662743151187897,-0.2584879994392395,0.004248274490237236
1768576276243967700,8.2609677734375,-0.14531750977039337,-0.22559210658073425,-0.021017933264374733
1768576276253968000,8.2709677734375,-0.13224831223487854,-0.19040030241012573,-0.06391240656375885
1768576276263967700,8.2809677734375,-0.11871945858001709,-0.16609735786914825,-0.11777510493993759
1768576276273967600,8.290967529296875,-0.11697801947593689,-0.134269118309021,-0.16682706773281097
1768576276283966700,8.300966796875,-0.11365039646625519,-0.11443603038787842,-0.20794467628002167
1768576276293966800,8.310966796875,-0.10528301447629929,-0.12913694977760315,-0.226189985871315
1768576276303966700,8.320966796875,-0.10316766053438187,-0.13757091760635376,-0.21250374615192413
1768576276313966800,8.330966796875,-0.09433449059724808,-0.13764122128486633,-0.1823522299528122
1768576276323966700,8.340966796875,-0.09192885458469391,-0.14156991243362427,-0.151993528008461
1768576276333965800,8.3509658203125,-0.08822733163833618,-0.1609388142824173,-0.12997637689113617
1768576276343965700,8.360965576171875,-0.09581121057271957,-0.19515565037727356,-0.11545069515705109
1768576276353965800,8.3709658203125,-0.10824338346719742,-0.22125808894634247,-0.11029854416847229
1768576276363965700,8.380965576171874,-0.11754181236028671,-0.23399491608142853,-0.1062215119600296
1768576276373965800,8.3909658203125,-0.12499520182609558,-0.2476353645324707,-0.10563614964485168
1768576276383964700,8.400964599609376,-0.13115055859088898,-0.28446102142333984,-0.12088913470506668
1768576276393964800,8.41096484375,-0.12996838986873627,-0.2927458584308624,-0.11909469962120056
1768576276403964700,8.420964599609375,-0.12808074057102203,-0.27654558420181274,-0.11589810997247696
1768576276413964800,8.43096484375,-0.12145186215639114,-0.26188647747039795,-0.10329815745353699
1768576276423964700,8.440964599609375,-0.10862661153078079,-0.25584909319877625,-0.08926835656166077
1768576276433963800,8.4509638671875,-0.09243352711200714,-0.2561476230621338,-0.06877852976322174
1768576276443963600,8.460963623046876,-0.0820234939455986,-0.2564048767089844,-0.05638045072555542
1768576276453963800,8.4709638671875,-0.08039124310016632,-0.24065256118774414,-0.05269170552492142
1768576276463963600,8.480963623046875,-0.08231990784406662,-0.22968804836273193,-0.061594653874635696
1768576276473963800,8.4909638671875,-0.08451781421899796,-0.2226967215538025,-0.06803284585475922
1768576276483963000,8.500962890625,-0.0832192525267601,-0.21727026998996735,-0.07715150713920593
1768576276493962800,8.510962646484375,-0.08114118874073029,-0.2076602578163147,-0.08403338491916656
1768576276503963000,8.520962890625,-0.07648918032646179,-0.20469854772090912,-0.10346060991287231
1768576276513962800,8.530962646484374,-0.06968427449464798,-0.19988888502120972,-0.10932382941246033
1768576276523962600,8.540962646484376,-0.06172515079379082,-0.18656109273433685,-0.10664601624011993
1768576276533961700,8.550961669921875,-0.05468535050749779,-0.15383084118366241,-0.0954868420958519
1768576276543961900,8.5609619140625,-0.04515442997217178,-0.12235680222511292,-0.08188767731189728
1768576276553961700,8.570961669921875,-0.03737347200512886,-0.10219534486532211,-0.05862816050648689
1768576276563961900,8.5809619140625,-0.029857497662305832,-0.07690410315990448,-0.0404246561229229
1768576276573961700,8.590961669921874,-0.032110266387462616,-0.045815158635377884,-0.01955718919634819
1768576276583960800,8.6009609375,-0.03462402522563934,-0.02733015827834606,-0.009739712812006474
1768576276593960700,8.610960693359376,-0.03633217513561249,-0.030459372326731682,-0.0172056183218956
1768576276603960800,8.6209609375,-0.030184533447027206,-0.035465314984321594,-0.007948470301926136
1768576276613960700,8.630960693359375,-0.020546553656458855,-0.022903718054294586,0.014912370592355728
1768576276623960800,8.6409609375,-0.004102333448827267,-0.0011579424608498812,0.03622564673423767
1768576276633959700,8.650959716796875,0.011575696058571339,0.023855531588196754,0.05115053430199623
1768576276643959800,8.660959716796874,0.018428808078169823,0.03326874226331711,0.0734768807888031
1768576276653959700,8.670959716796874,0.009520800784230232,0.028441760689020157,0.08790988475084305
1768576276663959800,8.680959716796876,-0.001416269107721746,0.011860121041536331,0.08627283573150635
1768576276673959700,8.690959716796876,-0.01852628029882908,-0.01985146850347519,0.06364555656909943
1768576276683958800,8.700958740234375,-0.0327179990708828,-0.048357944935560226,0.033424269407987595
1768576276693958700,8.710958740234375,-0.04234612360596657,-0.06541575491428375,0.017885522916913033
1768576276703958800,8.720958740234375,-0.045703038573265076,-0.07154501974582672,0.015117700211703777
1768576276713958700,8.730958740234374,-0.05227332562208176,-0.07028934359550476,0.019147329032421112
1768576276723958800,8.740958740234374,-0.06256457418203354,-0.043469980359077454,0.038714371621608734
1768576276733958000,8.7509580078125,-0.06456407904624939,-0.015015434473752975,0.057523213326931
1768576276743957800,8.760957763671875,-0.0719466283917427,0.0008990831556729972,0.06942248344421387
1768576276753957600,8.77095751953125,-0.08477666974067688,0.005142830312252045,0.07581300288438797
1768576276763957800,8.780957763671875,-0.09656382352113724,0.001278849900700152,0.076146699488163
1768576276773957600,8.79095751953125,-0.10623642802238464,-0.018247447907924652,0.08240832388401031
1768576276783956700,8.800956787109374,-0.10878054052591324,-0.04799362272024155,0.08031827211380005
1768576276793956900,8.810956787109374,-0.10866709053516388,-0.05168236792087555,0.07878509163856506
1768576276803956700,8.820956787109376,-0.10581830888986588,-0.035115376114845276,0.07450991868972778
1768576276813956900,8.830956787109375,-0.10659914463758469,-0.0306287482380867,0.07103981822729111
1768576276823956700,8.840956787109375,-0.0948876291513443,-0.035418178886175156,0.06672683358192444
1768576276833955800,8.850955810546875,-0.09254538267850876,-0.0423586405813694,0.06176270171999931
1768576276843955700,8.860955810546875,-0.0852869376540184,-0.04146568477153778,0.051051732152700424
1768576276853955800,8.870955810546874,-0.08142855018377304,-0.03025856986641884,0.04824769124388695
1768576276863955700,8.880955810546874,-0.0847279354929924,-0.018448248505592346,0.04182387888431549
1768576276873955800,8.890955810546876,-0.08174732327461243,0.009650763124227524,0.026327744126319885
1768576276883954700,8.90095458984375,-0.08131776005029678,0.03706134855747223,0.003020024625584483
1768576276893954800,8.910954833984375,-0.07740318030118942,0.07028721272945404,-0.009887784719467163
1768576276903954700,8.92095458984375,-0.07474987208843231,0.10004377365112305,-0.01691773161292076
1768576276913954800,8.930954833984375,-0.07250961661338806,0.12692385911941528,-0.025185780599713326
1768576276923953700,8.94095361328125,-0.06360374391078949,0.1381983458995819,-0.044858284294605255
1768576276933953800,8.950953857421876,-0.046671632677316666,0.12304549664258957,-0.05925586819648743
1768576276943953700,8.96095361328125,-0.026092587038874626,0.10801541805267334,-0.05663212016224861
1768576276953953800,8.970953857421875,-0.013912087306380272,0.08158247917890549,-0.04373070225119591
1768576276963953700,8.98095361328125,-0.015783490613102913,0.06258641928434372,-0.023188943043351173
1768576276973952800,8.990952880859375,-0.012521650642156601,0.06417419016361237,-0.011859855614602566
1768576276983952600,9.00095263671875,-0.011518171988427639,0.07809986174106598,-0.008310660719871521
1768576276993952800,9.010952880859374,-0.017106814309954643,0.09659072011709213,-0.002966228872537613
1768576277003952600,9.02095263671875,-0.016174709424376488,0.0885772705078125,-0.008919725194573402
1768576277013952800,9.030952880859376,-0.01894226484000683,0.07826071977615356,-0.00535375252366066
1768576277023952000,9.040951904296875,-0.014691594056785107,0.07279111444950104,0.0018844527658075094
1768576277033951700,9.05095166015625,-0.006484797224402428,0.06250812113285065,0.009700830094516277
1768576277043951900,9.060951904296875,-0.008447812870144844,0.048889778554439545,0.012326707132160664
1768576277053952800,9.070952880859375,-0.006746319588273764,0.05167251452803612,0.012540026567876339
1768576277063952600,9.08095263671875,-0.004698082339018583,0.05543955788016319,0.0052142031490802765
1768576277073951500,9.090951416015624,-0.003968908917158842,0.05618524178862572,0.004065847955644131
1768576277083951400,9.100951416015626,-0.006743922829627991,0.05327121168375015,0.00871945545077324
1768576277093951700,9.11095166015625,-0.010654508136212826,0.049193114042282104,0.01296346914023161
1768576277103951600,9.12095166015625,-0.007949003018438816,0.04362710565328598,0.02189970575273037
1768576277113951700,9.13095166015625,-0.007015032693743706,0.025019599124789238,0.022242721170186996
1768576277123950600,9.14095068359375,-0.011037470772862434,0.015849003568291664,0.01906770095229149
1768576277133950500,9.150950439453124,-0.0090555464848876,0.007957525551319122,0.027883030474185944
1768576277143950600,9.16095068359375,-0.009253153577446938,0.006287456955760717,0.032640233635902405
1768576277153950700,9.17095068359375,-0.009525327943265438,0.004794222768396139,0.04079962894320488
1768576277163950600,9.18095068359375,-0.00923557672649622,0.01619521528482437,0.038660310208797455
1768576277173949400,9.190949462890625,-0.007592406123876572,0.03272385895252228,0.031254325062036514
1768576277183949600,9.200949462890625,-0.00609357887879014,0.042566101998090744,0.029805565252900124
1768576277193949700,9.21094970703125,-0.0037404096219688654,0.05004851892590523,0.030128873884677887
1768576277203949600,9.220949462890625,-0.0016737966798245907,0.055688031017780304,0.0234035924077034
1768576277213949700,9.23094970703125,-0.004701810888946056,0.06458298861980438,0.022582007572054863
1768576277223948500,9.240948486328126,-0.008724515326321125,0.06175098195672035,0.022956980392336845
1768576277233948700,9.25094873046875,-0.006390521302819252,0.05714850872755051,0.019232550635933876
1768576277243948800,9.26094873046875,-0.01233389787375927,0.04054529592394829,0.00932319462299347
1768576277253948700,9.27094873046875,-0.010801248252391815,0.022824356332421303,0.0021558289881795645
1768576277263948800,9.28094873046875,-0.01338824350386858,0.018074873834848404,0.0024258734192699194
1768576277273947400,9.290947509765624,-0.013911554589867592,0.020805146545171738,0.0016383767360821366
1768576277283947800,9.30094775390625,-0.016379239037632942,0.029352828860282898,0.00210629403591156
1768576277293947600,9.31094775390625,-0.01920272223651409,0.04167740419507027,0.005694104824215174
1768576277303947800,9.32094775390625,-0.02787051349878311,0.05464540049433708,0.016642360016703606
1768576277313947600,9.33094775390625,-0.03363146260380745,0.06385408341884613,0.02629392221570015
1768576277323946500,9.340946533203125,-0.0368749275803566,0.07166699320077896,0.02791685238480568
1768576277333946600,9.350946533203125,-0.03717213496565819,0.08739935606718063,0.03166818246245384
1768576277343946800,9.36094677734375,-0.03581898286938667,0.09808981418609619,0.03273291140794754
1768576277353946600,9.370946533203124,-0.030051110312342644,0.09854122251272202,0.034566763788461685
1768576277363946800,9.38094677734375,-0.022712236270308495,0.09035253524780273,0.03760702908039093
1768576277373945600,9.390945556640625,-0.015893479809165,0.08912002295255661,0.048528920859098434
1768576277383945700,9.40094580078125,-0.010513626970350742,0.08809097856283188,0.052491702139377594
1768576277393945600,9.410945556640625,-0.009546101093292236,0.09272301197052002,0.058457184582948685
1768576277403945700,9.42094580078125,-0.013432185165584087,0.10602577030658722,0.06369349360466003
1768576277413945600,9.430945556640625,-0.008814264088869095,0.10066375881433487,0.05914800986647606
1768576277423944400,9.4409443359375,-0.011171428486704826,0.097757987678051,0.045819953083992004
1768576277433944600,9.450944580078126,-0.012257997877895832,0.0944596603512764,0.029684392735362053
1768576277443944700,9.46094482421875,-0.01004917174577713,0.08747658878564835,0.004286624025553465
1768576277453944600,9.470944580078125,-0.010974886827170849,0.07266221940517426,-0.014070278964936733
1768576277463944700,9.48094482421875,-0.0065740132704377174,0.05650775134563446,-0.015986423939466476
1768576277473943600,9.490943603515625,-0.004704474005848169,0.04375786706805229,-0.014991732314229012
1768576277483943700,9.500943603515625,-0.005416070576757193,0.039213716983795166,-0.009438775479793549
1768576277493943800,9.51094384765625,-0.0059963734820485115,0.03115871734917164,-0.007078149355947971
1768576277503943700,9.520943603515626,-0.00965928565710783,0.025920547544956207,-0.007921306416392326
1768576277513942500,9.530942626953125,-0.008840629830956459,0.014770690351724625,-0.0023156185634434223
1768576277523942400,9.5409423828125,-0.012049738317728043,0.014545120298862457,-0.0025244103744626045
1768576277533942800,9.55094287109375,-0.011713114567101002,0.013853497803211212,-0.0008191883680410683
1768576277543942700,9.560942626953125,-0.01327026542276144,0.021799039095640182,0.0005510080372914672
1768576277553942800,9.57094287109375,-0.015569105744361877,0.025853168219327927,0.0029435919132083654
1768576277563941400,9.58094140625,-0.01318318024277687,0.030911309644579887,0.0041646515019237995
1768576277573941800,9.590941650390626,-0.010334396734833717,0.03568262979388237,0.006857373286038637
1768576277583941600,9.600941650390626,-0.0067828050814569,0.04260551556944847,0.007458448875695467
1768576277593941800,9.610941650390625,-0.0028011128306388855,0.04903119057416916,0.0043718451634049416
1768576277603941600,9.620941650390625,-0.001654355670325458,0.050755057483911514,0.007404652889817953
1768576277613940500,9.6309404296875,0.000395745737478137,0.04918059706687927,0.00926433876156807
1768576277623940600,9.640940673828124,0.002633866388350725,0.046960316598415375,0.0023552996572107077
1768576277633940700,9.650940673828124,0.0032868734560906887,0.045457497239112854,0.002412823960185051
1768576277643940600,9.660940673828126,0.006946855690330267,0.04402551427483559,-0.004274639766663313
1768576277653940700,9.670940673828126,0.012014318257570267,0.04396878927946091,-0.004779309034347534
1768576277663939600,9.680939697265625,0.014057761989533901,0.0490274652838707,-0.0041468082927167416
1768576277673939700,9.690939697265625,0.01549267303198576,0.05226879566907883,-0.002561694709584117
1768576277683939600,9.700939697265625,0.018544655293226242,0.04574724659323692,-0.0021574266720563173
1768576277693939700,9.710939697265625,0.016351809725165367,0.039137549698352814,-0.002971821464598179
1768576277703939600,9.720939697265624,0.016164589673280716,0.029767217114567757,-0.010187656618654728
1768576277713938400,9.7309384765625,0.014103301800787449,0.027998877689242363,-0.014091850258409977
1768576277723938800,9.740938720703125,0.013630324974656105,0.026278475299477577,-0.014699850231409073
1768576277733938700,9.750938720703125,0.013145096600055695,0.01804158464074135,-0.012418586760759354
1768576277743938600,9.7609384765625,0.010526676662266254,-0.0003528688393998891,-0.01275867223739624
1768576277753938700,9.770938720703125,0.009987386874854565,-0.022098643705248833,-0.017184313386678696
1768576277763937500,9.7809375,0.009404953569173813,-0.04273680970072746,-0.022727949544787407
1768576277773937700,9.790937744140624,0.009822803549468517,-0.042983151972293854,-0.025913355872035027
1768576277783937800,9.800937744140626,0.0070946612395346165,-0.04549318179488182,-0.027510186657309532
1768576277793937700,9.810937744140626,0.008477107621729374,-0.03707306459546089,-0.029166674241423607
1768576277803937800,9.820937744140625,0.009811085648834705,-0.035359855741262436,-0.03311347961425781
1768576277813936400,9.830936279296875,0.009920541197061539,-0.03363199532032013,-0.02677488885819912
1768576277823936800,9.840936767578125,0.010771953500807285,-0.02359933592379093,-0.0247879046946764
1768576277833936600,9.8509365234375,0.011786351911723614,-0.02810353972017765,-0.02214019000530243
1768576277843936800,9.860936767578124,0.014006096869707108,-0.031320903450250626,-0.02093644067645073
1768576277853936600,9.8709365234375,0.01392779964953661,-0.03783313184976578,-0.021525532007217407
1768576277863935500,9.880935546875,0.010573015548288822,-0.04357144609093666,-0.013789315707981586
1768576277873935600,9.890935546875,0.0086616650223732,-0.03314223885536194,-0.009727728553116322
1768576277883935700,9.900935791015625,0.003915112931281328,-0.023936757817864418,-0.0027688886038959026
1768576277893935600,9.910935546875,0.002039981307461858,-0.01236159447580576,0.002055161399766803
1768576277903935700,9.920935791015625,-0.0005699164466932416,-0.0014516890514642,0.003858121344819665
1768576277913934600,9.9309345703125,0.00152306177187711,0.007978297770023346,0.0005408879951573908
1768576277923934700,9.940934814453126,0.0009363674325868487,0.008052600547671318,-0.0033390712924301624
1768576277933934600,9.9509345703125,0.0017411747248843312,0.008020375855267048,-0.004078631289303303
1768576277943934700,9.960934814453125,0.0024732777383178473,0.006956176832318306,-0.0024684839881956577
1768576277953934600,9.9709345703125,0.003096990054473281,0.003938282374292612,-0.00039787625428289175
1768576277963933700,9.98093359375,0.0026112294290214777,-0.00033209618413820863,0.0014029532903805375
1768576277973933800,9.990933837890625,0.003278883872553706,-0.0007787083159200847,-0.0002993392990902066
1768576277983933700,10.00093359375,0.004431500099599361,0.0019108180422335863,0.0041151163168251514
1768576277993933600,10.01093359375,0.0035119105596095324,0.005757221486419439,-0.00046312372433021665
1768576278003933700,10.02093359375,0.003988616168498993,0.009941580705344677,-0.0012471582740545273
1768576278013932800,10.030932861328125,0.003312173532322049,0.010586331598460674,0.00019334549142513424
1768576278023932700,10.0409326171875,0.002350505907088518,0.011685684323310852,0.000147272803587839
1768576278033932800,10.050932861328125,0.0028075044974684715,0.012054000049829483,-0.001261539408005774
1768576278043932700,10.0609326171875,-0.0013907026732340455,0.008518120273947716,-0.0016317188274115324
1768576278053931000,10.070930908203126,-0.0027382622938603163,0.010803645476698875,-0.004159058444201946
1768576278063931000,10.080930908203126,0.0001954760227818042,0.011012437753379345,-0.005150287412106991
1768576278073931000,10.090930908203125,0.002035187790170312,0.00484189298003912,-0.0068001155741512775
1768576278083931000,10.100930908203125,0.001942776027135551,0.00003355582884978503,-0.009697102010250092
1768576278093931000,10.110930908203125,0.0046354979276657104,-0.007381217088550329,-0.013593040406703949
1768576278103930000,10.12093017578125,0.006968427449464798,-0.006974818650633097,-0.01816648617386818
1768576278113930000,10.130929931640624,0.007053382229059935,-0.01200020406395197,-0.02496553771197796
1768576278123929900,10.140929931640626,0.004854676313698292,-0.017909225076436996,-0.02678394317626953
1768576278133930000,10.150929931640626,0.0010575412306934595,-0.016407735645771027,-0.024987375363707542
1768576278143929900,10.160929931640625,0.0008133294177241623,-0.020556140691041946,-0.020538298413157463
1768576278153929000,10.170928955078125,-0.0037201696541160345,-0.024684308096766472,-0.015776298940181732
1768576278163929000,10.18092919921875,-0.004576376173645258,-0.02424675039947033,-0.01082548312842846
1768576278173929000,10.190928955078125,-0.0035236284602433443,-0.018546253442764282,-0.011243599466979504
1768576278183929000,10.20092919921875,-0.00458622956648469,-0.013050554320216179,-0.013765347190201283
1768576278193929000,10.210928955078124,-0.001972070662304759,-0.00546294217929244,-0.010235327295958996
1768576278203928000,10.220927978515626,-0.002112685702741146,-0.0005318332696333528,-0.0037289580795913935
1768576278213928000,10.230927978515625,-0.003020290983840823,0.003805657150223851,0.0016519587952643633
1768576278223928000,10.240927978515625,-0.0032384039368480444,0.0014029532903805375,0.00007776429993100464
1768576278233928000,10.250927978515625,-0.005438175052404404,0.0005587312043644488,-0.0003656520275399089
1768576278243928000,10.260927978515625,-0.004211789462715387,0.00010199906682828441,-0.0026706180069595575
1768576278253927000,10.270927001953124,-0.003690076060593128,0.0010673949727788568,-0.0020594224333763123
1768576278263927000,10.280927001953126,-0.003041063668206334,0.0022628880105912685,-0.002918558195233345
1768576278273927000,10.290927001953126,-0.004138552118092775,-0.0005022721597924829,0.0021315941121429205
1768576278283927000,10.300927001953125,-0.0029316076543182135,-0.0006130596739239991,0.004251736681908369
1768576278293927000,10.310927001953125,-0.0044139232486486435,-0.0031494542490690947,0.003953995183110237
1768576278303926000,10.320926025390625,-0.005149754695594311,-0.0057798586785793304,0.004032026045024395
1768576278313926000,10.33092578125,-0.005587311927229166,-0.003995806910097599,0.00827710423618555
1768576278323926000,10.340926025390624,-0.00720678037032485,-0.0027947211638092995,0.010043579153716564
1768576278333926000,10.35092578125,-0.007473895326256752,-0.001288171042688191,0.014282000251114368
1768576278343926000,10.360926025390626,-0.006688795518130064,-0.002223206916823983,0.012615660205483437
1768576278353924900,10.3709248046875,-0.007751662749797106,-0.003940146882086992,0.01161457784473896
1768576278363925000,10.380925048828125,-0.00558198569342494,-0.001999501371756196,0.005973204039037228
1768576278373924900,10.3909248046875,-0.002831472782418132,0.0035744947381317616,0.005466138012707233
1768576278383925000,10.400925048828125,-0.0017185378819704056,0.0056925066746771336,0.005884254351258278
1768576278393924900,10.4109248046875,0.0006157228490337729,0.007646201644092798,0.008325573988258839
1768576278403924000,10.420924072265626,0.0009084042394533753,0.004011253360658884,0.011599131859838963
1768576278413924000,10.430924072265626,0.000922519015148282,0.0015046859625726938,0.011321097612380981
1768576278423924000,10.440924072265625,-0.0006450176006183028,-0.002228266792371869,0.011257448233664036
1768576278433923800,10.450923828125,-0.0017867147689685225,-0.004521248396486044,0.004323908127844334
1768576278443924000,10.460924072265625,0.0007843009079806507,-0.002092445734888315,0.0012492889072746038
1768576278453923000,10.470923095703125,0.00008548746700398624,-0.0016735304379835725,-0.000811997801065445
1768576278463923000,10.4809228515625,0.002002697205170989,-0.0009278453071601689,-0.0006138586322776973
1768576278473923000,10.490923095703126,0.006039782892912626,0.002192314248532057,0.0030474551022052765
1768576278483923000,10.5009228515625,0.004861867055296898,0.002210689941421151,0.0029760824982076883
1768576278493922000,10.510922119140625,0.007044593803584576,0.0021872541401535273,0.001407480682246387
1768576278503922000,10.520921875,0.00826991442590952,0.0032109732273966074,-0.00011930961773032323
1768576278513922000,10.530922119140625,0.008898153901100159,0.003622964257374406,-0.0008279767935164273
1768576278523922000,10.540921875,0.008431567810475826,0.006088519003242254,-0.0025872609112411737
1768576278533922000,10.550922119140624,0.006309028714895248,0.0065471152774989605,-0.0037862160243093967
1768576278543921000,10.5609208984375,0.004040015395730734,0.007253918331116438,-0.0017057546647265553
1768576278553921000,10.570921142578126,0.004147340543568134,0.005683451890945435,-0.004673315212130547
1768576278563921000,10.5809208984375,0.0038868836127221584,0.0021811288315802813,-0.0062554990872740746
1768576278573921000,10.590921142578125,0.0033510555513203144,0.0017102820565924048,-0.007419300265610218
1768576278583921000,10.6009208984375,0.001883387565612793,-0.001413339632563293,-0.006381999235600233
1768576278593920000,10.610919921875,0.004026433452963829,-0.0072943982668221,0.00028762139845639467
1768576278603920000,10.620919921875,0.005038434639573097,-0.011025486513972282,-0.00040320257539860904
1768576278613920000,10.630919921875,0.0037936728913336992,-0.010517622344195843,-0.0014138722326606512
1768576278623919900,10.640919921875,0.004334294702857733,-0.0064922538585960865,0.00023915186466183513
1768576278633920000,10.650919921875,0.004551608581095934,-0.006455502472817898,0.0005960154230706394
1768576278643919000,10.660919189453125,0.004911401774734259,-0.0029198897536844015,0.0012679309584200382
1768576278653919000,10.6709189453125,0.0030269487760961056,-0.0009049421059899032,-0.0004058657505083829
1768576278663918800,10.6809189453125,0.0052136704325675964,-0.0010128001449629664,-0.0008317052270285785
1768576278673919000,10.6909189453125,0.005080512259155512,-0.0015193333383649588,-0.0006996124284341931
1768576278683918800,10.7009189453125,0.005306880921125412,-0.0005997438565827906,0.0001430117554264143
1768576278693918000,10.71091796875,0.0022154836915433407,0.0001978728687390685,-0.0009765811264514923
1768576278703918000,10.72091796875,0.0019403791520744562,-0.0020248014479875565,0.001118527608923614
1768576278713918000,10.73091796875,-0.00040799626731313765,-0.003991013392806053,0.0003153182624373585
1768576278723918000,10.74091796875,-0.0008772452711127698,-0.004010454285889864,-0.002014681464061141
1768576278733918000,10.75091796875,-0.002183525823056698,-0.004343882203102112,-0.0016138756182044744
1768576278743917000,10.7609169921875,-0.0016053534345701337,-0.0049095372669398785,-0.0014642059104517102
1768576278753917000,10.7709169921875,-0.00210735946893692,-0.0018335863715037704,-0.0001739044237183407
1768576278763917000,10.7809169921875,0.0026410568971186876,-0.00016218650853261352,0.0018383801216259599
1768576278773917000,10.7909169921875,0.0010831075487658381,0.0006713828770443797,0.0009515474666841328
1768576278783917000,10.8009169921875,0.0029385320376604795,0.0020575581584125757,-0.002924683503806591
1768576278793916000,10.810916015625,0.003962250892072916,0.003242664970457554,-0.004304733593016863
1768576278803916000,10.820916015625,-0.00008149272616719827,0.0005400890368036926,-0.005335643421858549
1768576278813916000,10.830916015625,-0.00036698358599096537,-0.000696150294970721,-0.006139385048300028
1768576278823916000,10.840916015625,0.005346295889467001,-0.002351038623601198,-0.010932808741927147
1768576278833916000,10.850916015625,-0.0006743124104104936,-0.0044141896069049835,-0.008904279209673405
1768576278843915000,10.8609150390625,-0.0022687469609081745,-0.004965730011463165,-0.006055762059986591
1768576278853915000,10.870914794921875,-0.001630120910704136,-0.007661914452910423,-0.00030120351584628224
1768576278863915000,10.8809150390625,-0.003424026072025299,-0.008962069638073444,0.0018439727136865258
1768576278873915000,10.890914794921875,-0.0021057615522295237,-0.007063501980155706,0.00304692261852324
1768576278883915000,10.9009150390625,-0.0044016726315021515,-0.0059998356737196445,0.002260491019114852
1768576278893914000,10.9109140625,-0.004776911810040474,-0.0019433086272329092,0.002763562137261033
1768576278903914000,10.9209140625,-0.005102350376546383,-0.0012381036067381501,0.0009632653673179448
1768576278913913900,10.930913818359375,-0.005302620120346546,-0.003751062322407961,0.0003110571997240186
1768576278923914000,10.9409140625,-0.005362540949136019,-0.008760468102991581,-0.00444002216681838
1768576278933913000,10.9509130859375,-0.006058691535145044,-0.00794314406812191,-0.005164135713130236
1768576278943913000,10.960912841796874,-0.004461061209440231,-0.008374842815101147,-0.005511944647878408
1768576278953913000,10.9709130859375,-0.0027561055030673742,-0.00498037738725543,-0.005314870737493038
1768576278963913000,10.980912841796876,-0.0022884542122483253,-0.0035380094777792692,-0.004267981741577387
1768576278973912800,10.990912841796876,-0.0023704797495156527,-0.0021433120127767324,-0.006719687953591347
1768576278983912000,11.000911865234375,-0.0036306874826550484,-0.0020535634830594063,-0.005336175672709942
1768576278993912000,11.010912109375,-0.0038485340774059296,0.0023904533591121435,-0.003838680451735854
1768576279003912000,11.020911865234375,-0.005277586169540882,0.009166866540908813,-0.000441818410763517
1768576279013912000,11.030912109375,-0.0033755565527826548,0.007479221560060978,0.002025600289925933
1768576279023912000,11.040911865234374,-0.004089550115168095,0.003897003596648574,0.005250688176602125
1768576279033911000,11.0509111328125,-0.005440305452793837,0.0013550163712352514,0.004600344225764275
1768576279043911000,11.060910888671875,-0.005301021970808506,0.00007483482477255166,0.004598213825374842
1768576279053911800,11.070911865234375,-0.0038570561446249485,0.000028762138754245825,0.0002897519152611494
1768576279063911700,11.08091162109375,-0.00558278476819396,0.004140949342399836,-0.004042678512632847
1768576279073911600,11.09091162109375,-0.00392762990668416,0.004475442226976156,-0.004561728797852993
1768576279083910700,11.10091064453125,-0.0033963292371481657,0.005853361915796995,-0.00395825644955039
1768576279093910800,11.110910888671874,-0.002825347473844886,0.004505536053329706,-0.00355878216214478
1768576279103910700,11.12091064453125,-0.0029145635198801756,0.006252835970371962,-0.0020335898734629154
1768576279113910800,11.130910888671876,-0.0019331886433064938,0.005181978922337294,-0.000185888638952747
1768576279123910700,11.14091064453125,-0.004589958116412163,0.005801962688565254,0.0014253237750381231
1768576279133909800,11.15090966796875,-0.0038863508962094784,0.0055803875438869,-0.0009134642314165831
1768576279143909600,11.16090966796875,-0.003266633255407214,0.0032522522378712893,-0.0019387812353670597
1768576279153909800,11.17090966796875,-0.0018964370246976614,0.004464257042855024,-0.0031582426745444536
1768576279163909600,11.18090966796875,-0.002920954953879118,0.0027944548055529594,-0.0028522454667836428
1768576279173909800,11.19090966796875,-0.0015387744642794132,0.00390339526347816,-0.002683667466044426
1768576279183908600,11.20090869140625,-0.0007981493836268783,0.0052229915745556355,-0.002694852650165558
1768576279193908700,11.21090869140625,-0.0018895127577707171,0.006164685357362032,-0.004315918777137995
1768576279203908600,11.22090869140625,-0.0015313175972551107,0.006791859865188599,-0.004761732183396816
1768576279213908700,11.23090869140625,-0.0005001416429877281,0.006396380253136158,-0.005537777207791805
1768576279223908600,11.24090869140625,-0.0048946235328912735,0.006500510033220053,-0.004012051969766617
1768576279233907700,11.25090771484375,-0.003451456781476736,0.006045908201485872,-0.006150037981569767
1768576279243907600,11.260907470703126,-0.0032921996898949146,0.0070307450369000435,-0.007111971732228994
1768576279253907700,11.27090771484375,-0.0018258632626384497,0.008774583227932453,-0.004399808589369059
1768576279263907600,11.280907470703125,-0.000630902883131057,0.009367935359477997,-0.004266650415956974
1768576279273907700,11.29090771484375,-0.0018269284628331661,0.01278530340641737,-0.003933755215257406
1768576279283906800,11.30090673828125,-0.0024591628462076187,0.014590926468372345,0.00024767397553659976
1768576279293906700,11.31090673828125,-0.0017888452857732773,0.012064918875694275,0.0021225393284112215
1768576279303906600,11.320906494140624,-0.0041585261933505535,0.012425776571035385,-0.00044048685231246054
1768576279313906700,11.33090673828125,-0.0009664611425250769,0.010176737792789936,-0.0009297095239162445
1768576279323906600,11.340906494140626,-0.00236275652423501,0.010395648889243603,-0.0029137644451111555
1768576279333905700,11.35090576171875,-0.0026551715563982725,0.008477906696498394,-0.002234125742688775
1768576279343905800,11.36090576171875,-0.001764344167895615,0.009513610042631626,-0.003555319970473647
1768576279353905700,11.37090576171875,0.0011094729416072369,0.012279835529625416,-0.003061569994315505
1768576279363905800,11.38090576171875,0.00026019083452410996,0.014414891600608826,-0.003278883872553706
1768576279373904600,11.390904541015624,0.002055427758023143,0.012252938002347946,0.0006082659820094705
1768576279383904800,11.40090478515625,0.0022176143247634172,0.010899785906076431,0.001499359728768468
1768576279393904600,11.410904541015626,0.0027984497137367725,0.00777776213362813,-0.000051132694352418184
1768576279403904800,11.42090478515625,0.0017164073651656508,0.007816644385457039,0.0003736414946615696
1768576279413904600,11.430904541015625,0.0013760552974417806,0.008522115647792816,-0.00041971419705078006
1768576279423903700,11.44090380859375,-0.00019094864546786994,0.01028539426624775,-0.006225138902664185
1768576279433903600,11.450903564453125,0.0012966931099072099,0.010742392390966415,-0.006118878722190857
1768576279443903700,11.46090380859375,0.004490355961024761,0.012057728134095669,-0.006845122668892145
1768576279453903600,11.470903564453126,0.005029379855841398,0.012709403410553932,-0.005116997752338648
1768576279463903700,11.48090380859375,0.0049337721429765224,0.013293701224029064,-0.0037622477393597364
1768576279473902600,11.490902587890625,0.007428355049341917,0.011023090220987797,-0.0015486282063648105
1768576279483902700,11.50090283203125,0.008984440006315708,0.009886719286441803,-0.0018527611391618848
1768576279493902600,11.510902587890625,0.01053253561258316,0.013332050293684006,-0.0022154836915433407
1768576279503902700,11.52090283203125,0.009810286574065685,0.012443087063729763,-0.004135889001190662
1768576279513902600,11.530902587890624,0.007850999012589455,0.013466540724039078,-0.0032493227627128363
1768576279523901700,11.540901611328126,0.00358834327198565,0.01142895594239235,-0.0014226606581360102
1768576279533901600,11.550901611328126,0.00022663500567432493,0.014369884505867958,-0.004488757811486721
1768576279543901700,11.560901611328125,-0.00005832322858623229,0.013142700307071209,-0.0025779400020837784
1768576279553901600,11.570901611328125,0.000025832661776803434,0.014880145899951458,-0.0030045784078538418
1768576279563901700,11.580901611328125,-0.000017310547264060006,0.018432803452014923,-0.003832555143162608
1768576279573900800,11.59090087890625,0.0018410432385280728,0.019780362024903297,-0.004312456585466862
1768576279583900700,11.600900634765624,0.001487641828134656,0.021880265325307846,-0.0028045750223100185
1768576279593900800,11.61090087890625,0.0032077773939818144,0.02497565746307373,-0.001336107961833477
1768576279603900700,11.620900634765626,0.0019955066964030266,0.024211063981056213,0.0032796829473227262
1768576279613900500,11.630900634765625,0.002401106059551239,0.023204388096928596,0.0024000408593565226
1768576279623899600,11.640899658203125,-0.000931041082367301,0.02112818881869316,0.0006436860421672463
1768576279633899800,11.650899658203125,-0.002118011936545372,0.01925705187022686,0.0008125304593704641
1768576279643899600,11.660899658203125,-0.003165699541568756,0.01830310747027397,0.0006436860421672463
1768576279653899800,11.670899658203124,-0.0038035267498344183,0.014978150837123394,0.0029206888284534216
1768576279663899600,11.680899658203124,-0.005244030617177486,0.014819160103797913,0.004879177547991276
1768576279673898800,11.690898681640626,-0.005676527973264456,0.014503574930131435,0.007780158892273903
1768576279683898600,11.700898681640625,-0.006287190597504377,0.01432407833635807,0.009917079471051693
1768576279693898800,11.710898681640625,-0.004482100252062082,0.015564844943583012,0.011418037116527557
1768576279703898600,11.720898681640625,-0.005558283533900976,0.015658322721719742,0.01142895594239235
1768576279713898800,11.730898681640625,-0.003805124433711171,0.015928899869322777,0.013656956143677235
1768576279723897600,11.740897705078124,-0.006149505265057087,0.01732705906033516,0.016511065885424614
1768576279733897700,11.750897705078126,-0.0046631949953734875,0.015336345881223679,0.016451677307486534
1768576279743897600,11.760897705078126,-0.004606735892593861,0.010039318352937698,0.009045693092048168
1768576279753897700,11.770897705078125,-0.0030466562602669,0.008701878599822521,0.0034732946660369635
1768576279763897600,11.780897705078125,-0.001957689644768834,0.010212955996394157,-0.0013491574209183455
1768576279773896700,11.790896728515625,0.0007470166892744601,0.013059076853096485,-0.0029321403708308935
1768576279783896600,11.800896484375,0.00037044569035060704,0.01284495834261179,0.0004886900424025953
1768576279793896700,11.810896728515624,0.001711081014946103,0.009549296461045742,0.0026935210917145014
