timestamp;seconds_elapsed;acc_z;acc_y;acc_x;gyro_z;gyro_y;gyro_x
1768416548254032400;4.504032470703125;1.8418731689453125;-4.0337371826171875;-0.4059906005859375;1.4499359130859375;-4.301784992218018;7.537664413452148
1768416548264033300;4.514033203125;1.97796630859375;-6.6263885498046875;-1.010162353515625;1.091027021408081;-3.966664314270019;6.972285747528076
1768416548274035200;4.52403515625;1.2227325439453125;-7.6067047119140625;-1.1536865234375;1.066359519958496;-1.8289580345153809;3.990844488143921
1768416548284036000;4.5340361328125;0.0026397705078125;-5.8646087646484375;-0.8152313232421875;0.91476970911026;1.0940576791763306;0.6357431411743164
1768416548294038300;4.544038330078125;-0.6551361083984375;-2.71514892578125;-0.689788818359375;0.3854787051677704;2.967186450958252;0.2193717658519745
1768416548304039200;4.5540390625;-1.4197540283203125;-0.7422637939453125;-0.663665771484375;0.3407956659793854;4.103603839874268;1.4119126796722412
1768416548314041000;4.564041015625;-1.5110931396484375;0.4635162353515625;-0.249420166015625;0.5922670364379883;4.431102275848389;3.0269250869750977
1768416548324042200;4.574042236328125;-1.71923828125;1.2761688232421875;0.1205291748046875;0.7986431121826172;3.828255653381348;4.709294319152832
1768416548334044200;4.584044189453125;-1.709930419921875;1.66925048828125;0.328277587890625;0.6975226402282715;2.746229648590088;5.831428050994873
1768416548344046000;4.594046142578125;-0.92059326171875;1.5942535400390625;0.4083709716796875;0.6049535274505615;2.0103342533111572;5.851845741271973
1768416548354047200;4.604047119140625;0.1197662353515625;1.15679931640625;0.220977783203125;0.5068666338920593;1.6793571710586548;5.1996893882751465
1768416548364049200;4.614049072265625;0.5699615478515625;0.7755584716796875;0.031768798828125;0.5719439387321472;2.013491153717041;4.611697673797607
1768416548374050000;4.624050048828125;0.691497802734375;0.4904632568359375;-0.110809326171875;0.8339939117431641;2.3480048179626465;4.212981224060059
1768416548384052200;4.63405224609375;0.617767333984375;0.175994873046875;-0.1822967529296875;1.389014482498169;2.1798319816589355;4.273283958435059
1768416548394053000;4.64405322265625;0.175323486328125;-0.0782012939453125;-0.1329345703125;2.05083966255188;1.8284566402435305;4.7238850593566895
1768416548404055000;4.654054931640625;-0.1511993408203125;-0.3011322021484375;-0.0877685546875;2.6111199855804443;1.6681740283966064;4.972070693969727
1768416548414056200;4.66405615234375;-0.049041748046875;-0.632415771484375;-0.0791168212890625;2.7756831645965576;1.889211893081665;4.591371059417725
1768416548424058000;4.67405810546875;0.1959991455078125;-0.8896484375;-0.0341949462890625;2.4965860843658447;2.3522493839263916;3.6266489028930664
1768416548434060000;4.68406005859375;0.35980224609375;-0.9319915771484376;-0.0513153076171875;1.98638653755188;2.61602783203125;2.859480857849121
1768416548444061200;4.694061279296875;0.244049072265625;-0.67840576171875;-0.090850830078125;1.7978662252426147;2.837921619415283;2.534433603286743
1768416548454063000;4.70406298828125;0.3583221435546875;-0.254638671875;-0.27642822265625;1.7936387062072754;3.22525405883789;2.180121898651123
1768416548464064000;4.71406396484375;0.529144287109375;-0.0431060791015625;-0.58306884765625;1.8289740085601809;4.093936443328857;1.8695950508117676
1768416548474066200;4.724066162109375;0.6319732666015625;0.0327301025390625;-0.9474639892578124;1.8312395811080933;5.432239055633545;1.6075249910354614
1768416548484067300;4.7340673828125;0.704803466796875;-0.0074462890625;-1.3533935546875;1.7830995321273804;6.907437801361084;1.547416925430298
1768416548494069000;4.744069091796875;0.565185546875;-0.097869873046875;-1.7931365966796875;1.7462027072906494;8.043171882629395;1.8633365631103516
1768416548504070400;4.7540703125;0.52337646484375;-0.1325531005859375;-2.07122802734375;1.8760558366775513;7.977962017059326;2.285073757171631
1768416548514072000;4.764072021484375;0.726776123046875;-0.1213836669921875;-2.128997802734375;2.2053864002227783;7.110772132873535;2.2573413848876953
1768416548524074200;4.77407421875;0.9473419189453124;-0.1264801025390625;-1.969940185546875;2.1948952674865723;7.04380464553833;1.852810978889465
1768416548534075100;4.7840751953125;1.217315673828125;-0.1725006103515625;-1.5611419677734375;1.9318228960037231;7.4753098487854;1.1791383028030396
1768416548544077000;4.7940771484375;1.76251220703125;-0.1858673095703125;-1.00799560546875;1.7492024898529053;7.031744003295898;0.2385864704847335
1768416548554078200;4.804078125;2.1352996826171875;-0.215972900390625;-0.5945892333984375;1.6125186681747437;5.594948768615723;-0.6848273277282715
1768416548564080000;4.814080078125;2.404937744140625;-0.237060546875;-0.381439208984375;1.432187795639038;4.07557487487793;-1.3866033554077148
1768416548574081300;4.824081298828125;2.1941680908203125;-0.233062744140625;-0.411712646484375;0.9151716232299804;2.8106272220611572;-1.636014461517334
1768416548584083200;4.834083251953125;1.4716796875;-0.1130828857421875;-0.2198638916015625;0.5219276547431946;1.4486587047576904;-0.8417724967002869
1768416548594084400;4.84408447265625;-0.432769775390625;0.35089111328125;0.028350830078125;-0.2533254623413086;0.1463910341262817;1.9518065452575684
1768416548604086300;4.854086181640625;-0.8921051025390625;0.5107879638671875;-1.220794677734375;-2.1282970905303955;0.3461478352546692;3.690423011779785
1768416548614088200;4.864088134765625;-0.0805816650390625;0.6280059814453125;-1.8195343017578125;-2.523240566253662;0.1105691194534301;3.1505813598632812
1768416548624089300;4.87408935546875;-0.05731201171875;0.558013916015625;-1.6781768798828125;-1.1066735982894895;0.9516180157661438;1.2237374782562256
1768416548634091300;4.88409130859375;-0.7136688232421875;0.2211456298828125;-2.069610595703125;0.3035351037979126;3.637676954269409;0.0976186990737915
1768416548644092400;4.894092529296875;-0.5562591552734375;0.0874786376953125;-2.4772491455078125;1.2067962884902954;5.057861804962158;0.0884686112403869
1768416548654094300;4.90409423828125;-0.0833740234375;0.29583740234375;-2.570068359375;1.8039547204971311;5.0158281326293945;0.7718954086303711
1768416548664095200;4.91409521484375;0.2169952392578125;0.4557952880859375;-2.9535675048828125;1.9413381814956665;3.2963573932647705;1.635250687599182
1768416548674097400;4.924097412109375;0.820556640625;0.29046630859375;-2.9745941162109375;1.4657244682312012;1.0110467672348022;2.04929518699646
1768416548684098300;4.934098388671875;0.8842926025390625;0.087432861328125;-2.7409515380859375;1.0848604440689087;0.5396578907966614;1.547793745994568
1768416548694100200;4.944100341796875;0.6009674072265625;-0.226806640625;-2.28582763671875;0.8989822268486023;1.2541717290878296;-0.0124635938555002
1768416548704102400;4.954102294921875;0.501373291015625;-0.436004638671875;-1.9291229248046875;0.6577999591827393;1.4073234796524048;-0.9302061796188354
1768416548714103300;4.964103271484375;0.06072998046875;-0.246826171875;-1.8177032470703125;0.0386001244187355;0.8182980418205261;-0.8405234813690186
1768416548724105200;4.974105224609375;-0.3200225830078125;0.17633056640625;-1.5056610107421875;-0.5857945084571838;0.4547219574451446;-0.4610075652599334
1768416548734106400;4.9841064453125;-0.3905181884765625;0.4437408447265625;-1.0449066162109375;-0.7512428760528564;0.1808997392654419;-0.4098173379898071
1768416548744108300;4.9941083984375;-0.3909454345703125;0.5038909912109375;-0.833099365234375;-0.678138792514801;0.1647737771272659;-0.3061053454875946
1768416548754109200;5.004109130859375;-0.5734710693359375;0.5565032958984375;-0.991455078125;-0.6361005306243896;0.3890223205089569;0.0775158330798149
1768416548764111400;5.014111328125;-0.5264129638671875;0.54473876953125;-1.09295654296875;-0.6018270254135132;0.4220641553401947;0.4602879881858825
1768416548774112300;5.0241123046875;-0.24725341796875;0.3966522216796875;-1.0558624267578125;-0.6649795770645142;0.3307057619094848;0.5563452839851379
1768416548784114200;5.0341142578125;-0.0269622802734375;0.1778411865234375;-0.836944580078125;-0.6694287061691284;0.2031826823949813;0.4278139173984527
1768416548794116400;5.044116455078125;0.0118408203125;-0.01385498046875;-0.611572265625;-0.6308645009994507;0.2008691877126693;0.2135210633277893
1768416548804117200;5.0541171875;0.070892333984375;-0.11767578125;-0.4861297607421875;-0.5575181245803833;0.2600126564502716;-0.0888787433505058
1768416548814119200;5.064119140625;0.1500396728515625;-0.140716552734375;-0.4032745361328125;-0.4669762253761291;0.2842738032341003;-0.3627662062644958
1768416548824120300;5.074120361328125;0.0607147216796875;-0.11053466796875;-0.413604736328125;-0.3396318554878235;0.2521057426929474;-0.4740189611911773
1768416548834122200;5.084122314453125;-0.183074951171875;-0.0227203369140625;-0.4629974365234375;-0.2455759346485138;0.2209129333496093;-0.347881019115448
1768416548844123100;5.094123046875;-0.368072509765625;0.1026763916015625;-0.48004150390625;-0.1972853690385818;0.1638762801885604;-0.0803915113210678
1768416548854125300;5.104125244140625;-0.3142242431640625;0.2082977294921875;-0.4775543212890625;-0.1704774647951126;0.1585004329681396;0.0801986977458
1768416548864126200;5.114126220703125;-0.1810760498046875;0.2093048095703125;-0.4906005859375;-0.1059224382042884;0.0906279012560844;0.0995846465229988
1768416548874128100;5.124128173828125;-0.06268310546875;0.12176513671875;-0.4780426025390625;-0.0515910238027572;-0.1456312388181686;0.0383130349218845
1768416548884130300;5.13413037109375;-0.0386199951171875;0.035675048828125;-0.46490478515625;-0.0461065098643302;-0.16656394302845;-0.0442183278501033
1768416548894131200;5.144131103515625;-0.059326171875;-0.007537841796875;-0.4609832763671875;0.0029382656794041;-0.0199337601661682;-0.1758469343185424
1768416548904133400;5.15413330078125;-0.1493377685546875;-0.02490234375;-0.5299224853515625;0.1180398240685463;0.2198940068483352;-0.1944861263036728
1768416548914134300;5.16413427734375;-0.274566650390625;0.04107666015625;-0.6932525634765625;0.3636136353015899;0.5600340366363525;-0.0623081140220165
1768416548924136200;5.17413623046875;-0.245361328125;0.1160125732421875;-0.9659576416015624;0.6124618053436279;0.8498690128326416;-0.0606977008283138
1768416548934137000;5.18413720703125;-0.1025238037109375;0.136566162109375;-1.32476806640625;0.695768415927887;0.8562542200088501;-0.2442273199558258
1768416548944139300;5.19413916015625;-0.0546417236328125;0.1847686767578125;-1.634307861328125;0.6140101552009583;0.5884073376655579;-0.3419703841209411
1768416548954140200;5.20414013671875;-0.0623931884765625;0.2797698974609375;-1.8036651611328125;0.4910973012447357;0.313665509223938;-0.328529953956604
1768416548964142300;5.214142333984375;-0.02093505859375;0.3388519287109375;-1.8053131103515625;0.353593498468399;0.1362292170524597;-0.3554984331130981
1768416548974144300;5.224144287109375;-0.0138397216796875;0.2873382568359375;-1.6998291015625;0.1812763214111328;0.0131863756105303;-0.4225707054138183
1768416548984145200;5.234145263671875;-0.105133056640625;0.2267608642578125;-1.56951904296875;-0.0153667060658335;-0.0363963581621646;-0.3885011374950409
1768416548994147300;5.244147216796875;-0.1610260009765625;0.1950225830078125;-1.4407958984375;-0.1866838634014129;-0.0596918277442455;-0.2913996279239654
1768416549004148200;5.254148193359375;-0.15716552734375;0.1730194091796875;-1.30859375;-0.3188397586345672;-0.0573173500597476;-0.248844176530838
1768416549014150100;5.264150146484375;-0.1307830810546875;0.1806640625;-1.1493988037109375;-0.3519806861877441;-0.0568398460745811;-0.2735415399074554
1768416549024151000;5.274151123046875;-0.1123046875;0.17266845703125;-1.02880859375;-0.3326229453086853;-0.0201697163283824;-0.3201023638248443
1768416549034153200;5.2841533203125;-0.0970001220703125;0.1522369384765625;-0.9399566650390624;-0.2845984399318695;-0.0131839793175458;-0.3668546974658966
1768416549044154000;5.294154052734375;-0.123016357421875;0.133941650390625;-0.870269775390625;-0.2587676346302032;0.0661774203181266;-0.4127715826034546
1768416549054156300;5.30415625;-0.1856536865234375;0.1202239990234375;-0.7974700927734375;-0.225308746099472;0.1844073981046676;-0.4006792306900024
1768416549064158200;5.314158203125;-0.19805908203125;0.132965087890625;-0.70404052734375;-0.2025339305400848;0.2788436114788055;-0.3941800594329834
1768416549074159000;5.3241591796875;-0.1556549072265625;0.1291351318359375;-0.64373779296875;-0.1611747741699218;0.3289576470851898;-0.4385078549385071
1768416549084161300;5.334161376953125;-0.14495849609375;0.1015472412109375;-0.614776611328125;-0.1259081363677978;0.2677885591983795;-0.4686068892478943
1768416549094162200;5.344162109375;-0.200439453125;0.042755126953125;-0.6364898681640625;-0.0937563180923461;0.1710724085569381;-0.4170976281166076
1768416549104164000;5.3541640625;-0.26080322265625;0.00640869140625;-0.667083740234375;-0.0896153673529625;0.1163806691765785;-0.3164514601230621
1768416549114165200;5.364165283203125;-0.2566375732421875;-0.0038299560546875;-0.725494384765625;-0.1238332614302635;0.1069869026541709;-0.2380333393812179
1768416549124167200;5.374167236328125;-0.2067108154296875;-0.0017547607421875;-0.801300048828125;-0.1769697219133377;0.1144853010773658;-0.1853062063455581
1768416549134168000;5.38416796875;-0.1638641357421875;-0.0009918212890625;-0.8697357177734375;-0.2226027101278305;0.1408924013376236;-0.145619511604309
1768416549144170200;5.394170166015625;-0.127716064453125;-0.00726318359375;-0.9320831298828124;-0.2562839686870575;0.1674824655055999;-0.1265755146741867
1768416549154171100;5.404171142578125;-0.09521484375;-0.024688720703125;-0.9824066162109376;-0.2693617045879364;0.1793263405561447;-0.1275070905685424
1768416549164173000;5.414173095703125;-0.10699462890625;-0.0384368896484375;-1.0155487060546875;-0.2613588869571686;0.1826936453580856;-0.1073679998517036
1768416549174175200;5.42417529296875;-0.15869140625;-0.0370941162109375;-1.0492095947265625;-0.2251830548048019;0.1958515346050262;-0.0397948175668716
1768416549184176000;5.434176025390625;-0.20172119140625;-0.04010009765625;-1.095916748046875;-0.1803969442844391;0.2268581837415695;0.0340900607407093
1768416549194178000;5.444177978515625;-0.1922149658203125;-0.04632568359375;-1.1263885498046875;-0.1331663131713867;0.2380075007677078;0.0724979043006897
1768416549204179200;5.45417919921875;-0.1537933349609375;-0.059051513671875;-1.1428680419921875;-0.0948130637407302;0.2052530199289322;0.0692448541522026
1768416549214181000;5.46418115234375;-0.117919921875;-0.07489013671875;-1.143951416015625;-0.0709032043814659;0.1462096720933914;0.038375087082386
1768416549224182000;5.47418212890625;-0.0949859619140625;-0.0951080322265625;-1.125946044921875;-0.0500112362205982;0.0725088194012641;-0.0159406177699565
1768416549234184200;5.48418408203125;-0.0889129638671875;-0.119659423828125;-1.0901336669921875;-0.0393090546131134;0.0077727017924189;-0.0650927200913429
1768416549244185000;5.49418505859375;-0.1019744873046875;-0.137176513671875;-1.0419769287109375;-0.0233692377805709;-0.0544749610126018;-0.0887897908687591
1768416549254187000;5.50418701171875;-0.1253814697265625;-0.1499176025390625;-0.9918212890625;-0.0123485447838902;-0.1042933836579322;-0.0965260043740272
1768416549264189200;5.514189208984375;-0.1426544189453125;-0.1595001220703125;-0.9426116943359376;0.0037468012887984;-0.1615063399076461;-0.0924183502793312
1768416549274190000;5.524190185546875;-0.165802001953125;-0.1555023193359375;-0.902099609375;0.0244446229189634;-0.2084293663501739;-0.058583952486515
1768416549284192500;5.534192626953125;-0.1926116943359375;-0.145904541015625;-0.8830108642578125;0.0498799420893192;-0.2551819682121277;0.0008860336965881
1768416549294193400;5.544193359375;-0.1960906982421875;-0.1353607177734375;-0.8802032470703125;0.0700110420584678;-0.2954921126365661;0.0591216422617435
1768416549304195600;5.554195556640625;-0.1839447021484375;-0.131072998046875;-0.886138916015625;0.0898020565509796;-0.3269277811050415;0.1116764619946479
1768416549314196500;5.564196533203125;-0.171844482421875;-0.1209564208984375;-0.895172119140625;0.0986754447221756;-0.3513346016407013;0.1657466292381286
1768416549324198400;5.574198486328125;-0.1461181640625;-0.11993408203125;-0.9049530029296876;0.105861447751522;-0.3754772245883941;0.204256996512413
1768416549334199600;5.584199462890625;-0.1157989501953125;-0.1271820068359375;-0.9139251708984376;0.109974704682827;-0.3833777606487274;0.2153562605381012
1768416549344201500;5.594201416015625;-0.0867462158203125;-0.135101318359375;-0.91790771484375;0.1129033789038658;-0.3889786303043365;0.1949985176324844
1768416549354202600;5.60420263671875;-0.0536041259765625;-0.1456146240234375;-0.918914794921875;0.1144147291779518;-0.4102983176708221;0.1383869051933288
1768416549364204500;5.61420458984375;-0.03118896484375;-0.153778076171875;-0.9234466552734376;0.1062302961945533;-0.4388956129550934;0.0778218284249305
1768416549374206500;5.62420654296875;-0.0341339111328125;-0.1561126708984375;-0.9385223388671876;0.0970607697963714;-0.4649650156497955;0.0485512912273407
1768416549384207400;5.634207275390625;-0.0388031005859375;-0.1486358642578125;-0.963470458984375;0.0896025896072387;-0.4837477505207062;0.0438990145921707
1768416549394209500;5.64420947265625;-0.06134033203125;-0.138275146484375;-0.9903411865234376;0.0894649028778076;-0.4967748820781708;0.0746891498565673
1768416549404210700;5.654210693359375;-0.095672607421875;-0.129852294921875;-1.015655517578125;0.0856169015169143;-0.5396555066108704;0.1253552585840225
1768416549414212400;5.66421240234375;-0.12115478515625;-0.1208343505859375;-1.02069091796875;0.0783901438117027;-0.6030989289283752;0.180460587143898
1768416549424213800;5.6742138671875;-0.1294097900390625;-0.1124420166015625;-1.00830078125;0.0724315866827964;-0.6774485111236572;0.2200897634029388
1768416549434215400;5.68421533203125;-0.110382080078125;-0.1055755615234375;-0.99017333984375;0.0637153312563896;-0.764439582824707;0.2279532700777053
1768416549444216600;5.694216552734375;-0.079315185546875;-0.1033935546875;-0.972625732421875;0.0547497980296611;-0.8587210774421692;0.2105010449886322
1768416549454218800;5.70421875;-0.0582122802734375;-0.1031951904296875;-0.9620361328125;0.0461033135652542;-0.9564082622528076;0.1932698637247085
1768416549464220400;5.714220458984375;-0.037200927734375;-0.0997772216796875;-0.9509429931640624;0.0462764166295528;-1.0077478885650637;0.1737289130687713
1768416549474221600;5.7242216796875;-0.008636474609375;-0.0935516357421875;-0.9403228759765624;0.0574904568493366;-1.0070232152938845;0.1352971047163009
1768416549484223500;5.734223388671875;0.0217132568359375;-0.0885467529296875;-0.9382171630859376;0.08978021889925;-0.9881091713905334;0.0855708271265029
1768416549494224600;5.744224609375;0.04803466796875;-0.0862274169921875;-0.9503021240234376;0.1220007389783859;-0.9670243859291076;0.0474937483668327
1768416549504226600;5.7542265625;0.062774658203125;-0.081390380859375;-0.9719085693359376;0.1461886316537857;-0.94473135471344;0.027329359203577
1768416549514227700;5.764227783203125;0.0718841552734375;-0.0717010498046875;-0.9909210205078124;0.1593465209007263;-0.932839810848236;0.0102720782160758
1768416549524229600;5.774229736328125;0.0788116455078125;-0.0576019287109375;-1.0002288818359375;0.1661980301141739;-0.9311417937278748;-0.0237878877669572
1768416549534230500;5.78423046875;0.094329833984375;-0.039825439453125;-0.9896240234375;0.1700292527675628;-0.9381091594696044;-0.0774524435400962
1768416549544232700;5.794232666015625;0.101959228515625;-0.0318756103515625;-0.9736785888671876;0.1696004867553711;-0.9314946532249452;-0.1227634698152542
1768416549554233600;5.804233642578125;0.099761962890625;-0.0361328125;-0.962677001953125;0.1658813804388046;-0.9159827828407288;-0.1430492997169494
1768416549564235800;5.81423583984375;0.104278564453125;-0.039398193359375;-0.9594879150390624;0.1612695753574371;-0.8947281241416931;-0.1477292776107788
1768416549574237700;5.82423779296875;0.1139678955078125;-0.041259765625;-0.9697265625;0.1542710661888122;-0.8832908868789673;-0.146219253540039
1768416549584238600;5.834238525390625;0.1218109130859375;-0.0370025634765625;-0.984405517578125;0.1382880955934524;-0.8715660572052002;-0.13813017308712
1768416549594240800;5.84424072265625;0.1223297119140625;-0.0271453857421875;-0.996795654296875;0.1288581192493438;-0.8556962609291077;-0.1155028939247131
1768416549604241700;5.85424169921875;0.114532470703125;-0.01483154296875;-1.0027313232421875;0.1290341466665268;-0.8427799344062805;-0.0793544799089431
1768416549614243600;5.86424365234375;0.1167449951171875;-0.010894775390625;-1.0092315673828125;0.1198694109916687;-0.8379186391830444;-0.0429163090884685
1768416549624244700;5.87424462890625;0.139007568359375;-0.012298583984375;-1.0134429931640625;0.1154187396168708;-0.8343145847320557;-0.030410636216402
1768416549634246700;5.88424658203125;0.1623992919921875;-0.01641845703125;-1.0174713134765625;0.1017998680472374;-0.8371649384498596;-0.0244757812470197
1768416549644247600;5.89424755859375;0.1742706298828125;-0.0207061767578125;-1.02886962890625;0.0790841653943061;-0.8337600827217102;-0.0189699623733758
1768416549654249700;5.904249755859375;0.1875;-0.015167236328125;-1.0272674560546875;0.0593874268233776;-0.8172213435173035;-0.0096893785521388
1768416549664250600;5.914250732421875;0.1992645263671875;-0.0138397216796875;-1.0218658447265625;0.0496309362351894;-0.7776765823364258;0.0010783139150589
1768416549674252500;5.92425244140625;0.20599365234375;-0.0131378173828125;-1.0186004638671875;0.0436838306486606;-0.7323399782180786;0.019275426864624
1768416549684254700;5.934254638671875;0.2054443359375;-0.01910400390625;-1.0259246826171875;0.0409045554697513;-0.6899096965789795;0.0528453700244426
1768416549694255600;5.944255615234375;0.211822509765625;-0.0224609375;-1.04180908203125;0.0243202541023492;-0.6577792167663574;0.0922444462776184
1768416549704257500;5.954257568359375;0.232177734375;-0.02447509765625;-1.0589599609375;0.0167283806949853;-0.6438082456588745;0.1156224682927131
1768416549714258700;5.9642587890625;0.2615203857421875;-0.0212554931640625;-1.06158447265625;0.0014583469601348;-0.6270554065704346;0.1182680502533912
1768416549724260600;5.974260498046875;0.28985595703125;-0.032684326171875;-1.0731353759765625;-0.0202179197221994;-0.6077956557273865;0.1020592600107193
1768416549734261500;5.984261474609375;0.3119659423828125;-0.031463623046875;-1.058013916015625;-0.0284042116254568;-0.5689798593521118;0.0734356045722961
1768416549744263700;5.994263671875;0.3155517578125;-0.0311126708984375;-1.0440521240234375;-0.0291988980025053;-0.508152186870575;0.0546579174697399
1768416549754264600;6.0042646484375;0.305755615234375;-0.032562255859375;-1.0336456298828125;-0.0249032191932201;-0.4356926083564758;0.0560789816081523
1768416549764266500;6.0142666015625;0.2946014404296875;-0.0352783203125;-1.0235443115234375;-0.021305289119482;-0.3609563410282135;0.0756873041391372
1768416549774267600;6.024267578125;0.297027587890625;-0.0421600341796875;-1.015350341796875;-0.0143270073458552;-0.2955608069896698;0.0889541059732437
1768416549784269600;6.03426953125;0.3040313720703125;-0.0509796142578125;-1.0102386474609375;-0.0118822259828448;-0.235768586397171;0.0940639153122901
1768416549794271500;6.044271484375;0.3104248046875;-0.05859375;-1.0104827880859375;-0.0162175856530666;-0.1930179297924041;0.0918668061494827
1768416549804272600;6.054272705078125;0.3130340576171875;-0.0587005615234375;-1.010498046875;-0.0201348289847373;-0.1529807597398758;0.0886915177106857
1768416549814274600;6.064274658203125;0.31005859375;-0.0576629638671875;-1.0138397216796875;-0.0257727410644292;-0.1127382665872573;0.0834757164120674
1768416549824275500;6.074275390625;0.312774658203125;-0.0500030517578125;-1.005767822265625;-0.0265578404068946;-0.0750942155718803;0.0749874264001846
1768416549834277600;6.084277587890625;0.3119049072265625;-0.047149658203125;-1.0014801025390625;-0.0254017636179924;-0.0304500516504049;0.0674898251891136
1768416549844278500;6.094278564453125;0.3116455078125;-0.0474395751953125;-0.995025634765625;-0.0193068534135818;0.0251953676342964;0.055967129766941
1768416549854280400;6.104280517578125;0.311431884765625;-0.052032470703125;-0.986968994140625;-0.0087759150192141;0.0861924067139625;0.050518300384283
1768416549864281600;6.114281494140625;0.3092803955078125;-0.0541229248046875;-0.9805908203125;-0.0023821976501494;0.1402809470891952;0.0482503548264503
1768416549874283500;6.124283447265625;0.3018951416015625;-0.0608978271484375;-0.982818603515625;0.0001012001230265;0.1767603904008865;0.0430310890078544
1768416549884285700;6.13428564453125;0.29705810546875;-0.060394287109375;-0.9903564453125;-0.0016221314435824;0.206514298915863;0.0376429818570613
1768416549894286600;6.14428662109375;0.2928466796875;-0.054412841796875;-0.9957427978515624;-0.0061574946157634;0.228143960237503;0.0307837445288896
1768416549904288500;6.15428857421875;0.2878570556640625;-0.04779052734375;-0.9993133544921876;-0.0101519702002406;0.2505475282669067;0.0269256234169006
1768416549914289400;6.164289306640625;0.279815673828125;-0.041351318359375;-1.0035858154296875;-0.0158069264143705;0.2735433876514435;0.0301890615373849
1768416549924291600;6.17429150390625;0.2681121826171875;-0.0384979248046875;-1.0053253173828125;-0.0210152696818113;0.3032101988792419;0.0449243299663066
1768416549934292500;6.18429248046875;0.2645416259765625;-0.0367584228515625;-1.003448486328125;-0.0235031954944133;0.3406103253364563;0.0535862632095813
1768416549944294700;6.194294677734375;0.2741851806640625;-0.0427703857421875;-1.0027313232421875;-0.0250536873936653;0.372797280550003;0.0451491028070449
1768416549954295600;6.204295654296875;0.2791290283203125;-0.0503082275390625;-0.9994659423828124;-0.0259759407490491;0.3959870040416717;0.0270220302045345
1768416549964297500;6.21429736328125;0.26910400390625;-0.0511016845703125;-1.0006866455078125;-0.0294260662049055;0.4163700640201568;0.0191153716295957
1768416549974298400;6.22429833984375;0.246917724609375;-0.0451812744140625;-1.000091552734375;-0.0323166623711586;0.4304110407829284;0.0273184403777122
1768416549984300500;6.234300537109375;0.228057861328125;-0.0364532470703125;-0.9956817626953124;-0.0329667367041111;0.4455894529819488;0.0382411293685436
1768416549994301400;6.244301513671875;0.220855712890625;-0.0308990478515625;-0.9907684326171876;-0.0319331660866737;0.4626379609107971;0.0420313403010368
1768416550004303600;6.2543037109375;0.21685791015625;-0.0335845947265625;-0.9876251220703124;-0.0295954421162605;0.4782198369503021;0.0402912311255931
1768416550014305500;6.264305419921875;0.21185302734375;-0.0359344482421875;-0.984649658203125;-0.0283725187182426;0.4908711910247803;0.0320498123764991
1768416550024306400;6.274306396484375;0.20404052734375;-0.041046142578125;-0.9797515869140624;-0.0281946193426847;0.4966790080070495;0.0250635407865047
1768416550034308600;6.28430859375;0.1934814453125;-0.044891357421875;-0.9736328125;-0.0214363168925046;0.4984356164932251;0.0157502014189958
1768416550044309500;6.2943095703125;0.183135986328125;-0.0489501953125;-0.9669189453125;-0.0187135003507137;0.4911790490150451;0.0090438285842537
1768416550054311400;6.3043115234375;0.171630859375;-0.0511474609375;-0.9658355712890624;-0.0132870431989431;0.4879366457462311;0.0098648816347122
1768416550064312600;6.3143125;0.1595916748046875;-0.049072265625;-0.96649169921875;-0.0101983090862631;0.4822318851947784;0.0164000112563371
1768416550074314500;6.324314453125;0.1486053466796875;-0.045379638671875;-0.966522216796875;-0.0085633946582674;0.4696628451347351;0.023936491459608
1768416550084315600;6.334315673828125;0.1406097412109375;-0.04534912109375;-0.9664306640625;-0.0026517093647271;0.4529885053634643;0.0284873005002737
1768416550094317600;6.344317626953125;0.1339111328125;-0.04559326171875;-0.9682464599609376;-0.0003057308786083;0.429142564535141;0.0307925343513488
1768416550104318700;6.354318603515625;0.1251220703125;-0.0469818115234375;-0.972564697265625;0.0010338390711694;0.4043147265911102;0.0363553427159786
1768416550114320600;6.364320556640625;0.122314453125;-0.0475006103515625;-0.975799560546875;-0.0021518340799957;0.3718750178813934;0.0412318594753742
1768416550124322600;6.374322509765625;0.1214752197265625;-0.0480499267578125;-0.9765167236328124;-0.004938299767673;0.342647910118103;0.04635950922966
1768416550134323700;6.38432373046875;0.1163177490234375;-0.053070068359375;-0.9744415283203124;-0.006899984087795;0.3161433041095733;0.0518426895141601
1768416550144325400;6.394325439453125;0.114044189453125;-0.05426025390625;-0.9698028564453124;-0.0057191383093595;0.294907808303833;0.0572603605687618
1768416550154326800;6.404326904296875;0.1062469482421875;-0.0566253662109375;-0.9695587158203124;-0.006654973141849;0.2817829549312591;0.0668250992894172
1768416550164328400;6.414328369140625;0.101898193359375;-0.0544281005859375;-0.9677276611328124;-0.0070062442682683;0.2588733732700348;0.0733341351151466
1768416550174329600;6.42432958984375;0.0995635986328125;-0.050567626953125;-0.9699859619140624;-0.0107818078249692;0.2266214191913604;0.0811467841267585
1768416550184331800;6.434331787109375;0.0941314697265625;-0.050811767578125;-0.971343994140625;-0.012483567930758;0.1957830786705017;0.0875114724040031
1768416550194332700;6.444332763671875;0.090301513671875;-0.0535736083984375;-0.9680633544921876;-0.015442606061697;0.1581523567438125;0.0964383855462074
1768416550204334600;6.45433447265625;0.0882568359375;-0.0554962158203125;-0.9676361083984376;-0.0117296269163489;0.1278793960809707;0.1036233305931091
1768416550214335700;6.464335693359375;0.0891571044921875;-0.056854248046875;-0.9681549072265624;-0.0114151071757078;0.0924356579780578;0.1069440245628357
1768416550224337700;6.474337646484375;0.09375;-0.0579376220703125;-0.96875;-0.0058626825921237;0.0597631968557834;0.1077858507633209
1768416550234339600;6.484339599609375;0.098388671875;-0.0547943115234375;-0.9700775146484376;-0.0037430729717016;0.0343941934406757;0.1018107831478118
1768416550244340700;6.4943408203125;0.1050872802734375;-0.0552978515625;-0.9691925048828124;0.0046474821865558;0.0109237544238567;0.0867279693484306
1768416550254342700;6.5043427734375;0.1110687255859375;-0.0576324462890625;-0.970916748046875;0.0107216201722621;-0.0109485210850834;0.0694989189505577
1768416550264343600;6.514343505859375;0.111175537109375;-0.0614166259765625;-0.97662353515625;0.0145917255431413;-0.0358448177576065;0.0597813092172145
1768416550274345700;6.524345703125;0.109771728515625;-0.063690185546875;-0.9784088134765624;0.0147781474515795;-0.0593520067632198;0.0528887808322906
1768416550284346000;6.53434619140625;0.112579345703125;-0.0619354248046875;-0.9813995361328124;0.0150678986683487;-0.0829018056392669;0.0488173402845859
1768416550294348000;6.54434814453125;0.1160888671875;-0.0601959228515625;-0.97967529296875;0.0167294461280107;-0.1065469458699226;0.041323471814394
1768416550304349000;6.554348876953125;0.1192169189453125;-0.05841064453125;-0.9786224365234376;0.0174524933099746;-0.1273017674684524;0.0309552531689405
1768416550314351000;6.56435107421875;0.12176513671875;-0.0567169189453125;-0.9763641357421876;0.0212123449891805;-0.1497655212879181;0.0217212736606597
1768416550324352000;6.57435205078125;0.123291015625;-0.0582733154296875;-0.9761505126953124;0.0216131508350372;-0.1643532514572143;0.0136918434873223
1768416550334354000;6.58435400390625;0.1274871826171875;-0.0592803955078125;-0.974365234375;0.0247567445039749;-0.1759990006685257;0.009050752967596
1768416550344355000;6.59435498046875;0.1315765380859375;-0.056121826171875;-0.9747467041015624;0.0291261933743953;-0.1888229101896286;-0.0002652508555911
1768416550354357000;6.60435693359375;0.1346893310546875;-0.0532989501953125;-0.9781036376953124;0.0311134438961744;-0.1956872045993805;-0.0027102991007268
1768416550364359000;6.61435888671875;0.136932373046875;-0.050689697265625;-0.9844207763671876;0.0340423882007598;-0.1995980590581894;-0.0013259878614917
1768416550374360000;6.624360107421875;0.13934326171875;-0.0457611083984375;-0.9869232177734376;0.0373638831079006;-0.1970092058181762;0.0016077503096312
1768416550384362000;6.634362060546875;0.147491455078125;-0.0451202392578125;-0.9924774169921876;0.0375830605626106;-0.1963402181863784;0.0005922870477661
1768416550394363000;6.64436279296875;0.15631103515625;-0.0432281494140625;-0.9931640625;0.0384856052696704;-0.1943574994802475;-0.0021563614718616
1768416550404365000;6.654364990234375;0.16278076171875;-0.0424652099609375;-0.994140625;0.03993995860219;-0.1861155480146408;-0.0091346427798271
1768416550414366000;6.664365966796875;0.17071533203125;-0.0433807373046875;-0.9953460693359376;0.0424918010830879;-0.1737606078386306;-0.015549398958683
1768416550424367900;6.674367919921875;0.17230224609375;-0.039947509765625;-0.9979705810546876;0.0442657321691513;-0.1581664681434631;-0.0207646675407886
1768416550434369000;6.684369140625;0.1771392822265625;-0.037933349609375;-1.00213623046875;0.0418126955628395;-0.1423531472682953;-0.0261636935174465
1768416550444371000;6.694370849609375;0.177825927734375;-0.0359954833984375;-1.0051727294921875;0.0414667502045631;-0.1205812767148017;-0.0298566985875368
1768416550454371800;6.704371826171875;0.178192138671875;-0.0337066650390625;-1.0089111328125;0.0382757484912872;-0.0997319221496582;-0.0334503687918186
1768416550464374000;6.7143740234375;0.176300048828125;-0.0326995849609375;-1.0074005126953125;0.0384901352226734;-0.0792189240455627;-0.0313137136399745
1768416550474375000;6.724375;0.1772918701171875;-0.031829833984375;-1.00628662109375;0.0355984754860401;-0.0607744008302688;-0.0297408513724803
1768416550484376800;6.734376953125;0.1774749755859375;-0.032623291015625;-1.00653076171875;0.032873261719942;-0.047368049621582;-0.0278955474495887
1768416550494379000;6.74437890625;0.174468994140625;-0.0326385498046875;-1.005584716796875;0.0293552260845899;-0.0334559604525566;-0.027548536658287
1768416550504380000;6.7543798828125;0.171478271484375;-0.0313262939453125;-1.00421142578125;0.0234858840703964;-0.0207297801971435;-0.0207622703164815
1768416550514381800;6.7643818359375;0.17254638671875;-0.03192138671875;-1.0063323974609375;0.0176767315715551;-0.0116446716710925;-0.0176716707646846
1768416550524383000;6.774383056640625;0.1734619140625;-0.03179931640625;-1.0051116943359375;0.0099959084764122;-0.00248579448089;-0.0158785656094551
1768416550534385000;6.784385009765625;0.172943115234375;-0.03179931640625;-1.0022430419921875;0.0054648066870868;0.0070869377814233;-0.0142609616741538
1768416550544385800;6.7943857421875;0.1698760986328125;-0.0310211181640625;-1.0001373291015625;0.0006442186422646;0.0166239831596612;-0.0129448268562555
1768416550554388000;6.804387939453125;0.1702728271484375;-0.0312347412109375;-0.999664306640625;-0.0037001960445195;0.0295685455203056;-0.0137794613838195
1768416550564388900;6.814388916015625;0.171722412109375;-0.0342864990234375;-0.998260498046875;-0.0060608219355344;0.0397146567702293;-0.0158210415393114
1768416550574390800;6.824390869140625;0.170501708984375;-0.03436279296875;-0.9944915771484376;-0.0063582970760762;0.0504202954471111;-0.0181502420455217
1768416550584392200;6.83439208984375;0.1656036376953125;-0.034912109375;-0.9908599853515624;-0.0060813282616436;0.0595778413116931;-0.0178767349570989
1768416550594393900;6.844393798828125;0.1610260009765625;-0.0362091064453125;-0.9923858642578124;-0.0056621469557285;0.0655518472194671;-0.0136697394773364
1768416550604395000;6.85439501953125;0.15887451171875;-0.037689208984375;-0.9916534423828124;-0.0065987803973257;0.0675750523805618;-0.0126793095842003
1768416550614397000;6.86439697265625;0.162139892578125;-0.0379486083984375;-0.9903106689453124;-0.0093908384442329;0.0659606382250785;-0.0206485521048307
1768416550624398800;6.87439892578125;0.163482666015625;-0.0382080078125;-0.9895477294921876;-0.0082504730671644;0.0651297345757484;-0.0270076487213373
1768416550634400000;6.88439990234375;0.15887451171875;-0.04132080078125;-0.98675537109375;-0.0084161218255758;0.06318349391222;-0.0288918353617191
1768416550644402000;6.89440185546875;0.1527862548828125;-0.041717529296875;-0.9863128662109376;-0.0073814834468066;0.0644349157810211;-0.0220581647008657
1768416550654403000;6.904403076171875;0.1477203369140625;-0.04083251953125;-0.98602294921875;-0.0074304859153926;0.0632330328226089;-0.0154655091464519
1768416550664405000;6.914405029296875;0.1473846435546875;-0.040771484375;-0.987518310546875;-0.0067284763790667;0.061196245253086;-0.0145328696817159
1768416550674406100;6.92440625;0.1506195068359375;-0.041259765625;-0.9865875244140624;-0.0035361452028155;0.0572225414216518;-0.0188543815165758
1768416550684408000;6.934407958984375;0.1480255126953125;-0.0431976318359375;-0.9846954345703124;-0.002951315138489;0.0499212220311164;-0.0212203338742256
1768416550694409000;6.944408935546875;0.142578125;-0.0457305908203125;-0.9833984375;-0.0028317391406744;0.0415098927915096;-0.0236523319035768
1768416550704411100;6.9544111328125;0.1424102783203125;-0.0487213134765625;-0.980682373046875;-4.58063695987e-05;0.0297403186559677;-0.0223798733204603
1768416550714412000;6.964412109375;0.1399383544921875;-0.051055908203125;-0.9817657470703124;0.0019957728218287;0.019083147868514;-0.0167009495198726
1768416550724414200;6.974414306640625;0.1350250244140625;-0.0454864501953125;-0.9845733642578124;0.0031750206835567;0.0064839981496334;-0.0039795613847672
1768416550734415000;6.9844150390625;0.134735107421875;-0.0427093505859375;-0.9873504638671876;0.0003685815026983;-0.0086281094700098;0.0092992261052131
1768416550744417000;6.9944169921875;0.13824462890625;-0.0404205322265625;-0.9869384765625;0.0019734024535864;-0.0212016906589269;0.0128944935277104
1768416550754419200;7.004419189453125;0.1431732177734375;-0.04205322265625;-0.985198974609375;0.0012588762911036;-0.0339411906898021;0.0100254695862531
1768416550764420000;7.014420166015625;0.1478424072265625;-0.044189453125;-0.9844512939453124;0.0024642229545861;-0.0452939793467521;0.0040597226470708
1768416550774422000;7.024422119140625;0.1496429443359375;-0.0461273193359375;-0.9829559326171876;0.0039063245058059;-0.0513593293726444;-0.0034708979073911
1768416550784423200;7.034423095703125;0.1515350341796875;-0.0456695556640625;-0.980926513671875;0.0071945297531783;-0.0574944503605365;-0.0075157070532441
1768416550794425000;7.044425048828125;0.1528167724609375;-0.0440826416015625;-0.9837646484375;0.0087258471176028;-0.0611765384674072;-0.0115203019231557
1768416550804426000;7.054426025390625;0.1551971435546875;-0.042755126953125;-0.98516845703125;0.0067846691235899;-0.0642791241407394;-0.0130865070968866
1768416550814428200;7.06442822265625;0.1547698974609375;-0.0416259765625;-0.985504150390625;0.0084382258355617;-0.0675944909453392;-0.0173552874475717
1768416550824429000;7.074428955078125;0.156097412109375;-0.041534423828125;-0.98529052734375;0.0118481377139687;-0.0689039677381515;-0.019752399995923
1768416550834431000;7.084430908203125;0.157379150390625;-0.04144287109375;-0.9854888916015624;0.0112816831097006;-0.0702826827764511;-0.0201457478106021
1768416550844432100;7.09443212890625;0.155548095703125;-0.0397796630859375;-0.98736572265625;0.0112569155171513;-0.067959077656269;-0.0166732519865036
1768416550854434000;7.10443408203125;0.153961181640625;-0.0381011962890625;-0.986663818359375;0.0111714284867048;-0.066681295633316;-0.0154175721108913
1768416550864435000;7.11443505859375;0.15484619140625;-0.0381011962890625;-0.988067626953125;0.0113575831055641;-0.0664021894335746;-0.0085178539156913
1768416550874437000;7.12443701171875;0.1551055908203125;-0.037261962890625;-0.988922119140625;0.0122635904699563;-0.0685825198888778;-0.0047849016264081
1768416550884438000;7.13443798828125;0.15765380859375;-0.037261962890625;-0.9887237548828124;0.0104284062981605;-0.0678347051143646;0.0013635384384542
1768416550894440000;7.14443994140625;0.1598358154296875;-0.0378570556640625;-0.9893798828125;0.0106425238773226;-0.063123844563961;0.005266667343676
1768416550904442000;7.154442138671875;0.1630859375;-0.0368804931640625;-0.9903717041015624;0.0104760769754648;-0.0611632205545902;0.0083436835557222
1768416550914443000;7.164443115234375;0.16766357421875;-0.0357513427734375;-0.991668701171875;0.0110819460824131;-0.0542030520737171;0.0073644393123686
1768416550924445000;7.17444482421875;0.1699676513671875;-0.036468505859375;-0.9940643310546876;0.0121946148574352;-0.0503963269293308;0.0067244814708828
1768416550934446000;7.184446044921875;0.17156982421875;-0.0370635986328125;-0.993743896484375;0.0120622552931308;-0.0462681613862514;0.0011070760665461
1768416550944448000;7.194447998046875;0.1732330322265625;-0.0377349853515625;-0.995330810546875;0.0103818010538816;-0.0423431955277919;-0.0015624766238033
1768416550954449000;7.204448974609375;0.1734161376953125;-0.0377655029296875;-0.993011474609375;0.0105351991951465;-0.0371915772557258;-0.0026969832833856
1768416550964451000;7.214451171875;0.1710968017578125;-0.0365447998046875;-0.990631103515625;0.0119464080780744;-0.0312785618007183;-0.0036839507520198
1768416550974452000;7.224451904296875;0.1699676513671875;-0.0367889404296875;-0.989105224609375;0.0119780991226434;-0.0264739524573087;-0.0032874059397727
1768416550984454000;7.234453857421875;0.172027587890625;-0.037567138671875;-0.9879913330078124;0.0099466405808925;-0.0221569668501615;-0.0009084042394533
1768416550994455000;7.244455078125;0.1727142333984375;-0.037445068359375;-0.9919891357421876;0.010268616490066;-0.0181755423545837;-0.0019409117521718
1768416551004457000;7.25445703125;0.17401123046875;-0.036163330078125;-0.99176025390625;0.0075756278820335;-0.0150963952764868;-0.0065345983020961
1768416551014457900;7.264457763671875;0.1729583740234375;-0.0372161865234375;-0.9889678955078124;0.0068858694285154;-0.0121559984982013;-0.0102446479722857
1768416551024460000;7.2744599609375;0.172271728515625;-0.0381927490234375;-0.9866485595703124;0.0050078080967068;-0.0079175774008035;-0.0119783654808998
1768416551034461000;7.2844609375;0.1690521240234375;-0.0373687744140625;-0.9877471923828124;0.006172408349812;-0.0060483049601316;-0.0136148780584335
1768416551044462800;7.294462890625;0.168701171875;-0.0369873046875;-0.98858642578125;0.0064176856540143;-0.0045066010206937;-0.0115469340234994
1768416551054465000;7.304465087890625;0.1663665771484375;-0.03582763671875;-0.9880523681640624;0.0071039823815226;-0.0032413334120064;-0.0104622282087802
1768416551064466000;7.3144658203125;0.1629486083984375;-0.036468505859375;-0.98724365234375;0.0038578552193939;-0.0022634204942733;-0.0056126117706298
1768416551074467800;7.3244677734375;0.1652374267578125;-0.0372161865234375;-0.9881439208984376;0.0048389635048806;-0.0021323929540812;-0.0047265784814953
1768416551084469000;7.334468994140625;0.16845703125;-0.0368804931640625;-0.988006591796875;0.0046565369702875;-0.00028842035681;-0.0051902346312999
1768416551094471000;7.344470947265625;0.1678924560546875;-0.0374298095703125;-0.989288330078125;0.0030048445332795;0.0002740392810665;-0.0071601746603846
1768416551104471800;7.354471923828125;0.1675567626953125;-0.0368499755859375;-0.98876953125;0.00515987444669;0.0021395836956799;-0.0098992362618446
1768416551114474000;7.364473876953125;0.169677734375;-0.037109375;-0.9903717041015624;0.0028905950020998;-0.0003749730822164;-0.0095263933762907
1768416551124475000;7.374474853515625;0.1667938232421875;-0.0378570556640625;-0.98956298828125;0.0026461167726665;-0.00234757643193;-0.0085367625579237
1768416551134476800;7.384476806640625;0.1676025390625;-0.038665771484375;-0.9874114990234376;0.0046144593507051;-0.0044943504035472;-0.0105543732643127
1768416551144478200;7.394478271484375;0.168609619140625;-0.0371551513671875;-0.9886627197265624;0.0037907434161752;-0.0037334854714572;-0.0097351856529712
1768416551154479900;7.40447998046875;0.1696624755859375;-0.03680419921875;-0.98773193359375;0.004718055948615;-0.0040834248065948;-0.0102323973551392
1768416551164481000;7.41448095703125;0.169921875;-0.0375823974609375;-0.990264892578125;0.0048602689057588;-0.0011390339350327;-0.0112414695322513
1768416551174483000;7.42448291015625;0.1710052490234375;-0.0362701416015625;-0.9913177490234376;0.0055556204169988;-4.55400549981e-05;-0.0136484345421195
1768416551184484000;7.434484130859375;0.1689910888671875;-0.037933349609375;-0.9923248291015624;0.0038663772866129;-0.000934236915782;-0.0129927638918161
1768416551194486000;7.444486083984375;0.1672515869140625;-0.0366058349609375;-0.9915008544921876;0.0027286747936159;-0.0033899378031492;-0.0111280186101794
1768416551204487200;7.454487060546875;0.1648712158203125;-0.03680419921875;-0.99078369140625;0.0006649913266301;-0.0093833813443779;-0.0075412732549011
1768416551214489000;7.464489013671875;0.1617431640625;-0.0361328125;-0.987762451171875;0.0017038905061781;-0.0092195970937609;-0.0026437200140208
1768416551224491000;7.474490966796875;0.1634063720703125;-0.037750244140625;-0.9844818115234376;0.0022405174095183;-0.0120918164029717;-0.0012644688831642
1768416551234492200;7.4844921875;0.164794921875;-0.03662109375;-0.982391357421875;0.0018109495285898;-0.0117357522249221;-0.0006173207075335
1768416551244494000;7.494494140625;0.166046142578125;-0.0369720458984375;-0.9853057861328124;0.0016128103015944;-0.0106060393154621;0.0027292075101286
1768416551254495000;7.504494873046875;0.164337158203125;-0.035980224609375;-0.9857177734375;0.0027087011840194;-0.0098707405850291;0.007398793939501
1768416551264497200;7.5144970703125;0.16680908203125;-0.03680419921875;-0.9870452880859376;0.0024564997293055;-0.0098781967535614;0.0054496265947818
1768416551274498000;7.524498046875;0.17340087890625;-0.0367431640625;-0.9876556396484376;0.0008058725506998;-0.0136409774422645;-0.002403502818197
1768416551284500000;7.5345;0.176788330078125;-0.038482666015625;-0.9870758056640624;0.0032104407437145;-0.0143059687688946;-0.012662798166275
1768416551294500900;7.5445009765625;0.174957275390625;-0.038177490234375;-0.9856414794921876;0.0032661007717251;-0.0126588037237524;-0.015849269926548
1768416551304503000;7.5545029296875;0.169464111328125;-0.0364532470703125;-0.987030029296875;0.0037345506716519;-0.0121847605332732;-0.0115519938990473
1768416551314504000;7.56450390625;0.166168212890625;-0.0319976806640625;-0.9894256591796876;0.0026857978664338;-0.0063055665232241;-0.0035308189690113
1768416551324505900;7.574505859375;0.1700439453125;-0.031768798828125;-0.991119384765625;0.000868190487381;-0.0063415192998945;-0.0032818133477121
1768416551334507000;7.584507080078125;0.1736907958984375;-0.0340728759765625;-0.990203857421875;7.0041132858e-05;-0.0067588365636765;-0.008487494662404
1768416551344509000;7.594509033203125;0.17156982421875;-0.03729248046875;-0.986907958984375;0.0004253068182151;-0.0119056617841124;-0.0117868846282362
1768416551354509800;7.604509765625;0.1674957275390625;-0.04052734375;-0.9818572998046876;-0.0001643170398892;-0.0162735115736722;-0.0149520514532923
1768416551364512000;7.614511962890625;0.1689453125;-0.041046142578125;-0.980621337890625;0.0034381409641355;-0.0224491171538829;-0.0175481010228395
1768416551374514000;7.624513916015625;0.1699676513671875;-0.040985107421875;-0.98291015625;0.0070208916440606;-0.0191398728638887;-0.0146561739966273
1768416551384514800;7.634514892578125;0.169281005859375;-0.0367584228515625;-0.984649658203125;0.0055492287501692;-0.0172807201743125;-0.0130018182098865
1768416551394517000;7.64451708984375;0.174072265625;-0.0363922119140625;-0.990142822265625;0.006852579768747;-0.0154660418629646;-0.0142377912998199
1768416551404518000;7.654517822265625;0.17901611328125;-0.0350799560546875;-0.989227294921875;0.0057990332134068;-0.0137011650949716;-0.0205042101442813
1768416551414519800;7.664519775390625;0.180328369140625;-0.0362701416015625;-0.991058349609375;0.0085671227425336;-0.0106862001121044;-0.0295994374901056
1768416551424521000;7.67452099609375;0.181610107421875;-0.037384033203125;-0.989044189453125;0.0063638896681368;-0.0084885591641068;-0.0414126887917518
1768416551434523000;7.68452294921875;0.178436279296875;-0.0368499755859375;-0.9882659912109376;0.0098489020019769;-0.004563592839986;-0.0461864024400711
1768416551444523800;7.694523681640625;0.1724090576171875;-0.035003662109375;-0.986968994140625;0.0113589148968458;-0.0001989381271414;-0.0488937720656394
1768416551454526000;7.70452587890625;0.171234130859375;-0.03619384765625;-0.9873809814453124;0.013905162923038;0.0034887411165982;-0.0430089868605136
1768416551464526800;7.71452685546875;0.1690673828125;-0.03338623046875;-0.9880828857421876;0.0161262396723032;0.0074427360668778;-0.0375854596495628
1768416551474528800;7.72452880859375;0.1680755615234375;-0.0326995849609375;-0.99237060546875;0.0146311409771442;0.0063489759340882;-0.0311648435890674
1768416551484530000;7.734530029296875;0.1693878173828125;-0.0330047607421875;-0.9956817626953124;0.0066829365678131;0.0022221414837986;-0.0264577064663171
1768416551494531800;7.74453173828125;0.167755126953125;-0.033172607421875;-0.9925079345703124;0.0047753141261637;0.0026399914640933;-0.0196083225309848
1768416551504532700;7.75453271484375;0.16796875;-0.0325775146484375;-0.9886932373046876;0.0009701895760372;0.0005331648280844;-0.015796273946762
1768416551514535000;7.764534912109375;0.1708221435546875;-0.0324554443359375;-0.987762451171875;0.0003539340978022;0.0002061286650132;-0.0137360524386167
1768416551524535800;7.774535888671875;0.172271728515625;-0.0326690673828125;-0.986968994140625;-0.0017164073651656;0.0014373080339282;-0.0130372382700443
1768416551534537700;7.784537841796875;0.17340087890625;-0.03375244140625;-0.9862213134765624;-0.0005946838646195;0.0022929816041141;-0.0121189812198281
1768416551544540000;7.794539794921875;0.1711273193359375;-0.0345458984375;-0.98565673828125;-0.0013140037190169;0.0050956923514604;-0.0125016765668988
1768416551554540800;7.804540771484375;0.17034912109375;-0.033935546875;-0.98516845703125;0.0001193096177303;0.0067793428897857;-0.0086281094700098
1768416551564542700;7.814542724609375;0.1692352294921875;-0.0357666015625;-0.98663330078125;0.0015877765836194;0.0080419471487402;-0.0043079294264316
1768416551574544000;7.8245439453125;0.1698455810546875;-0.0348052978515625;-0.9867095947265624;4.26105762016e-05;0.010064885020256;-0.0002330265997443
1768416551584545800;7.8345458984375;0.1713714599609375;-0.0334625244140625;-0.98858642578125;0.0014889733865857;0.012565060518682;0.0009459548164159
1768416551594546700;7.844546630859375;0.1725006103515625;-0.035400390625;-0.989501953125;0.0005038700764998;0.0135576203465461;0.000712661887519
1768416551604548900;7.854548828125;0.17205810546875;-0.0355224609375;-0.9884796142578124;-4.76705827168e-05;0.0131799839437007;-0.0001339570007985
1768416551614549800;7.8645498046875;0.17169189453125;-0.0346221923828125;-0.988494873046875;0.0003715109778568;0.0134963672608137;0.000680437660776
1768416551624551700;7.8745517578125;0.1679840087890625;-0.0356292724609375;-0.9881744384765624;0.0010207896120846;0.0113943349570035;0.0022117553744465
1768416551634552800;7.884552734375;0.168487548828125;-0.0366058349609375;-0.98736572265625;-0.0015323829138651;0.0120569290593266;0.003621366340667
1768416551644554800;7.8945546875;0.169097900390625;-0.0358123779296875;-0.987579345703125;-0.0002822950773406;0.0095263933762907;0.0063220779411494
1768416551654556000;7.904555908203125;0.1708526611328125;-0.0350341796875;-0.9871368408203124;0.000615456548985;0.0089868372306227;0.0064568337984383
1768416551664557800;7.914557861328125;0.173187255859375;-0.0357818603515625;-0.986480712890625;0.0001427454262739;0.0068224859423935;0.003670901292935
1768416551674559000;7.92455908203125;0.171478271484375;-0.0351409912109375;-0.98712158203125;0.0010197244118899;0.0099921803921461;0.0014410364674404
1768416551684561000;7.934560791015625;0.1717681884765625;-0.033935546875;-0.9879608154296876;-0.0001222391001647;0.0112196309491992;0.0008378304773941
1768416551694562000;7.94456201171875;0.171875;-0.0341644287109375;-0.9874725341796876;-0.0008234494016505;0.0105802062898874;-0.0002649845264386
1768416551704564000;7.95456396484375;0.16986083984375;-0.0356292724609375;-0.986297607421875;-0.0009198558400385;0.0078707057982683;-0.0015752597246319
1768416551714565600;7.964565673828125;0.1687774658203125;-0.0354766845703125;-0.9853363037109376;0.0030605047941207;0.0054999603889882;-0.00290257926099
1768416551724567000;7.974567138671875;0.16644287109375;-0.03570556640625;-0.982757568359375;0.0030911311041563;0.0029846045654267;-0.0011970909545198
1768416551734569000;7.98456884765625;0.167327880859375;-0.035614013671875;-0.9822235107421876;0.0033217607997357;0.0024141555186361;-0.000662594451569
1768416551744569900;7.99456982421875;0.1668701171875;-0.0353240966796875;-0.9858856201171876;0.0007651261985301;3.22242485708e-05;0.0005025385180488
1768416551754572000;8.004572021484375;0.167449951171875;-0.0336761474609375;-0.9883880615234376;-0.0006514092092402;-0.0004348942020442;0.0017289242241531
1768416551764573000;8.014572998046875;0.1682891845703125;-0.0321197509765625;-0.988433837890625;-0.0026053704787045;-0.0048845037817955;0.0034567830152809
1768416551774574800;8.024574951171875;0.1696624755859375;-0.0312042236328125;-0.9898834228515624;-0.0025031049735844;-0.0048629320226609;0.0028168254066258
1768416551784576000;8.034575927734375;0.1688690185546875;-0.0338134765625;-0.9891510009765624;-0.0022285331506282;-0.0077878818847239;0.0010626012226566
1768416551794578000;8.044577880859375;0.17218017578125;-0.03509521484375;-0.9866180419921876;-0.0023214775137603;-0.0083157205954194;-0.0015507587231695
1768416551804578800;8.054578857421875;0.1740875244140625;-0.0364227294921875;-0.9865570068359376;-0.0017363809747621;-0.0075942701660096;-0.0037550569977611
1768416551814581000;8.0645810546875;0.1724090576171875;-0.0360107421875;-0.987457275390625;-0.0029214876703917;-0.0060658818110823;-0.0048168594948947
1768416551824582000;8.074581787109375;0.173797607421875;-0.0365753173828125;-0.9865875244140624;-0.0019118833588436;-0.0049593383446335;-0.0063537694513797
1768416551834583800;8.084583740234375;0.173370361328125;-0.036163330078125;-0.9878082275390624;-3.86158353649e-05;0.0003304982965346;-0.0043899547308683
1768416551844585000;8.0945849609375;0.1730499267578125;-0.034912109375;-0.9890899658203124;1.49137022162e-05;0.0029238844290375;-0.0057494984939694
1768416551854587000;8.1045869140625;0.172332763671875;-0.0345916748046875;-0.9882659912109376;0.00056485645473;0.0011313108261674;-0.0033076461404561
1768416551864587800;8.114587890625;0.1702880859375;-0.032806396484375;-0.9873199462890624;0.0007198524544946;-0.0002213086845586;-0.0031510521657764
1768416551874590000;8.12458984375;0.16851806640625;-0.033355712890625;-0.986114501953125;0.0017323862994089;0.0003571299021132;-0.000843156769406
1768416551884590800;8.1345908203125;0.1671905517578125;-0.035400390625;-0.9842529296875;0.0014317154418677;-0.0009720537927933;0.0015670040156692
1768416551894592800;8.1445927734375;0.1694488525390625;-0.03521728515625;-0.9855194091796876;0.0020506340079009;0.0002825613773893;0.0041566616855561
1768416551904595000;8.154594970703124;0.171417236328125;-0.0356597900390625;-0.9871826171875;0.0002316950121894;-0.0012077435385435;0.0047422908246517
1768416551914595800;8.164595947265624;0.1711273193359375;-0.0334320068359375;-0.988250732421875;-0.0001038632835843;5.91221760259e-05;0.0062906527891755
1768416551924598000;8.174597900390625;0.1669158935546875;-0.0321197509765625;-0.9905548095703124;-0.0004561994865071;0.0054749264381825;0.0129869049414992
1768416551934599000;8.184598876953125;0.16973876953125;-0.0325469970703125;-0.9908447265625;-0.0024908545892685;0.004251470323652;0.0155201042070984
1768416551944600800;8.194600830078125;0.1768341064453125;-0.03363037109375;-0.990570068359375;-0.0016516925534233;0.0056775929406285;0.0112515892833471
1768416551954601700;8.204601806640625;0.1804962158203125;-0.0364990234375;-0.9882965087890624;-0.0022996396292001;0.0073535204865038;0.0043571977876126
1768416551964604000;8.21460400390625;0.17755126953125;-0.037353515625;-0.987579345703125;-0.0018490327056497;0.0074398065917193;0.0019038938917219
1768416551974604800;8.224604736328125;0.1723785400390625;-0.034423828125;-0.9871826171875;-2.47673979174e-05;0.0110358735546469;0.0034450651146471
1768416551984607000;8.23460693359375;0.17242431640625;-0.0318603515625;-0.9886932373046876;-0.0010594055056571;0.0155696384608745;0.0042093922384083
1768416551994607900;8.24460791015625;0.17523193359375;-0.032562255859375;-0.9898681640625;-0.0039960732683539;0.0165496822446584;0.0001312938402406
1768416552004609800;8.25460986328125;0.1743621826171875;-0.03472900390625;-0.987152099609375;-0.0036985981278121;0.0136795928701758;-0.0056927730329334
1768416552014610700;8.264610595703125;0.1700592041015625;-0.036712646484375;-0.9848175048828124;-0.0042882221750915;0.0104206828400492;-0.0090203927829861
1768416552024612900;8.27461279296875;0.16668701171875;-0.0379180908203125;-0.9821014404296876;-0.0040900828316807;0.0045888926833868;-0.0090672643855214
1768416552034613800;8.28461376953125;0.168701171875;-0.0374298095703125;-0.980712890625;-0.0011187939671799;0.0039848880842328;-0.0066595007665455
1768416552044616000;8.294615966796876;0.166900634765625;-0.0351104736328125;-0.9834747314453124;-0.000180562317837;0.0045124599710106;-0.0010921623324975
1768416552054616800;8.304616943359376;0.166717529296875;-0.0335693359375;-0.985992431640625;-0.0002705771767068;0.0042309639975428;0.0069761504419147
1768416552064618800;8.31461865234375;0.16851806640625;-0.0332183837890625;-0.987091064453125;0.0008072041091509;0.0051662661135196;0.011927499435842
1768416552074619600;8.32461962890625;0.170562744140625;-0.0351409912109375;-0.9875640869140624;7.37695590942e-05;0.007136738859117;0.0106116319075226
1768416552084621800;8.334621826171874;0.17633056640625;-0.0361785888671875;-0.989776611328125;-0.0006836334359832;0.0050064763054251;0.0013419669121503
1768416552094623000;8.344623046875;0.180572509765625;-0.0355072021484375;-0.9912261962890624;-0.0019928433466702;0.0053287190385162;-0.0107850031927227
1768416552104625000;8.354625;0.1810455322265625;-0.0363922119140625;-0.9879302978515624;-0.0013608753215521;0.0027281423099339;-0.0200051330029964
1768416552114626800;8.364626708984375;0.17376708984375;-0.0352783203125;-0.9864501953125;0.0006213154993019;0.0052229915745556;-0.0210589468479156
1768416552124627700;8.374627685546875;0.1678314208984375;-0.031768798828125;-0.9871368408203124;0.0004514057945925;0.005994243081659;-0.0194594524800777
1768416552134630000;8.3846298828125;0.1681060791015625;-0.032745361328125;-0.9891510009765624;4.82032155559e-05;0.0057992995716631;-0.0206019468605518
1768416552144630800;8.394630859375;0.173492431640625;-0.0346832275390625;-0.9898834228515624;-0.0028490496333688;0.0021393173374235;-0.024093884974718
1768416552154632700;8.4046328125;0.1751861572265625;-0.0345306396484375;-0.9895477294921876;-0.0009185242815874;0.0031353395897895;-0.0280422866344451
1768416552164634000;8.414634033203125;0.1700286865234375;-0.0351104736328125;-0.9866790771484376;-0.00262614316307;0.0045436192303895;-0.0275320261716842
1768416552174635800;8.4246357421875;0.1651611328125;-0.0336151123046875;-0.9849395751953124;-0.0035217641852796;0.0053838463500142;-0.0240187831223011
1768416552184637000;8.434636962890625;0.16485595703125;-0.034423828125;-0.9835052490234376;-0.0015148060629144;0.004554271697998;-0.0186144299805164
1768416552194638800;8.444638916015625;0.1643829345703125;-0.034454345703125;-0.983551025390625;-0.0018306568963453;0.0025355955585837;-0.0131126064807176
1768416552204640000;8.454639892578125;0.1658172607421875;-0.0346527099609375;-0.9856719970703124;-0.0038874163292348;0.0022690133191645;-0.0106270778924226
1768416552214642000;8.464641845703126;0.167877197265625;-0.0347442626953125;-0.9870452880859376;-0.0029230855870991;0.0006769755273126;-0.0079793632030487
1768416552224642800;8.474642822265626;0.166351318359375;-0.03369140625;-0.9864349365234376;-0.0019750001374632;0.0014857775531709;-0.0023590279743075
1768416552234645000;8.48464501953125;0.167144775390625;-0.0322723388671875;-0.9899444580078124;-0.0022756711114197;0.0034985947422683;0.0046405582688748
1768416552244646000;8.49464599609375;0.1704559326171875;-0.0337371826171875;-0.9900970458984376;-0.0034013893455266;0.00145728175994;0.0066318036988377
1768416552254648000;8.50464794921875;0.1725921630859375;-0.0317840576171875;-0.9911041259765624;-0.0024072313681244;0.0040456079877913;0.010448645800352
1768416552264649000;8.51464892578125;0.1726837158203125;-0.033172607421875;-0.9906005859375;-0.0051761199720203;0.0071694958023726;0.010840130969882
1768416552274651000;8.52465087890625;0.1742401123046875;-0.034912109375;-0.9906158447265624;-0.0032993901986628;0.0088179921731352;0.0084928208962082
1768416552284652500;8.534652587890625;0.176025390625;-0.0357208251953125;-0.9886932373046876;-0.0034418692812323;0.0099916476756334;0.0087380977347493
1768416552294654500;8.544654541015625;0.1733245849609375;-0.0372772216796875;-0.9878997802734376;-0.0010351707460358;0.0115602491423487;0.0041550640016794
1768416552304655600;8.554655517578125;0.1694793701171875;-0.035858154296875;-0.9892120361328124;-0.003564907470718;0.0144077017903327;0.0062240739353001
1768416552314657500;8.564657470703125;0.168792724609375;-0.0349884033203125;-0.98846435546875;-0.002386991167441;0.0152087798342108;0.0100840590894222
1768416552324658400;8.574658447265625;0.1705474853515625;-0.0355224609375;-0.988677978515625;-0.0017307883827015;0.0154308881610631;0.0103692840784788
1768416552334660600;8.58466064453125;0.173828125;-0.0355072021484375;-0.9881439208984376;-0.0025569009594619;0.0157994702458381;0.0080241039395332
1768416552344661500;8.59466162109375;0.172393798828125;-0.0347747802734375;-0.9881134033203124;-0.00192200334277;0.0199657194316387;0.0077663101255893
1768416552354663400;8.604663330078125;0.1705322265625;-0.0345306396484375;-0.9886627197265624;-0.0036658411845564;0.0174069534987211;0.0096544912084937
1768416552364665600;8.61466552734375;0.1689605712890625;-0.034332275390625;-0.9891204833984376;-0.0036301547661423;0.0162239763885736;0.0117165772244334
1768416552374666500;8.62466650390625;0.166046142578125;-0.032470703125;-0.9911956787109376;-0.0042203115299344;0.0155251640826463;0.0189350750297307
1768416552384668400;8.63466845703125;0.16845703125;-0.031280517578125;-0.9922943115234376;-0.0056610815227031;0.0179813969880342;0.0267176311463117
1768416552394669600;8.644669677734376;0.170318603515625;-0.0317840576171875;-0.9933929443359376;-0.0054166032932698;0.0220525711774826;0.0292662754654884
1768416552404671500;8.65467138671875;0.172088623046875;-0.032928466796875;-0.9926300048828124;-0.0054024886339902;0.0286745224148035;0.0308559164404869
1768416552414672400;8.66467236328125;0.1743011474609375;-0.0350189208984375;-0.9900360107421876;-0.0041912826709449;0.0365348421037197;0.0295166131108999
1768416552424674600;8.674674560546874;0.17572021484375;-0.03656005859375;-0.9895477294921876;-0.0020841897930949;0.0409607477486133;0.0262893941253423
1768416552434675500;8.684675537109374;0.1728668212890625;-0.0362701416015625;-0.98797607421875;0.0010197244118899;0.0471509993076324;0.0230648387223482
1768416552444677400;8.694677490234374;0.170440673828125;-0.033294677734375;-0.9881134033203124;0.0010500843636691;0.0486580841243267;0.0215276628732681
1768416552454678500;8.704678466796874;0.1667633056640625;-0.0317840576171875;-0.987762451171875;-0.0018383801216259;0.0476202480494976;0.0228765532374382
1768416552464680400;8.714680419921875;0.1654510498046875;-0.0328521728515625;-0.9880218505859376;-0.0046253781765699;0.0467193014919757;0.0241194516420364
1768416552474681300;8.724681396484375;0.163970947265625;-0.033233642578125;-0.98724365234375;-0.0048112669028341;0.0432444103062152;0.0254686083644628
1768416552484683500;8.73468359375;0.1647491455078125;-0.0339508056640625;-0.9859771728515624;-0.0051532168872654;0.0420672930777072;0.0234651118516922
1768416552494684400;8.744684326171875;0.16607666015625;-0.0344085693359375;-0.9858245849609376;-0.0058395131491124;0.0387497916817665;0.0198179129511117
1768416552504686300;8.754686279296875;0.1646575927734375;-0.0341949462890625;-0.9857940673828124;-0.004685831721872;0.0375191457569599;0.0186168272048234
1768416552514687500;8.7646875;0.1647796630859375;-0.0339202880859375;-0.984832763671875;-0.0056309876963496;0.0367231257259845;0.0195537284016609
1768416552524689400;8.774689453125;0.162353515625;-0.03399658203125;-0.985931396484375;-0.0068001155741512;0.038408376276493;0.021769743412733
1768416552534690300;8.784690185546875;0.1603240966796875;-0.033416748046875;-0.988861083984375;-0.0066555058583617;0.03828826546669;0.0249287858605384
1768416552544692500;8.7946923828125;0.16290283203125;-0.032440185546875;-0.987762451171875;-0.0060919807292521;0.0371950380504131;0.0266734231263399
1768416552554693400;8.804693359375;0.1636199951171875;-0.03240966796875;-0.98944091796875;-0.0063103600405156;0.0372443087399005;0.022024342790246
1768416552564695300;8.8146953125;0.16180419921875;-0.0334625244140625;-0.9877471923828124;-0.0078089209273457;0.0372198075056076;0.0231202319264411
1768416552574696400;8.824696533203126;0.1619720458984375;-0.034149169921875;-0.9863128662109376;-0.006141782272607;0.0337829962372779;0.0214576218277215
1768416552584698400;8.834698486328126;0.1620635986328125;-0.035369873046875;-0.9864044189453124;-0.0053039514459669;0.0328215956687927;0.016578709706664
1768416552594699300;8.84469921875;0.160552978515625;-0.034088134765625;-0.984771728515625;-0.0040775658562779;0.029365612193942;0.0176437087357044
1768416552604701400;8.854701416015626;0.1592864990234375;-0.033660888671875;-0.9863739013671876;-0.0048914281651377;0.0287839770317077;0.018532671034336
1768416552614702300;8.864702392578126;0.16058349609375;-0.033843994140625;-0.9864501953125;-0.0046128612011671;0.0283315069973468;0.0139573607593774
1768416552624704300;8.874704345703124;0.1648101806640625;-0.0345458984375;-0.9872283935546876;-0.0055521582253277;0.0232222322374582;0.0051998221315443
1768416552634706400;8.88470654296875;0.165618896484375;-0.035186767578125;-0.98455810546875;-0.003190200543031;0.019413910806179;-0.0041398839093744
1768416552644707300;8.894707275390624;0.1632080078125;-0.03857421875;-0.9840850830078124;-0.0041148499585688;0.0153786903247237;-0.0066816047765314
1768416552654709200;8.904709228515625;0.159149169921875;-0.0382080078125;-0.9835968017578124;-0.001497761812061;0.015116368420422;-0.0063822655938565
1768416552664710400;8.91471044921875;0.158233642578125;-0.0357513427734375;-0.9837799072265624;-0.0012207929976284;0.0131392376497387;-0.00819081813097
1768416552674712300;8.92471240234375;0.1610107421875;-0.0351104736328125;-0.9860382080078124;-0.0022162825334817;0.0082203792408108;-0.0109756859019398
1768416552684713500;8.93471337890625;0.1612396240234375;-0.03668212890625;-0.98455810546875;-0.0015084143960848;0.0014149374328553;-0.0132947666570544
1768416552694715400;8.94471533203125;0.1558074951171875;-0.0387420654296875;-0.981658935546875;-0.00342722190544;-0.0054925032891333;-0.0155182396993041
1768416552704716500;8.954716552734375;0.153564453125;-0.0407257080078125;-0.9804534912109376;-0.0019094864837825;-0.018198711797595;-0.0191569160670042
1768416552714718500;8.964718505859375;0.1582183837890625;-0.042449951171875;-0.9804534912109376;0.0010210559703409;-0.0250747259706258;-0.0198290981352329
1768416552724719600;8.9747197265625;0.157745361328125;-0.0406036376953125;-0.98284912109375;0.004800081718713;-0.028645759448409;-0.0133696012198925
1768416552734721500;8.984721435546875;0.157379150390625;-0.03607177734375;-0.9890899658203124;0.0048064729198813;-0.0281557384878397;-0.0052711945027112
1768416552744722400;8.994722412109375;0.161346435546875;-0.033660888671875;-0.9908905029296876;0.0076206354424357;-0.0260646231472492;-0.0027449200861155
1768416552754724600;9.004724609375;0.1650238037109375;-0.033203125;-0.9903411865234376;0.0083410209044814;-0.0222616288810968;-0.0030298782512545
1768416552764725500;9.0147255859375;0.1692962646484375;-0.0352020263671875;-0.9908905029296876;0.0103088300675153;-0.0186586398631334;-0.0108028464019298
1768416552774727400;9.0247275390625;0.1708984375;-0.0364227294921875;-0.9922027587890624;0.0090209254994988;-0.0190043170005083;-0.0184394605457782
1768416552784728600;9.034728515625;0.169342041015625;-0.0352325439453125;-0.990875244140625;0.008061921223998;-0.0212568193674087;-0.0213953033089637
1768416552794730500;9.04473046875;0.1667938232421875;-0.0319366455078125;-0.9903411865234376;0.0086672576144337;-0.0197100546211004;-0.022168418392539
1768416552804731400;9.0547314453125;0.1664276123046875;-0.0312957763671875;-0.990509033203125;0.007701595313847;-0.0192083157598972;-0.023282952606678
1768416552814733600;9.064733642578124;0.1659088134765625;-0.03240966796875;-0.9912109375;0.0059329904615879;-0.0181686170399189;-0.0236701760441064
1768416552824734500;9.074734375;0.1653594970703125;-0.0307464599609375;-0.99139404296875;0.0044267061166465;-0.0210986267775297;-0.020823523402214
1768416552834736400;9.084736328125;0.164306640625;-0.031219482421875;-0.98931884765625;0.0029324067290872;-0.0210086125880479;-0.0230821501463651
1768416552844737500;9.094737548828125;0.1662445068359375;-0.0339202880859375;-0.9871063232421876;0.0038400120101869;-0.0220427177846431;-0.024172181263566
1768416552854739500;9.104739501953125;0.1693115234375;-0.033935546875;-0.987396240234375;0.0015025554457679;-0.0222845319658517;-0.0312540605664253
1768416552864740400;9.114740234375;0.1699676513671875;-0.0357513427734375;-0.986328125;-0.0003936151915695;-0.0228134375065565;-0.037724208086729
1768416552874742500;9.124742431640623;0.16680908203125;-0.0337982177734375;-0.987060546875;-0.0007155913626775;-0.0220435168594121;-0.0388350151479244
1768416552884743400;9.134743408203123;0.1633148193359375;-0.030792236328125;-0.9887847900390624;-0.0025126924738287;-0.0199769046157598;-0.0302782766520977
1768416552894745300;9.144745361328123;0.1602630615234375;-0.029754638671875;-0.9901885986328124;-0.0025960493367165;-0.0166980195790529;-0.0228528510779142
1768416552904746500;9.15474658203125;0.1609649658203125;-0.0281219482421875;-0.99163818359375;-0.0051691955886781;-0.013229252770543;-0.014951785095036
1768416552914748400;9.16474853515625;0.16412353515625;-0.0303192138671875;-0.9915008544921876;-0.0051763863302767;-0.0100414492189884;-0.009737049229443
1768416552924749300;9.174749267578123;0.16668701171875;-0.031707763671875;-0.99029541015625;-0.0058259312063455;-0.0081511372700333;-0.0068302094005048
1768416552934751500;9.18475146484375;0.168792724609375;-0.032562255859375;-0.990203857421875;-0.0056549562141299;-0.0045273737050592;-0.0083514070138335
1768416552944752400;9.19475244140625;0.1683349609375;-0.03436279296875;-0.9900360107421876;-0.0030597057193517;-0.0018903117161244;-0.0076251626014709
1768416552954754300;9.20475439453125;0.1688385009765625;-0.0363311767578125;-0.9880828857421876;-0.0015478292480111;0.0009281116072088;-0.0064736120402812
1768416552964756500;9.214756591796874;0.1694793701171875;-0.0347137451171875;-0.987213134765625;-0.000844222086016;0.0045156558044254;-0.0074973311275243
1768416552974757400;9.22475732421875;0.1692657470703125;-0.0347442626953125;-0.98748779296875;-0.0002447445003781;0.0057039582170546;-0.0070107714273035
1768416552984759600;9.234759521484374;0.1691741943359375;-0.0346221923828125;-0.988250732421875;-0.0003576625313144;0.0087420921772718;-0.0076035913079977
1768416552994760400;9.244760498046874;0.168792724609375;-0.0356597900390625;-0.9867706298828124;0.0024538366124033;0.011036405339837;-0.0072243572212755
1768416553004762400;9.254762451171874;0.16864013671875;-0.03594970703125;-0.986297607421875;0.000900947372429;0.0122260395437479;-0.0088512822985649
1768416553014763300;9.26476318359375;0.1657257080078125;-0.03582763671875;-0.9871826171875;0.0037942056078463;0.0143376598134636;-0.0108635667711496
1768416553024765400;9.274765380859376;0.16949462890625;-0.034820556640625;-0.986785888671875;0.0041822283528745;0.0121123231947422;-0.0104126930236816
1768416553034766300;9.284766357421876;0.16839599609375;-0.035919189453125;-0.988037109375;0.0026351979468017;0.0124795725569128;-0.0122004738077521
1768416553044768500;9.2947685546875;0.168426513671875;-0.034698486328125;-0.990203857421875;0.0041185785084962;0.0097500989213585;-0.0123722469434142
1768416553054769400;9.304769287109377;0.166717529296875;-0.0356903076171875;-0.9892578125;0.0035598473623394;0.0084454165771603;-0.0114987306296825
1768416553064771300;9.314771240234377;0.1634979248046875;-0.034423828125;-0.9893951416015624;0.003238403936848;0.0071252873167395;-0.011127752251923
1768416553074772500;9.3247724609375;0.164276123046875;-0.0330963134765625;-0.9878997802734376;0.0023265376221388;0.007439540233463;-0.008968461304903
1768416553084774400;9.3347744140625;0.1644287109375;-0.0326080322265625;-0.9873504638671876;0.0035052525345236;0.0050826431252062;-0.0083585977554321
1768416553094775600;9.344775634765623;0.1642303466796875;-0.0321807861328125;-0.9861602783203124;0.0056733321398496;0.007195328362286;-0.0054791877046227
1768416553104777500;9.354777587890624;0.1656494140625;-0.0319976806640625;-0.986480712890625;0.0046573360450565;0.0048472196795046;-0.0048043425194919
1768416553114778600;9.364778564453124;0.1657257080078125;-0.03131103515625;-0.989288330078125;0.0004439489566721;0.0046821036376059;-0.0033380060922354
1768416553124780500;9.374780517578126;0.1633148193359375;-0.0326690673828125;-0.9878692626953124;0.0025278725661337;0.0061537660658359;-0.0041177794337272
1768416553134781400;9.384781494140626;0.16448974609375;-0.03076171875;-0.98760986328125;0.0027776770293712;0.0064480453729629;-0.0032330774702131
1768416553144783600;9.39478369140625;0.165863037109375;-0.0321197509765625;-0.9871673583984376;0.0018002968281507;0.0057393782772123;-0.0052765212021768
1768416553154784500;9.404784423828126;0.1635894775390625;-0.03338623046875;-0.984954833984375;0.0029899310320615;0.005396363325417;-0.0061678811907768
1768416553164786400;9.414786376953124;0.165557861328125;-0.033050537109375;-0.9856719970703124;0.0014484933344647;0.0044757085852324;-0.0071772192604839
1768416553174787600;9.42478759765625;0.1676177978515625;-0.032501220703125;-0.9876861572265624;0.0006761765689589;0.0030549119692295;-0.0086310384795069
1768416553184789500;9.43478955078125;0.166229248046875;-0.0337677001953125;-0.9871368408203124;0.0023398532066494;0.0037063213530927;-0.0089080072939395
1768416553194790400;9.444790283203124;0.1662139892578125;-0.034698486328125;-0.986114501953125;0.0031736891251057;0.0033585124183446;-0.0092427665367722
1768416553204792600;9.45479248046875;0.1655426025390625;-0.0348968505859375;-0.9874267578125;0.0024908545892685;0.0008271778351627;-0.0097847199067473
1768416553214793500;9.46479345703125;0.16265869140625;-0.033050537109375;-0.9874114990234376;0.0008378304773941;-0.0012950951931998;-0.0082989428192377
1768416553224795400;9.47479541015625;0.161163330078125;-0.0324554443359375;-0.986236572265625;0.0022895196452736;-0.0030205573420971;-0.0046352320350706
1768416553234796500;9.484796630859377;0.1602935791015625;-0.0320892333984375;-0.9872589111328124;0.0013281183782964;-0.0044871601276099;-0.0008314388687722
1768416553244798500;9.494798583984377;0.1620941162109375;-0.0325927734375;-0.9879302978515624;0.0008106662426143;-0.005266667343676;0.002241582609713
1768416553254799400;9.50479931640625;0.163665771484375;-0.0326995849609375;-0.987335205078125;0.0009139968897216;-0.0075130434706807;0.0039081890136003
1768416553264801500;9.514801513671877;0.1663360595703125;-0.0334320068359375;-0.988067626953125;0.0011968245962634;-0.0082496739923954;0.0005448827287182
1768416553274802400;9.524802490234377;0.16497802734375;-0.0323333740234375;-0.9876556396484376;0.0020825918763875;-0.007611580658704;-0.0009321063989773
1768416553284804900;9.534804931640624;0.16571044921875;-0.03253173828125;-0.9885406494140624;-0.0001603222917765;-0.0058967713266611;0.0032887374982237
1768416553294805800;9.5448056640625;0.1668701171875;-0.03265380859375;-0.9881591796875;0.0003323625132907;-0.0041734399273991;0.0034802188165485
1768416553304807700;9.5548076171875;0.169708251953125;-0.0331268310546875;-0.9882659912109376;-0.0001336906861979;-0.0064302026294171;-0.0014887070283293
1768416553314808600;9.56480859375;0.175506591796875;-0.0345001220703125;-0.9881439208984376;-0.0002016012876993;-0.0067777447402477;-0.0083870934322476
1768416553324810800;9.574810791015626;0.1730499267578125;-0.0361480712890625;-0.987396240234375;0.0002785666438285;-0.0068568410351872;-0.0161475446075201
1768416553334811600;9.584811767578126;0.1693878173828125;-0.0352935791015625;-0.9884185791015624;0.0019212043844163;-0.0052046156488358;-0.0148825431242585
1768416553344813800;9.594813720703126;0.16552734375;-0.0320892333984375;-0.9877166748046876;0.001561944023706;-0.0023782027419656;-0.0105482479557394
1768416553354814700;9.604814697265626;0.169097900390625;-0.030609130859375;-0.9906768798828124;0.000186953911907;-0.0019246664596721;-0.0096710035577416
1768416553364816600;9.614816650390624;0.171295166015625;-0.029693603515625;-0.989013671875;0.0023646207991987;0.0027225494850426;-0.0102648884057998
1768416553374817500;9.624817626953124;0.1693267822265625;-0.031982421875;-0.9859619140625;0.0007009439868852;0.0054352455772459;-0.0159994736313819
1768416553384819700;9.63481982421875;0.1671142578125;-0.035736083984375;-0.985748291015625;0.0018719359068199;0.0013182647526264;-0.02330825291574
1768416553394821600;9.644821533203125;0.1677398681640625;-0.0386505126953125;-0.98040771484375;0.0040674461051821;-0.0017092167399823;-0.0271293558180332
1768416553404822500;9.654822509765625;0.167449951171875;-0.037689208984375;-0.983001708984375;0.0062978430651128;-0.0016793893883004;-0.0230698995292186
1768416553414824700;9.66482470703125;0.166412353515625;-0.033294677734375;-0.9873046875;0.0080408826470375;0.0007408913807012;-0.016940901055932
1768416553424825600;9.67482568359375;0.16412353515625;-0.033355712890625;-0.9893798828125;0.0086523443460464;0.00402243854478;-0.0065974490717053
1768416553434827800;9.684827880859377;0.1644744873046875;-0.0320587158203125;-0.9912872314453124;0.0088267810642719;0.0035079156514257;-0.0029979203827679
1768416553444828700;9.69482861328125;0.168212890625;-0.0295257568359375;-0.990753173828125;0.008167115971446;0.004751878324896;-0.004979046061635
1768416553454830600;9.70483056640625;0.170867919921875;-0.0330963134765625;-0.99072265625;0.0073553845286369;0.0065409899689257;-0.0106577044352889
1768416553464831500;9.71483154296875;0.1717681884765625;-0.0323028564453125;-0.988189697265625;0.0085609974339604;0.0073218285106122;-0.0145328696817159
1768416553474833700;9.724833740234375;0.1672821044921875;-0.0308685302734375;-0.9815673828125;0.0183094982057809;0.015607189387083;-0.01903654076159
1768416553484834600;9.73483447265625;0.169158935546875;-0.0323638916015625;-0.9830169677734376;0.017191769555211;0.0167619362473487;-0.0191766247153282
1768416553494836700;9.744836669921876;0.170745849609375;-0.0335693359375;-0.992828369140625;0.0138809280470013;0.0134447021409869;-0.0201087296009063
1768416553504837600;9.754837646484376;0.1669769287109375;-0.0325927734375;-0.992950439453125;0.0114305531606078;0.0109953926876187;-0.0199713110923767
1768416553514839600;9.764839599609376;0.1682281494140625;-0.0315399169921875;-0.9926910400390624;0.0063399211503565;0.0092318477109074;-0.0198629200458526
1768416553524840700;9.7748408203125;0.1655120849609375;-0.0284576416015625;-0.9915008544921876;0.0044059338979423;0.0054317833855748;-0.0171744599938392
1768416553534842600;9.784842529296874;0.163421630859375;-0.028106689453125;-0.9890289306640624;0.0017297230660915;0.0034858114086091;-0.0156199727207422
1768416553544843800;9.79484375;0.1626129150390625;-0.0281829833984375;-0.9884185791015624;0.0028285433072596;0.0024072313681244;-0.0127426935359835
1768416553554845700;9.804845703125;0.1629180908203125;-0.0301361083984375;-0.9873199462890624;-0.0001211738272104;0.0027361316606402;-0.0090478230267763
1768416553564846800;9.814846923828124;0.1631622314453125;-0.0305023193359375;-0.98626708984375;0.0002676477015484;0.001555019756779;-0.0077671092003583
1768416553574848800;9.824848876953125;0.1635894775390625;-0.0307159423828125;-0.98553466796875;2.6631610126e-06;-0.0021973741240799;-0.0045848982408642
1768416553584849700;9.834849609375;0.1652069091796875;-0.0305328369140625;-0.9871368408203124;0.0007973504252731;-0.002757170703262;-0.0060272659175097
1768416553594851800;9.844851806640625;0.1643524169921875;-0.0316009521484375;-0.9868621826171876;-0.0009563411585986;-0.0021736719645559;-0.0031766186002641
1768416553604852700;9.854852783203125;0.1639556884765625;-0.0316925048828125;-0.987030029296875;-0.0002697782183531;-0.0017124125733971;-0.0010245180455967
1768416553614855000;9.86485498046875;0.1656951904296875;-0.0315704345703125;-0.9878387451171876;-0.0014769891276955;-0.0011358382180333;0.0036450685001909
1768416553624855800;9.874855712890623;0.166229248046875;-0.031219482421875;-0.9883270263671876;-0.001220260397531;-0.0009326389990746;0.0044181840494275
1768416553634857700;9.884857666015623;0.16778564453125;-0.030792236328125;-0.9891357421875;-0.0011624698527157;0.0009981527691707;0.0049713226035237
1768416553644858600;9.894858642578123;0.168426513671875;-0.0329132080078125;-0.9879608154296876;-0.000981907476671;-0.000401604687795;0.0010399643797427
1768416553654860800;9.90486083984375;0.16986083984375;-0.0345458984375;-0.9874114990234376;0.0001962749665835;-0.0020136160310357;-0.0015947008505463
1768416553664861700;9.91486181640625;0.16876220703125;-0.0350799560546875;-0.9864959716796876;0.0003629888524301;-0.0022972426377236;-0.0066597666591405
1768416553674863900;9.92486376953125;0.1674346923828125;-0.034912109375;-0.987457275390625;0.0022868562955409;-0.0026290726382285;-0.00542858755216
1768416553684864800;9.93486474609375;0.1669769287109375;-0.032379150390625;-0.987213134765625;0.0030977888964116;-0.0038330876268446;-0.0038983351550996
1768416553694866700;9.94486669921875;0.1660308837890625;-0.03167724609375;-0.9873504638671876;0.0044996771030128;-0.0062741413712501;-0.001366734271869
1768416553704867600;9.95486767578125;0.16571044921875;-0.032440185546875;-0.987762451171875;0.0033404028508812;-0.0071758874692022;-0.0018503642641007
1768416553714869800;9.964869873046876;0.166259765625;-0.0299224853515625;-0.9874114990234376;0.002494316548109;-0.0068634985946118;0.0007206514128483
1768416553724870700;9.97487060546875;0.1679840087890625;-0.0303497314453125;-0.9877166748046876;0.0006929545197635;-0.0071939970366656;0.0002716424351092
1768416553734872800;9.984872802734374;0.167633056640625;-0.0316009521484375;-0.9880828857421876;0.0028927256353199;-0.0049380334094166;-0.0012125372886657
1768416553744873700;9.994873779296874;0.16741943359375;-0.031524658203125;-0.988189697265625;0.0019907129462808;-0.0066986489109694;-0.0003137203748337
1768416553754875600;10.004875732421874;0.16949462890625;-0.030364990234375;-0.98931884765625;0.0013187973527237;-0.0063348612748086;0.0017904432024806
1768416553764876500;10.01487646484375;0.1681365966796875;-0.028961181640625;-0.988037109375;0.0011020160745829;-0.0051683965139091;0.0020796624012291
1768416553774878700;10.024878662109376;0.17120361328125;-0.0302886962890625;-0.989227294921875;0.0011440940434113;-0.0050136670470237;0.000127831735881
1768416553784879600;10.034879638671876;0.1733856201171875;-0.0305938720703125;-0.9879150390625;-0.0012476909905672;-0.0045678536407649;-0.0036506610922515
1768416553794881800;10.0448818359375;0.1711883544921875;-0.0311126708984375;-0.986724853515625;-0.0004759068833664;-0.0020516992080956;-0.006393717136234
1768416553804882700;10.054882568359377;0.1708221435546875;-0.0314788818359375;-0.9880523681640624;-0.0001379517489112;-0.0022386531345546;-0.0085146585479378
1768416553814884600;10.064884521484377;0.171417236328125;-0.0306396484375;-0.98883056640625;-0.003409378696233;0.00067857344402;-0.0116555904969573
1768416553824885500;10.074885498046877;0.1684417724609375;-0.0302734375;-0.9892425537109376;-0.0022040321491658;0.0006274407496675;-0.0092361085116863
1768416553834887700;10.0848876953125;0.1685333251953125;-0.030120849609375;-0.98828125;-0.0014753912109881;0.0033763556275516;-0.0088070733472704
1768416553844888600;10.094888671875;0.16766357421875;-0.0302581787109375;-0.9876556396484376;-0.0012277172645553;0.0015393070643767;-0.0073199644684791
1768416553854890800;10.104890869140624;0.1679534912109375;-0.0309600830078125;-0.9894561767578124;-0.0010112022282555;0.0042392197065055;-0.0058152787387371
1768416553864891600;10.1148916015625;0.1679840087890625;-0.0315704345703125;-0.98846435546875;-0.0014532869681715;0.0053359093144536;-0.0038946068380028
1768416553874893600;10.1248935546875;0.17034912109375;-0.0313720703125;-0.9874725341796876;-0.0023529028985649;0.005803560372442;-0.0032386700622737
1768416553884894700;10.134894775390626;0.1708221435546875;-0.0320587158203125;-0.9865570068359376;-0.0013685984304174;0.0110558466985821;-0.0027451864443719
1768416553894896600;10.144896728515626;0.1721038818359375;-0.0322265625;-0.988525390625;0.0005382248782552;0.0126132639124989;-0.0064057013951241
1768416553904897800;10.154897705078126;0.1726226806640625;-0.03106689453125;-0.99066162109375;0.0003275688213761;0.0134119456633925;-0.0061782673001289
1768416553914899700;10.164899658203124;0.1688995361328125;-0.0317840576171875;-0.990264892578125;-0.0001206411980092;0.0178085584193468;-0.0047058057971298
1768416553924900900;10.17490087890625;0.1660614013671875;-0.0302734375;-0.990478515625;-0.0001012001230265;0.0171696655452251;0.0005581985460594
1768416553934902800;10.18490283203125;0.1637115478515625;-0.02911376953125;-0.9910125732421876;-0.0009068063227459;0.0183065682649612;0.0067519121803343
1768416553944903700;10.194903564453124;0.16680908203125;-0.02789306640625;-0.9906158447265624;-0.0012881710426881;0.0169307794421911;0.0076224994845688
1768416553954905900;10.20490576171875;0.167022705078125;-0.030029296875;-0.9897003173828124;-0.0040757018141448;0.0152418036013841;0.0086060054600238
1768416553964906800;10.21490673828125;0.1666259765625;-0.031158447265625;-0.9880828857421876;-0.0011480887187644;0.0131197962909936;0.0061846589669585
1768416553974908700;10.22490869140625;0.1665496826171875;-0.033111572265625;-0.984954833984375;-0.002796585438773;0.0115115139633417;0.002142779296264
1768416553984909800;10.234909912109377;0.16754150390625;-0.0335693359375;-0.9820556640625;-0.0019390475936233;0.0084555363282561;-0.002707635750994
1768416553994911700;10.244911865234377;0.1663055419921875;-0.0334320068359375;-0.981903076171875;0.0010447581298649;0.0073244920931756;-0.0027217506431043
1768416554004912600;10.25491259765625;0.16259765625;-0.0331573486328125;-0.9850311279296876;0.0020136160310357;0.006075735669583;-3.08926682919e-05
1768416554014914800;10.264914794921877;0.1637725830078125;-0.0298309326171875;-0.9871368408203124;7.35032444936e-05;0.0063148876652121;0.0027481159195303
1768416554024915700;10.274915771484377;0.168548583984375;-0.02960205078125;-0.9894866943359376;-0.0025214808993041;0.0031641016248613;-0.0010282464791089
1768416554034917600;10.284917724609375;0.1706695556640625;-0.0297393798828125;-0.98876953125;-0.0024008397012948;-0.0008924252470023;-0.0079913474619388
1768416554044918800;10.294918701171875;0.168487548828125;-0.03302001953125;-0.9880218505859376;-0.0039108521305024;-0.0036948695778846;-0.0118324244394898
1768416554054920700;10.304920654296875;0.1631927490234375;-0.03228759765625;-0.987701416015625;-0.0053707971237599;-0.0012314456980675;-0.00631222454831
1768416554064921600;10.314921630859375;0.1623077392578125;-0.0284271240234375;-0.988067626953125;-0.0031531827989965;-0.0007728493656031;0.0004625910660251
1768416554074923800;10.324923828125;0.165008544921875;-0.02618408203125;-0.98956298828125;-0.003140133107081;0.0013038836186751;0.0007637945818714
1768416554084924700;10.334924560546876;0.168670654296875;-0.02947998046875;-0.988250732421875;-0.0039939428679645;0.0023867250420153;-0.0045990129001438
1768416554094926600;10.344926513671876;0.1695404052734375;-0.0323486328125;-0.9843902587890624;-0.0026088326703757;0.0010519486386328;-0.0097644804045557
1768416554104927700;10.354927734375;0.1672821044921875;-0.0330810546875;-0.981475830078125;-0.0013757890556007;-0.0044224453158676;-0.0172442346811294
1768416554114929700;10.3649296875;0.16864013671875;-0.035736083984375;-0.980743408203125;-0.0029116340447217;-0.0053375074639916;-0.0228520520031452
1768416554124930600;10.3749306640625;0.1662750244140625;-0.03619384765625;-0.9845123291015624;-0.0017555557424202;-0.0077367490157485;-0.0166618004441261
1768416554134932700;10.3849326171875;0.163543701171875;-0.0303802490234375;-0.98809814453125;-0.0022096247412264;-0.0062115569598972;-0.0078259650617837
1768416554144933600;10.39493359375;0.164947509765625;-0.0290679931640625;-0.989227294921875;-0.0021941782906651;-0.0069588399492204;-0.000745418772567
1768416554154935600;10.404935546875;0.166259765625;-0.031646728515625;-0.98876953125;-0.0018943065078929;-0.0066935890354216;0.0013385047204792
1768416554164936700;10.414936767578125;0.1686859130859375;-0.032135009765625;-0.98779296875;0.0007060039788484;-0.0073298183269798;-0.003156644757837
1768416554174938600;10.424938720703125;0.1705780029296875;-0.034759521484375;-0.987884521484375;-0.0003118561580777;-0.0067633637227118;-0.0077697723172605
1768416554184939500;10.434939453125;0.171173095703125;-0.0333099365234375;-0.98748779296875;0.0028756812680512;-0.006687197368592;-0.0143432533368468
1768416554194941700;10.444941650390623;0.1717987060546875;-0.03204345703125;-0.9895782470703124;0.0035646411124616;-0.0095602152869105;-0.0168570112437009
1768416554204942600;10.454942626953123;0.1709442138671875;-0.030731201171875;-0.9882965087890624;0.0023049658630043;-0.0080424798652529;-0.0187009833753108
1768416554214944500;10.464944580078123;0.1684417724609375;-0.0297088623046875;-0.9887542724609376;0.0016149408183991;-0.0059798620641231;-0.0189177654683589
1768416554224945700;10.474945556640623;0.168853759765625;-0.0296630859375;-0.989593505859375;0.002994192065671;-0.0056403088383376;-0.0173227973282337
1768416554234947600;10.484947509765624;0.1683197021484375;-0.028839111328125;-0.9891357421875;0.0035950010642409;-0.0031483890488743;-0.0164447538554668
1768416554244948700;10.49494873046875;0.16705322265625;-0.028961181640625;-0.9889068603515624;0.0027332021854817;-0.0024706146214157;-0.0154348826035857
1768416554254950700;10.50495068359375;0.1660003662109375;-0.028839111328125;-0.98931884765625;0.0023076289799064;-0.002429335610941;-0.0123794376850128
1768416554264951800;10.514951904296876;0.1666107177734375;-0.0289459228515625;-0.99090576171875;0.0002617887221276;-0.0015520902816206;-0.0095144091174006
1768416554274953700;10.52495361328125;0.1663818359375;-0.0288543701171875;-0.98809814453125;8.01611458882e-05;-0.0034234935883432;-0.00708081247285
1768416554284954600;10.53495458984375;0.1670684814453125;-0.0284271240234375;-0.9871673583984376;-0.0012253203894942;-0.0035023230593651;-0.0046080676838755
1768416554294956800;10.544956787109374;0.168548583984375;-0.0303802490234375;-0.987518310546875;-0.0016959009226411;-0.0026272083632647;-4.52737367595e-05
1768416554304957700;10.554957763671876;0.169586181640625;-0.0308380126953125;-0.9864654541015624;-0.0026415893808007;-0.001203748746775;-0.0004910869174636
1768416554314959600;10.564959716796874;0.170440673828125;-0.0314178466796875;-0.986724853515625;-0.0020327907986938;0.0027675570454448;-0.0001872202265076
1768416554324960800;10.574960693359374;0.1697998046875;-0.03179931640625;-0.987274169921875;-0.0001150485550169;0.0067186225205659;8.81506348378e-05
1768416554334962700;10.584962646484374;0.1720428466796875;-0.031646728515625;-0.9891815185546876;-0.0003230414295103;0.0097575560212135;0.0018668759148567
1768416554344963600;10.594963623046874;0.171661376953125;-0.0292510986328125;-0.99066162109375;-3.03600354527e-05;0.0116156432777643;0.0015797871164977
1768416554354965800;10.6049658203125;0.171844482421875;-0.0290374755859375;-0.988861083984375;0.0005336974863894;0.0126223182305693;-0.0025728798937052
1768416554364966700;10.614966552734376;0.1716156005859375;-0.030853271484375;-0.9879302978515624;0.0008061388507485;0.0110241556540131;-0.0060538975521922
1768416554374968600;10.624968505859377;0.1692657470703125;-0.0302886962890625;-0.988983154296875;0.0002215749991592;0.0098723378032445;-0.0068704229779541
1768416554384969700;10.6349697265625;0.167877197265625;-0.030120849609375;-0.988677978515625;-0.0040522660128772;0.0095684714615345;-0.0045393579639494
1768416554394971600;10.6449716796875;0.166656494140625;-0.0306854248046875;-0.9899749755859376;-0.0016570187872275;0.0086129289120435;-0.0009270463488064
1768416554404972500;10.65497265625;0.1648101806640625;-0.03106689453125;-0.9860382080078124;-0.001212004572153;0.0092787193134427;0.0026000442449003
1768416554414974700;10.664974609375;0.166412353515625;-0.032684326171875;-0.9864349365234376;-0.0008444883860647;0.0098608862608671;0.0018128136871382
1768416554424975600;10.6749755859375;0.170013427734375;-0.0323638916015625;-0.987640380859375;0.0009835053933784;0.0083159869536757;0.000622114399448
1768416554434977500;10.6849775390625;0.170074462890625;-0.03143310546875;-0.9891510009765624;0.0004157194343861;0.0071521853096783;-0.0020351877901703
1768416554444978700;10.694978759765624;0.1688385009765625;-0.0304718017578125;-0.9866180419921876;4.18116287619e-05;0.0062618907541036;-0.0051329764537513
1768416554454980600;10.704980712890626;0.167877197265625;-0.0291595458984375;-0.9863128662109376;-0.000786431482993;0.004185423720628;-0.0062760054133832
1768416554464981500;10.7149814453125;0.1678466796875;-0.0296478271484375;-0.985809326171875;-0.0011249192757532;0.0042714439332485;-0.0048019457608461
1768416554474983700;10.724983642578126;0.1671142578125;-0.029083251953125;-0.98748779296875;-0.0028176244813948;0.0046639940701425;-0.0044757085852324
1768416554484984600;10.734984619140626;0.168212890625;-0.029571533203125;-0.987945556640625;-0.0019512980943545;0.0025459819007664;-0.0044307010248303
1768416554494986500;10.744986572265624;0.1670074462890625;-0.02764892578125;-0.98785400390625;-0.0034131072461605;0.003008573083207;-0.0044280379079282
1768416554504987600;10.754987548828124;0.1678314208984375;-0.0304107666015625;-0.9874267578125;-0.0038533278275281;0.0028256138321012;-0.0038607846945524
1768416554514989600;10.764989501953124;0.1671295166015625;-0.030181884765625;-0.9874267578125;-0.0030980552546679;0.0021225393284112;-0.0046040727756917
1768416554524990500;10.774990478515624;0.1676788330078125;-0.03021240234375;-0.987640380859375;-0.0031840754672884;0.0035071168094873;-0.0038514635525643
1768416554534992600;10.78499267578125;0.1688690185546875;-0.029815673828125;-0.9871368408203124;-0.0046568033285439;0.00178378529381;-0.002225070958957
1768416554544993500;10.79499365234375;0.168792724609375;-0.0299072265625;-0.9874725341796876;-0.0037611823063343;0.0013102752855047;-0.0051303133368492
1768416554554995500;10.804995361328125;0.1680145263671875;-0.032073974609375;-0.986724853515625;-0.002658367389813;0.0029963224660605;-0.0064091635867953
1768416554564996600;10.81499658203125;0.1669769287109375;-0.032073974609375;-0.9846343994140624;-0.0027686222456395;0.0024296017363667;-0.0068208882585167
1768416554574998500;10.82499853515625;0.1689300537109375;-0.0314483642578125;-0.9854888916015624;-0.0008570052450522;0.004489024169743;-0.0057343184016644
1768416554584999700;10.834999755859377;0.1679840087890625;-0.0322113037109375;-0.9886627197265624;-0.0025531724095344;0.0039907470345497;-0.0072792181745171
1768416554595001600;10.845001708984377;0.169219970703125;-0.0294036865234375;-0.989959716796875;-0.0016362462192773;0.0036985981278121;-0.0089117363095283
1768416554605002800;10.855002685546877;0.170074462890625;-0.0308837890625;-0.989990234375;-0.0039132488891482;0.0057127466425299;-0.0073963971808552
1768416554615004400;10.86500439453125;0.169281005859375;-0.0306854248046875;-0.99078369140625;-0.0025952504947781;0.004880775231868;-0.0076435385271906
1768416554625005800;10.875005859375;0.1682281494140625;-0.0321807861328125;-0.989990234375;-0.0036053874064236;0.0035294874105602;-0.009640110656619
1768416554635007700;10.8850078125;0.1692352294921875;-0.032958984375;-0.9871978759765624;-0.0038184402510523;0.001710015698336;-0.0112278871238231
1768416554645008600;10.895008544921875;0.1673126220703125;-0.0320892333984375;-0.9873809814453124;-0.0026200178544968;-0.0009859022684395;-0.0113639747723937
1768416554655010800;10.9050107421875;0.163787841796875;-0.0319061279296875;-0.9869537353515624;-0.0020546286832541;-0.0029995182994753;-0.009762349538505
1768416554665011700;10.91501171875;0.16326904296875;-0.031768798828125;-0.98504638671875;-0.0012069445801898;-0.006426740437746;-0.0058195395395159
1768416554675013600;10.925013671875;0.1643829345703125;-0.031890869140625;-0.9834442138671876;0.0001150485550169;-0.0080158486962318;-0.0042450786568224
1768416554685014800;10.935014892578126;0.164520263671875;-0.0317230224609375;-0.985504150390625;-0.0030527815688401;-0.0105727491900324;-0.0055849151685833
1768416554695016700;10.9450166015625;0.166015625;-0.031524658203125;-0.9847259521484376;-0.0010245180455967;-0.0115730324760079;-0.0041835596784949
1768416554705017600;10.955017578125;0.1662139892578125;-0.0319366455078125;-0.9846954345703124;-0.0015294534387066;-0.0122673185542225;-0.0072949309833347
1768416554715019800;10.965019775390624;0.1671600341796875;-0.0304412841796875;-0.9862518310546876;0.0005946838646195;-0.0134444357827305;-0.0070408652536571
1768416554725020700;10.975020751953124;0.16778564453125;-0.02996826171875;-0.985198974609375;0.0009938917355611;-0.0151781542226672;-0.0057777278125286
1768416554735022600;10.985022705078125;0.1665496826171875;-0.030670166015625;-0.9853363037109376;-0.0004559331864584;-0.0136500317603349;-0.0025417208671569
1768416554745023700;10.995023681640625;0.1650848388671875;-0.02972412109375;-0.985809326171875;-5.0600060603e-06;-0.0116076534613966;0.0009017463307827
1768416554755025700;11.005025634765625;0.1700897216796875;-0.0298919677734375;-0.9880218505859376;-0.0006761765689589;-0.0106646288186311;-0.0001864212681539
1768416554765026600;11.015026611328125;0.1744384765625;-0.0289306640625;-0.9895782470703124;-0.0021403825376182;-0.0105410581454634;-0.0062536350451409
1768416554775028700;11.02502880859375;0.1778411865234375;-0.0294189453125;-0.992462158203125;-0.0024711471050977;-0.0094124097377061;-0.0118350880220532
1768416554785029600;11.035029541015623;0.175445556640625;-0.031097412109375;-0.9930267333984376;-0.0018785938154906;-0.00586294895038;-0.0090739224106073
1768416554795031600;11.045031494140623;0.169891357421875;-0.027252197265625;-0.9927215576171876;-0.0017832526937127;-0.0001331580569967;-0.0012237224727869
1768416554805032700;11.05503271484375;0.171661376953125;-0.02618408203125;-0.994232177734375;-0.0032178976107388;0.0045276400633156;0.0017510283505544
1768416554815034600;11.06503466796875;0.1761016845703125;-0.029205322265625;-0.990966796875;-0.0043566650710999;0.0076890788041055;-0.0046629286371171
1768416554825035500;11.075035400390624;0.175201416015625;-0.0293121337890625;-0.985076904296875;-0.0065282066352665;0.0106760803610086;-0.0088100032880902
1768416554835037700;11.08503759765625;0.1707305908203125;-0.0330047607421875;-0.98345947265625;-0.0037025928031653;0.0066123628057539;-0.0133461654186248
1768416554845038600;11.09503857421875;0.168487548828125;-0.034881591796875;-0.9788818359375;-0.0036519928835332;0.0047675911337137;-0.0165185220539569
1768416554855040500;11.10504052734375;0.170196533203125;-0.037139892578125;-0.9814300537109376;-0.0009310410823673;0.0040045953355729;-0.0173379778861999
1768416554865041700;11.115041748046876;0.1691741943359375;-0.0351715087890625;-0.98724365234375;2.90284551738e-05;0.0042125880718231;-0.0114467991515994
1768416554875043600;11.125043701171874;0.16845703125;-0.031829833984375;-0.988677978515625;0.0006950850365683;0.0054304515942931;-0.0033848776947706
1768416554885044500;11.13504443359375;0.1690216064453125;-0.0298919677734375;-0.9881591796875;0.0022082931827753;0.0059638828970491;-0.0012903015594929
1768416554895046700;11.145046630859374;0.173583984375;-0.030303955078125;-0.9874420166015624;0.002788595855236;0.0070387348532676;-0.0034772893413901
1768416554905047600;11.155047607421874;0.1733551025390625;-0.0299530029296875;-0.9889068603515624;0.0013680658303201;0.0077620493248105;-0.0087191890925168
1768416554915049500;11.165049560546874;0.1744537353515625;-0.0303497314453125;-0.9893798828125;7.6432719652e-05;0.0067841364070773;-0.0117312241345644
1768416554925050600;11.175050537109374;0.17291259765625;-0.03082275390625;-0.988555908203125;0.0018879148410633;0.0076259616762399;-0.0145887965336442
1768416554935052500;11.185052490234376;0.17218017578125;-0.031036376953125;-0.9871368408203124;0.0033489251509308;0.0094289220869541;-0.0152226286008954
1768416554945053700;11.1950537109375;0.1729888916015625;-0.0309600830078125;-0.98828125;0.0033063145820051;0.0099564939737319;-0.0171712636947631
1768416554955055600;11.2050556640625;0.1699066162109375;-0.030029296875;-0.987548828125;0.0027917916886508;0.0106172244995832;-0.0184943228960037
1768416554965056800;11.215056884765623;0.170440673828125;-0.031005859375;-0.98675537109375;0.0027744811959564;0.0116864833980798;-0.0193041898310184
1768416554975058400;11.225058349609377;0.1684112548828125;-0.028900146484375;-0.988494873046875;9.24116902751e-05;0.0111120399087667;-0.0168841741979122
1768416554985059800;11.235059814453123;0.16705322265625;-0.029144287109375;-0.988922119140625;-0.0008511462947353;0.0093274554237723;-0.0141959805041551
1768416554995061800;11.245061767578123;0.165740966796875;-0.0286407470703125;-0.9893798828125;-0.0007978830835781;0.0085649918764829;-0.0096960365772247
1768416555005062700;11.255062744140623;0.1640777587890625;-0.028564453125;-0.9881134033203124;-0.0023105584550648;0.0063087623566389;-0.0064405887387692
1768416555015064800;11.26506494140625;0.1657562255859375;-0.027496337890625;-0.98773193359375;-0.0028011128306388;0.0032447953708469;-0.0049939597956836
1768416555025065700;11.275065673828124;0.1665496826171875;-0.029144287109375;-0.986297607421875;-0.0043638558126986;0.0010346380295231;-0.0026847326662391
1768416555035067600;11.285067626953126;0.1688690185546875;-0.031494140625;-0.986541748046875;-0.0045691854320466;0.0043228431604802;-0.0021510352380573
1768416555045068800;11.29506884765625;0.1700286865234375;-0.029052734375;-0.9869232177734376;-0.0036530580837279;0.0032426649704575;-0.0016237293602898
1768416555055069700;11.305069580078126;0.1687164306640625;-0.030029296875;-0.9886016845703124;-0.002003229688853;0.0079471385106444;0.0003012035158462
1768416555065071600;11.315071533203126;0.1696929931640625;-0.030364990234375;-0.9896087646484376;-0.001750229508616;0.0121373562142252;0.0057311225682497
1768416555075072500;11.325072509765626;0.166595458984375;-0.0303802490234375;-0.9895172119140624;-0.0003350256592966;0.0130686638876795;0.0090198600664734
1768416555085074700;11.33507470703125;0.166717529296875;-0.0298614501953125;-0.9874114990234376;-5.27305892319e-05;0.0127096697688102;0.0079745696857571
1768416555095075600;11.34507568359375;0.1697998046875;-0.0322113037109375;-0.98504638671875;0.001111869700253;0.009590309113264;0.0018152105621993
1768416555105077500;11.355077392578124;0.1694793701171875;-0.0331573486328125;-0.9852294921875;4.31432090408e-05;0.004048004746437;-0.0002604571636766
1768416555115078700;11.36507861328125;0.1668853759765625;-0.0308837890625;-0.98455810546875;-0.0003621898940764;0.0008676578872837;0.0009869674686342
1768416555125080600;11.37508056640625;0.163970947265625;-0.0322113037109375;-0.98626708984375;-0.0008167914929799;-0.0002202434261562;0.0065223476849496
1768416555135081500;11.38508154296875;0.164154052734375;-0.0317535400390625;-0.9868927001953124;0.0026698189321905;0.0013579458463937;0.0138250021263957
1768416555145083600;11.395083740234377;0.1652679443359375;-0.0323028564453125;-0.9864349365234376;0.0041654501110315;0.0010716560063883;0.0174538251012563
1768416555155084500;11.40508447265625;0.1677703857421875;-0.0319671630859375;-0.9882659912109376;0.0032996565569192;-0.0003336940717417;0.0183084327727556
1768416555165086500;11.41508642578125;0.17010498046875;-0.0323486328125;-0.9882354736328124;0.0026612968649715;-0.001725195790641;0.0170586127787828
1768416555175087600;11.425087646484377;0.1690826416015625;-0.0324554443359375;-0.986480712890625;0.0043460126034915;-0.0015462313313037;0.0123826339840888
1768416555185089500;11.435089599609377;0.1694488525390625;-0.03057861328125;-0.9867706298828124;0.002967826789245;-0.0014141384745016;0.0117522636428475
1768416555195090400;11.44509033203125;0.16937255859375;-0.0273284912109375;-0.9857177734375;0.0036362800747156;-0.0003747067530639;0.0153983971104025
1768416555205092600;11.455092529296875;0.1696319580078125;-0.02978515625;-0.990142822265625;0.0025824673939496;-0.0003635214816313;0.0158143825829029
1768416555215093500;11.465093505859375;0.1697235107421875;-0.0275726318359375;-0.9888458251953124;0.0014684670604765;-0.000462058436824;0.0188248194754123
1768416555225095400;11.475095458984375;0.1680755615234375;-0.02813720703125;-0.987640380859375;0.0003680488734971;0.0003459446306806;0.0196722373366355
1768416555235096600;11.4850966796875;0.1685943603515625;-0.0276641845703125;-0.9859771728515624;0.0015624766238033;0.0005704491049982;0.020935907959938
1768416555245098500;11.495098388671876;0.167572021484375;-0.028289794921875;-0.9849853515625;0.0005954828229732;0.0027957865968346;0.0210384391248226
1768416555255099600;11.505099609375;0.169464111328125;-0.0295257568359375;-0.9873504638671876;0.0019992350134998;0.004832305945456;0.0233274269849061
1768416555265101600;11.5151015625;0.1710968017578125;-0.0289154052734375;-0.9911346435546876;-0.0002327602705918;0.0056869140826165;0.0231324825435876
1768416555275102700;11.525102783203126;0.1712799072265625;-0.0275115966796875;-0.9920654296875;-0.0008418252109549;0.0070941285230219;0.0222139582037925
1768416555285103900;11.535103759765626;0.1714324951171875;-0.0269775390625;-0.99163818359375;-0.0036623789928853;0.0083785708993673;0.0207172632217407
1768416555295104800;11.545104736328126;0.1715240478515625;-0.0270843505859375;-0.9912567138671876;-0.0049572079442441;0.0096273273229599;0.0231130421161651
1768416555305106700;11.555106689453124;0.1712646484375;-0.0286407470703125;-0.990203857421875;-0.0056235310621559;0.0098206726834177;0.0252723339945077
1768416555315107800;11.56510791015625;0.1726226806640625;-0.0281829833984375;-0.98846435546875;-0.0056488309055566;0.0098244007676839;0.0241522081196308
1768416555325109800;11.57510986328125;0.1705474853515625;-0.028472900390625;-0.987823486328125;-0.0062075620517134;0.0135850505903363;0.0255607534199953
1768416555335110700;11.585110595703124;0.1719818115234375;-0.028472900390625;-0.9899749755859376;-0.0062315305694937;0.0165291763842105;0.025800172239542
1768416555345112800;11.59511279296875;0.170379638671875;-0.0270233154296875;-0.9894256591796876;-0.0047356327995657;0.0200797021389007;0.0287461597472429
1768416555355113700;11.60511376953125;0.168212890625;-0.0274810791015625;-0.9905853271484376;-0.0057907775044441;0.0238259714096784;0.0307690985500812
1768416555365115600;11.61511572265625;0.1687469482421875;-0.0303192138671875;-0.9892425537109376;-0.0060152821242809;0.0241000093519687;0.0312679074704647
1768416555375116500;11.625116455078125;0.1707305908203125;-0.0310211181640625;-0.9874267578125;-0.0039209718815982;0.024820128455758;0.0331182703375816
1768416555385118700;11.63511865234375;0.1698455810546875;-0.03082275390625;-0.9878997802734376;-0.0041143177077174;0.0255266651511192;0.0302385967224836
1768416555395119600;11.64511962890625;0.169921875;-0.0295867919921875;-0.988922119140625;-0.0039041941054165;0.0274531953036785;0.031128890812397
1768416555405121800;11.655121826171875;0.1697235107421875;-0.031982421875;-0.9894561767578124;-0.0062823970802128;0.0240528713911771;0.0308481939136981
1768416555415122700;11.665122802734375;0.1696929931640625;-0.0311279296875;-0.9872283935546876;-0.006238454952836;0.024710938334465;0.0275717061012983
1768416555425124600;11.67512451171875;0.16656494140625;-0.031890869140625;-0.9865875244140624;-0.0071324780583381;0.0229596439749002;0.0297150183469057
1768416555435125500;11.68512548828125;0.1659088134765625;-0.032958984375;-0.9855804443359376;-0.0063132895156741;0.0212078168988227;0.0289863776415586
1768416555445127700;11.695127685546876;0.1662139892578125;-0.0314788818359375;-0.986663818359375;-0.0064850635826587;0.0178410485386848;0.028801554813981
1768416555455128600;11.705128662109376;0.1656646728515625;-0.0293731689453125;-0.988067626953125;-0.0072714951820671;0.0178458429872989;0.030117155984044
1768416555465130800;11.715130859375;0.1651458740234375;-0.0283966064453125;-0.9891357421875;-0.0062429821118712;0.016119047999382;0.0315957441926002
1768416555475131600;11.725131591796876;0.1651153564453125;-0.0268096923828125;-0.9880828857421876;-0.0062094265595078;0.0150798829272389;0.0316322296857833
1768416555485133600;11.735133544921876;0.1660919189453125;-0.0291290283203125;-0.9867401123046876;-0.0045923548750579;0.0146678918972611;0.0303911957889795
1768416555495134700;11.745134765625;0.16546630859375;-0.0285797119140625;-0.9842987060546876;-0.0052608083933591;0.0159094575792551;0.029522206634283
1768416555505136600;11.75513671875;0.16326904296875;-0.029449462890625;-0.9842987060546876;-0.0036152412649244;0.0147877344861626;0.0327326469123363
1768416555515137800;11.7651376953125;0.1628265380859375;-0.0290985107421875;-0.9852294921875;-0.0044466801919043;0.0148314107209444;0.0345353409647941
1768416555525138700;11.775138671875;0.1666259765625;-0.028411865234375;-0.98822021484375;-0.0045092641375958;0.011829761788249;0.0338860601186752
1768416555535140900;11.785140869140625;0.1678314208984375;-0.027191162109375;-0.988311767578125;-0.0041595911607146;0.0105639612302184;0.0279911551624536
1768416555545141800;11.795141845703125;0.1705169677734375;-0.0279541015625;-0.9892730712890624;-0.0047955540940165;0.0092430328950285;0.0237535331398248
1768416555555143700;11.805143798828125;0.1675872802734375;-0.03009033203125;-0.990020751953125;-0.0046408246271312;0.0085146585479378;0.0243495479226112
1768416555565144800;11.815144775390625;0.166015625;-0.028594970703125;-0.9886932373046876;-0.0051915659569203;0.0079785641282796;0.0287701282650232
1768416555575146800;11.825146728515625;0.169036865234375;-0.0274810791015625;-0.9901275634765624;-0.0058914450928568;0.009051552042365;0.0251852478832006
1768416555585147600;11.835147705078125;0.1697845458984375;-0.028472900390625;-0.9884185791015624;-0.0056427055969834;0.0102092279121279;0.021116204559803
1768416555595149800;11.84514990234375;0.166168212890625;-0.03033447265625;-0.986358642578125;-0.0066256783902645;0.0094190677627921;0.0209329780191183
1768416555605150700;11.855150634765623;0.1641387939453125;-0.02996826171875;-0.9835052490234376;-0.0051148673519492;0.0048211202956736;0.01729217171669
1768416555615152600;11.865152587890623;0.163238525390625;-0.0330963134765625;-0.9813385009765624;-0.0062946476973593;-0.0006673881434835;0.0122345620766282
1768416555625153800;11.87515380859375;0.166107177734375;-0.0352783203125;-0.9838714599609376;-0.0030818099621683;-0.004187021870166;0.0134399086236953
1768416555635155700;11.88515576171875;0.166717529296875;-0.0327606201171875;-0.988250732421875;-0.0021273330785334;-0.0035268242936581;0.019139340147376
1768416555645156600;11.895156494140624;0.1680145263671875;-0.031097412109375;-0.9881744384765624;-0.0017936390358954;-0.0032421322539448;0.0233764294534921
1768416555655158800;11.90515869140625;0.17431640625;-0.0302276611328125;-0.9914093017578124;-0.0030908647459;-0.0069537800736725;0.0138231376186013
1768416555665159700;11.91515966796875;0.18560791015625;-0.03167724609375;-0.995147705078125;-0.0046991477720439;-0.0140875894576311;-0.0089026810601353
1768416555675161600;11.92516162109375;0.193084716796875;-0.0329132080078125;-0.995361328125;-0.0066075688228011;-0.0171667356044054;-0.0368126109242439
1768416555685162800;11.935162841796876;0.18756103515625;-0.03094482421875;-0.9933319091796876;-0.0079367524012923;-0.0169531498104333;-0.054538607597351
1768416555695164700;11.94516455078125;0.17388916015625;-0.0275726318359375;-0.9890899658203124;-0.0055012917146086;-0.0085032070055603;-0.0581804811954498
1768416555705165600;11.95516552734375;0.1660919189453125;-0.027984619140625;-0.987701416015625;-0.001962483394891;0.0035547874867916;-0.0552741736173629
1768416555715167700;11.965167724609374;0.163848876953125;-0.0279083251953125;-0.98773193359375;-0.0018064221367239;0.010072074830532;-0.0474010705947876
1768416555725168600;11.975168701171874;0.1636962890625;-0.0281524658203125;-0.9904022216796876;-0.0018788601737469;0.0137485694140195;-0.0373843908309936
1768416555735170600;11.985170654296876;0.1620941162109375;-0.0271148681640625;-0.9907073974609376;-0.0041161817498505;0.0155190387740731;-0.0304846726357936
1768416555745171700;11.995171630859376;0.16253662109375;-0.0272369384765625;-0.989471435546875;-0.004195543937385;0.0138223385438323;-0.0272087175399065
1768416555755173600;12.005173583984377;0.1628570556640625;-0.0267791748046875;-0.9889068603515624;-0.0046842340379953;0.0114071173593401;-0.0221748109906911
1768416555765174500;12.015174560546876;0.1611175537109375;-0.0262298583984375;-0.986053466796875;-0.0047825048677623;0.0093751261010766;-0.0201321654021739
1768416555775176700;12.0251767578125;0.1604156494140625;-0.027587890625;-0.9856414794921876;-0.0071569788269698;0.0072816149331629;-0.0165819060057401
1768416555785177600;12.035177490234377;0.1607666015625;-0.0288543701171875;-0.98406982421875;-0.008608934469521;0.005397162400186;-0.01103001460433
1768416555795179500;12.045179443359377;0.1593780517578125;-0.0296173095703125;-0.9823150634765624;-0.0106414593756198;0.0057516288943588;-0.007252852898091
1768416555805180700;12.0551806640625;0.15936279296875;-0.0289306640625;-0.98309326171875;-0.0088459560647606;0.0055758603848516;-0.0014668691437691
1768416555815182600;12.0651826171875;0.16094970703125;-0.0284576416015625;-0.9843597412109376;-0.0083609940484166;0.0078994687646627;0.0055979643948376
1768416555825183700;12.075183837890624;0.1640777587890625;-0.030670166015625;-0.9857330322265624;-0.0098190745338797;0.0096595510840415;0.0080696446821093
1768416555835185700;12.085185546875;0.166046142578125;-0.030181884765625;-0.986602783203125;-0.0078323567286133;0.0118036624044179;0.0107101686298847
1768416555845186800;12.095186767578124;0.1660614013671875;-0.02886962890625;-0.9891510009765624;-0.0073287528939545;0.012518455274403;0.0127522805705666
1768416555855188700;12.105188720703126;0.1688232421875;-0.0290679931640625;-0.9880218505859376;-0.0054791877046227;0.0156394131481647;0.0123924873769283
1768416555865190000;12.11518994140625;0.167388916015625;-0.0300750732421875;-0.98602294921875;-0.0072416677139699;0.0174322538077831;0.0091839106753468
1768416555875191800;12.12519189453125;0.166748046875;-0.0338134765625;-0.9865264892578124;-0.0047880974598228;0.0156386140733957;0.0080012008547782
1768416555885192700;12.135192626953126;0.167327880859375;-0.0330810546875;-0.985931396484375;-0.0029028456192463;0.0146841378882527;0.0077367490157485
1768416555895195000;12.14519482421875;0.16448974609375;-0.03399658203125;-0.98675537109375;-0.0027185548096895;0.0155808236449956;0.0120236398652195
1768416555905195800;12.15519580078125;0.162567138671875;-0.034271240234375;-0.9884185791015624;0.0020913803018629;0.0179728753864765;0.0177856553345918
1768416555915197700;12.16519775390625;0.162567138671875;-0.0319366455078125;-0.9887542724609376;0.000517185893841;0.0181702151894569;0.022439794614911
1768416555925198800;12.17519873046875;0.16375732421875;-0.0307159423828125;-0.9916534423828124;0.0004386226355563;0.0163803044706583;0.0259820651262998
1768416555935200800;12.18520068359375;0.1636505126953125;-0.0295257568359375;-0.992218017578125;0.0012365056900307;0.0143970483914017;0.0277690459042787
1768416555945201700;12.19520166015625;0.163909912109375;-0.0294342041015625;-0.9910430908203124;-0.0015126754296943;0.0109911318868398;0.0282319039106369
1768416555955203800;12.205203857421877;0.1649627685546875;-0.0299072265625;-0.9893035888671876;-0.0013630058383569;0.0089050782844424;0.0260292030870914
1768416555965204700;12.215204833984377;0.1652069091796875;-0.031158447265625;-0.98797607421875;-0.0009211873984895;0.0064861290156841;0.0232632439583539
1768416555975206700;12.22520654296875;0.1649932861328125;-0.032073974609375;-0.988067626953125;-0.0008705873624421;0.0037931404076516;0.0201635919511318
1768416555985207800;12.235207763671877;0.1667938232421875;-0.0290069580078125;-0.9878387451171876;-0.002436526119709;0.0038298920262604;0.0171235930174589
1768416555995209700;12.245209716796875;0.162567138671875;-0.03204345703125;-0.9941864013671876;-0.0095937717705965;0.0053090117871761;0.0177947096526622
1768416556005210600;12.255210693359375;0.1688232421875;-0.0236053466796875;-0.9821929931640624;-8.65527326823e-05;0.0086297066882252;0.0129296472296118
1768416556015212800;12.265212890625;0.168487548828125;-0.0281982421875;-0.983734130859375;-0.0031318773981183;0.0063812001608312;0.0094955004751682
1768416556025213700;12.275213623046875;0.1658782958984375;-0.0312652587890625;-0.9878387451171876;-0.004953745752573;0.0037585191894322;0.0029257487040013
1768416556035215600;12.285215576171876;0.169281005859375;-0.0278472900390625;-0.9873046875;-0.005379319190979;0.0022716764360666;-0.0007632619817741
1768416556045216800;12.295216796875;0.16925048828125;-0.0278472900390625;-0.98773193359375;-0.0067540425807237;0.0062059643678367;-0.0019310581265017
1768416556055218700;12.30521875;0.167144775390625;-0.027313232421875;-0.986968994140625;-0.0062696137465536;0.0062437811866402;-0.0034051176626235
1768416556065219600;12.315219482421876;0.16668701171875;-0.0290374755859375;-0.987274169921875;-0.0075434036552906;0.0084520746022462;-0.0042333607561886
1768416556075221800;12.3252216796875;0.1646728515625;-0.0281524658203125;-0.9871368408203124;-0.0081303641200065;0.0096835196018219;-0.0031015174463391
1768416556085222700;12.33522265625;0.1650390625;-0.02899169921875;-0.9872589111328124;-0.0058104847557842;0.0105439871549606;-0.0028719529509544
1768416556095224600;12.345224609375;0.1676788330078125;-0.0300750732421875;-0.987030029296875;-0.0065148910507559;0.0137890493497252;-0.0034940673504024
1768416556105225700;12.355225830078124;0.1685333251953125;-0.03125;-0.98944091796875;-0.0058632153086364;0.0132545530796051;-0.0043481430038809
1768416556115227600;12.3652275390625;0.1692352294921875;-0.032135009765625;-0.9886474609375;-0.008396147750318;0.0162716470658779;-0.0052387039177119
1768416556125228500;12.375228515625;0.1683349609375;-0.0322418212890625;-0.9882965087890624;-0.0061694788746535;0.0169829782098531;-0.0051273838616907
1768416556135230700;12.385230712890625;0.16815185546875;-0.03131103515625;-0.989715576171875;-0.0061897188425064;0.0176160112023353;-0.0060981060378253
1768416556145231600;12.395231689453125;0.17083740234375;-0.032257080078125;-0.9891357421875;-0.0040852888487279;0.018447982147336;-0.0112790195271372
1768416556155233500;12.405233642578125;0.1701507568359375;-0.03118896484375;-0.9893035888671876;-0.0046714507043361;0.0180652868002653;-0.0142290033400058
1768416556165234700;12.415234619140625;0.1680145263671875;-0.033050537109375;-0.9896087646484376;-0.002453037770465;0.019519105553627;-0.0134992972016334
