timestamp;seconds_elapsed;acc_z;acc_y;acc_x;gyro_z;gyro_y;gyro_x
1768421546231607600;0.960607666015625;0.12261962890625;-2.7568359375;0.1861572265625;-1.032086730003357;0.1977034956216812;-0.2647919654846191
1768421546241607700;0.970607666015625;0.5732269287109375;-1.9283294677734375;0.64471435546875;-0.0627310276031494;0.891674280166626;-0.2404501587152481
1768421546251607600;0.980607666015625;0.9401092529296876;-1.4638214111328125;0.5004119873046875;0.5667654275894165;1.1868470907211304;-0.4358873069286346
1768421546261607700;0.990607666015625;0.9936676025390624;-1.1746826171875;0.2971038818359375;0.8178298473358154;0.9174390435218812;-0.6802757382392883
1768421546271607600;1.000607666015625;0.6826019287109375;-1.0324249267578125;0.1555328369140625;0.7683006525039673;0.4407670199871063;-0.6760799288749695
1768421546281607700;1.010607666015625;0.2275848388671875;-1.0036163330078125;-0.0379486083984375;0.4905537366867065;0.1190108060836792;-0.3073314428329468
1768421546291608600;1.020608642578125;0.0239715576171875;-1.0286407470703125;-0.1727752685546875;0.2684021592140198;-0.1043969765305519;0.1478509753942489
1768421546301608400;1.0306083984375;0.1917724609375;-1.0421600341796875;-0.2030792236328125;0.2378815412521362;-0.3789800703525543;0.381320983171463
1768421546311608800;1.04060888671875;0.3427734375;-1.105316162109375;-0.286865234375;0.222246915102005;-0.5427884459495544;0.3942950963973999
1768421546321608700;1.050608642578125;0.2601776123046875;-1.27679443359375;-0.4041900634765625;0.1796872019767761;-0.4221384525299072;0.2897069156169891
1768421546331608800;1.06060888671875;0.106964111328125;-1.4430999755859375;-0.494384765625;0.1852074116468429;-0.1249038502573967;0.1298562735319137
1768421546341608700;1.070608642578125;0.027313232421875;-1.4954833984375;-0.59210205078125;0.1788056939840316;0.1507421135902404;-0.0082672508433461
1768421546351608800;1.08060888671875;-0.0169830322265625;-1.4122314453125;-0.669158935546875;0.0775800123810768;0.3999212980270386;-0.0695108994841575
1768421546361608700;1.090608642578125;-0.0387420654296875;-1.23797607421875;-0.63287353515625;-0.0360195189714431;0.575472354888916;-0.0604795888066291
1768421546371608800;1.10060888671875;-0.0406341552734375;-1.0721435546875;-0.4711761474609375;-0.0780647099018096;0.719449520111084;-0.011339739896357
1768421546381609700;1.110609619140625;0.002227783203125;-0.9555206298828124;-0.314239501953125;-0.1040614172816276;0.7357634902000427;0.0145509792491793
1768421546391609600;1.120609619140625;0.06915283203125;-0.8712158203125;-0.213653564453125;-0.1412511318922042;0.6203732490539551;0.0294835902750492
1768421546401609700;1.130609619140625;0.100067138671875;-0.80853271484375;-0.122344970703125;-0.1929039359092712;0.4532575011253357;0.054286140948534
1768421546411609600;1.140609619140625;0.122314453125;-0.7497406005859375;-0.0402984619140625;-0.1992494612932205;0.301258385181427;0.0599733218550682
1768421546421609700;1.150609619140625;0.120819091796875;-0.7012176513671875;0.020477294921875;-0.1663226634263992;0.234084665775299;0.0206722542643547
1768421546431609000;1.160609130859375;0.0637664794921875;-0.683502197265625;0.0276336669921875;-0.0883905813097953;0.2855968475341797;-0.0605493634939193
1768421546441609200;1.170609130859375;-0.033905029296875;-0.691070556640625;-0.01708984375;-0.00108071079012;0.3902468383312225;-0.1280461102724075
1768421546451609000;1.180609130859375;-0.1170196533203125;-0.7362060546875;-0.101715087890625;0.0495209470391273;0.4757350981235504;-0.1123515740036964
1768421546461609200;1.190609130859375;-0.1319732666015625;-0.7902374267578125;-0.18646240234375;0.0553916208446025;0.5037044286727905;-0.0640314444899559
1768421546471610000;1.200610107421875;-0.0752105712890625;-0.8176727294921875;-0.2357635498046875;0.015721172094345;0.5068110227584839;-0.0742249637842178
1768421546481610000;1.21060986328125;-0.0042724609375;-0.8325347900390625;-0.2585296630859375;-0.0627304911613464;0.5004345774650574;-0.1671687513589859
1768421546491610000;1.220610107421875;0.0280914306640625;-0.8456573486328125;-0.2720947265625;-0.1619204580783844;0.4793961644172668;-0.2838471531867981
1768421546501610000;1.23060986328125;0.029052734375;-0.8468475341796875;-0.276641845703125;-0.2547534704208374;0.4414221346378326;-0.362113744020462
1768421546511610000;1.240610107421875;0.020263671875;-0.821929931640625;-0.2600555419921875;-0.3232952356338501;0.4413017630577087;-0.3978914320468902
1768421546521610000;1.25060986328125;0.0054473876953125;-0.779327392578125;-0.2336273193359375;-0.3717996478080749;0.486377090215683;-0.3841633796691894
1768421546531610000;1.260610107421875;0.0166168212890625;-0.7253570556640625;-0.215728759765625;-0.3769006729125976;0.5539937019348145;-0.3569642603397369
1768421546541610000;1.27060986328125;0.0526580810546875;-0.6669158935546875;-0.196014404296875;-0.3399386703968048;0.6097080707550049;-0.3253213763236999
1768421546551610000;1.280610107421875;0.087249755859375;-0.6156768798828125;-0.1883544921875;-0.2995465099811554;0.6030299663543701;-0.2812196910381317
1768421546561611300;1.290611328125;0.1031646728515625;-0.571990966796875;-0.1725921630859375;-0.2788065969944;0.5581942796707153;-0.2245332449674606
1768421546571611100;1.300611083984375;0.097442626953125;-0.5488128662109375;-0.1514739990234375;-0.2711367011070251;0.5009778738021851;-0.1569379568099975
1768421546581611300;1.310611328125;0.0830078125;-0.5415191650390625;-0.1290130615234375;-0.243502676486969;0.4377504289150238;-0.091977059841156
1768421546591611100;1.320611083984375;0.058746337890625;-0.5680694580078125;-0.1101226806640625;-0.1937644034624099;0.3814171254634857;-0.0467201024293899
1768421546601611300;1.330611328125;0.03582763671875;-0.6156768798828125;-0.0881195068359375;-0.1508899182081222;0.3315227925777435;-0.0443259179592132
1768421546611611100;1.340611083984375;0.03717041015625;-0.6430206298828125;-0.0611419677734375;-0.1238002404570579;0.2715015411376953;-0.086387351155281
1768421546621611000;1.350611083984375;0.0355377197265625;-0.6409759521484375;-0.037689208984375;-0.1186640635132789;0.207712709903717;-0.1547871828079223
1768421546631611100;1.360611083984375;0.0261688232421875;-0.616607666015625;-0.02362060546875;-0.1362268179655075;0.1067291125655174;-0.2314185798168182
1768421546641612000;1.370612060546875;0.0239105224609375;-0.57147216796875;-0.0117340087890625;-0.1543693393468856;-0.0458620302379131;-0.2940593063831329
1768421546651612200;1.380612060546875;0.05316162109375;-0.4991607666015625;0.019256591796875;-0.0960042923688888;-0.2104310095310211;-0.333051472902298
1768421546661612000;1.390612060546875;0.1973419189453125;-0.444183349609375;0.0589599609375;0.0754710584878921;-0.1990987211465835;-0.2909325063228607
1768421546671612000;1.40061181640625;0.3788299560546875;-0.4700164794921875;0.0611572265625;0.281158447265625;-0.1076111495494842;0.0337198786437511
1768421546681612000;1.410612060546875;0.611846923828125;-0.6224212646484375;0.0716705322265625;0.3943172097206116;-0.3832648396492004;0.5624921321868896
1768421546691612000;1.42061181640625;0.8773345947265625;-0.9126129150390624;0.1152801513671875;0.3593283295631408;-0.6317579746246338;0.778476893901825
1768421546701612000;1.430612060546875;0.7969970703125;-1.3064117431640625;0.1274566650390625;0.3407964706420898;-0.3467092216014862;0.4957977533340454
1768421546711612000;1.44061181640625;0.5435638427734375;-1.71466064453125;0.1019287109375;0.4346321523189544;-0.1627748012542724;-0.2026495188474655
1768421546721613000;1.450613037109375;0.1707763671875;-2.035797119140625;-0.0132598876953125;0.4481783211231231;-0.022971361875534;-0.6861051321029663
1768421546731613200;1.46061328125;-0.2646636962890625;-2.0841827392578125;-0.2338104248046875;0.2174620181322097;0.1558183580636978;-0.5396986603736877
1768421546741613000;1.470613037109375;-0.3114013671875;-1.7562408447265625;-0.4794769287109375;-0.0796745866537094;0.1659096032381057;-0.1729819029569625
1768421546751613200;1.48061328125;-0.0365142822265625;-1.352203369140625;-0.5634918212890625;-0.308054506778717;0.0938013270497322;-0.0221814680844545
1768421546761613000;1.490613037109375;0.0764617919921875;-1.152008056640625;-0.574493408203125;-0.5054171085357666;0.0349683687090873;0.0660906061530113
1768421546771613200;1.50061328125;0.0571136474609375;-1.11248779296875;-0.465545654296875;-0.5221324563026428;0.091500885784626;0.3327665030956268
1768421546781613000;1.510613037109375;0.1327667236328125;-1.139739990234375;-0.2519989013671875;-0.377472460269928;0.2469844818115234;0.6765374541282654
1768421546791613200;1.52061328125;0.3390350341796875;-1.24334716796875;-0.0866241455078125;-0.1560471206903457;0.4395254254341125;0.8678035736083984
1768421546801614000;1.530614013671875;0.5112762451171875;-1.3857269287109375;0.0218505859375;0.0612724125385284;0.5725255608558655;0.806354284286499
1768421546811614000;1.540614013671875;0.5348052978515625;-1.54339599609375;0.0686187744140625;0.1933127343654632;0.5808737874031067;0.5828354358673096
1768421546821614000;1.550614013671875;0.4072113037109375;-1.66778564453125;0.04473876953125;0.2029754817485809;0.5800705552101135;0.3385120034217834
1768421546831614000;1.560614013671875;0.1939544677734375;-1.70599365234375;0.0051116943359375;0.0993737280368805;0.6902008056640625;0.1897656768560409
1768421546841614000;1.570614013671875;0.05859375;-1.63360595703125;-0.03497314453125;-0.0179776679724454;0.7111856937408447;0.1748311966657638
1768421546851614000;1.580614013671875;0.0497589111328125;-1.4714508056640625;-0.0755615234375;-0.1242814734578132;0.5181052088737488;0.2333794683218002
1768421546861614000;1.590614013671875;0.0836944580078125;-1.2759857177734375;-0.1042022705078125;-0.2024809420108795;0.3036411106586456;0.2852285504341125
1768421546871614000;1.600614013671875;0.088165283203125;-1.097808837890625;-0.10479736328125;-0.2440637946128845;0.1367759555578231;0.326659083366394
1768421546881615000;1.610614990234375;0.0669708251953125;-0.9577789306640624;-0.070953369140625;-0.241615816950798;0.0941707044839859;0.3836936056613922
1768421546891615200;1.620615234375;0.0310516357421875;-0.8504180908203125;-0.03558349609375;-0.206067681312561;0.1327154338359832;0.4392644464969635
1768421546901615000;1.630614990234375;0.019866943359375;-0.7786407470703125;-0.003814697265625;-0.1538244485855102;0.2074591815471649;0.4664673209190368
1768421546911615200;1.640615234375;0.01129150390625;-0.73895263671875;0.0255126953125;-0.0929461866617202;0.2457607686519622;0.4748139083385467
1768421546921615000;1.650614990234375;0.0147705078125;-0.71722412109375;0.0466461181640625;-0.0680216625332832;0.2391550540924072;0.4500105679035187
1768421546931615200;1.660615234375;0.0092010498046875;-0.6957855224609375;0.0623016357421875;-0.0656312108039856;0.2305940687656402;0.3837098479270935
1768421546941615000;1.670614990234375;-0.017425537109375;-0.654052734375;0.091094970703125;-0.0598390996456146;0.2023440450429916;0.3035348355770111
1768421546951616000;1.680615966796875;-0.0465545654296875;-0.587310791015625;0.1143798828125;-0.0475142560899257;0.1483473926782608;0.2486287206411361
1768421546961616100;1.6906162109375;-0.063232421875;-0.5172119140625;0.130401611328125;-0.0309464633464813;0.0960194766521453;0.1922786384820938
1768421546971616000;1.700615966796875;-0.0701141357421875;-0.4534912109375;0.1365966796875;0.0016090818680822;0.0940774977207183;0.1157758682966232
1768421546981616000;1.7106162109375;-0.0706329345703125;-0.405670166015625;0.118194580078125;0.0686530992388725;0.1512441188097;0.0404651351273059
1768421546991616000;1.720615966796875;-0.045135498046875;-0.371551513671875;0.0840911865234375;0.1784339249134063;0.2330548167228698;-0.0458015762269496
1768421547001616100;1.7306162109375;-0.0196685791015625;-0.361419677734375;0.0338897705078125;0.2919817864894867;0.3043809235095978;-0.1375650465488433
1768421547011616000;1.740615966796875;-0.029632568359375;-0.3672027587890625;-0.022308349609375;0.3756897449493408;0.3814075291156769;-0.181596964597702
1768421547021615900;1.750615966796875;-0.041259765625;-0.3576507568359375;-0.0602874755859375;0.4159721732139587;0.4155474007129669;-0.1489894837141037
1768421547031617300;1.7606171875;-0.0305633544921875;-0.3355865478515625;-0.0691680908203125;0.376761645078659;0.3909131586551666;-0.0515374913811683
1768421547041617200;1.7706171875;-0.0011138916015625;-0.2889862060546875;-0.0441436767578125;0.3176706433296203;0.3185758590698242;0.0644905790686607
1768421547051617000;1.780616943359375;0.0409088134765625;-0.235870361328125;-0.014373779296875;0.2393052577972412;0.2248158007860183;0.1290463954210281
1768421547061617200;1.7906171875;0.10198974609375;-0.203399658203125;-0.0246124267578125;0.1583182662725448;0.2555550634860992;0.0905954167246818
1768421547071617000;1.800616943359375;0.24676513671875;-0.1881561279296875;-0.0882568359375;0.1339916288852691;0.4655343890190124;0.0329571515321731
1768421547081617200;1.8106171875;0.6380157470703125;-0.2178497314453125;-0.207672119140625;0.2014881074428558;0.8166780471801758;0.0841092839837074
1768421547091617000;1.820616943359375;1.1434478759765625;-0.261260986328125;-0.3632354736328125;0.4469804167747497;1.2551909685134888;0.4822731614112854
1768421547101618200;1.8306181640625;1.6511077880859375;-0.5027313232421875;-0.5179290771484375;0.7252618670463562;-0.2837994992733001;1.24903404712677
1768421547111618000;1.8406181640625;1.4866485595703125;-1.20458984375;-0.7720489501953125;0.4126131236553192;-2.7019388675689697;1.0948222875595093
1768421547121618000;1.850617919921875;-0.09478759765625;-2.2899017333984375;-0.950225830078125;-0.6954533457756042;-1.7583600282669067;-0.0756859704852104
1768421547131618000;1.8606181640625;-0.9593048095703124;-3.1254730224609375;-0.9412689208984376;-1.4228345155715942;-0.1896279901266098;-0.2600414454936981
1768421547141618000;1.870617919921875;-0.32708740234375;-3.1858978271484375;-0.65997314453125;-1.2751736640930176;0.3040482997894287;-0.0595171228051185
1768421547151618000;1.8806181640625;0.3285369873046875;-2.290618896484375;-0.139862060546875;-0.0793267786502838;1.1098891496658323;0.0264345370233058
1768421547161618000;1.890617919921875;0.99072265625;-1.5308380126953125;-0.1441650390625;0.9021537899971008;1.659988284111023;-0.236195221543312
1768421547171618800;1.900618896484375;1.1419219970703125;-1.1736602783203125;-0.4419097900390625;1.2663259506225586;1.4295305013656616;-0.5757149457931519
1768421547181619200;1.910619140625;0.6989898681640625;-0.9999237060546876;-0.4930419921875;1.1096553802490234;0.6438698172569275;-0.4909822344779968
1768421547191619000;1.920619140625;0.06488037109375;-1.01641845703125;-0.3986358642578125;0.5380770564079285;-0.0817246884107589;0.3001952469348907
1768421547201619200;1.930619140625;-0.0494537353515625;-1.133026123046875;-0.1787567138671875;0.0345659665763378;-0.4929167628288269;1.0154374837875366
1768421547211619000;1.940619140625;0.40289306640625;-1.26776123046875;0.045806884765625;-0.0841692090034484;-0.8975896835327148;1.2298126220703125
1768421547221619200;1.950619140625;0.6878814697265625;-1.3859710693359375;0.1450042724609375;0.0760156735777854;-1.1468719244003296;1.0450901985168457
1768421547231619000;1.960619140625;0.646087646484375;-1.44171142578125;0.046905517578125;0.258295476436615;-1.0698975324630735;0.7301878929138184
1768421547241620000;1.970619873046875;0.4484405517578125;-1.4475860595703125;-0.204315185546875;0.3638938069343567;-0.797162652015686;0.5383210182189941
1768421547251620000;1.9806201171875;0.286468505859375;-1.3968963623046875;-0.50628662109375;0.358901709318161;-0.5546935796737671;0.4844034314155578
1768421547261620000;1.990619873046875;0.2140655517578125;-1.294921875;-0.7292633056640625;0.2985302209854126;-0.4007580578327179;0.456816017627716
1768421547271620000;2.0006201171875;0.1864166259765625;-1.150726318359375;-0.78118896484375;0.2484707981348037;-0.281459093093872;0.4091787338256836
1768421547281620000;2.010619873046875;0.1532135009765625;-0.9819183349609376;-0.692901611328125;0.196036085486412;-0.1300392299890518;0.3549716770648956
1768421547291620000;2.0206201171875;0.116668701171875;-0.848907470703125;-0.541259765625;0.1224020794034004;-0.0276374872773885;0.3428061008453369
1768421547301620000;2.030619873046875;0.105712890625;-0.7744293212890625;-0.389923095703125;0.0477044060826301;0.0273906122893095;0.3369668424129486
1768421547311620900;2.040620849609375;0.130096435546875;-0.7398529052734375;-0.254150390625;-0.0165560729801654;0.0784271657466888;0.2653136849403381
1768421547321621000;2.05062109375;0.1589508056640625;-0.71099853515625;-0.1564178466796875;-0.0331891104578971;0.1586647480726242;0.1492139846086502
1768421547331621000;2.06062109375;0.1797027587890625;-0.6713714599609375;-0.115142822265625;0.0216168779879808;0.2032332718372345;0.0582571811974048
1768421547341621200;2.070621337890625;0.173248291015625;-0.6298675537109375;-0.1216888427734375;0.1296813040971756;0.2706882059574127;-0.0043428167700767
1768421547351621000;2.08062109375;0.119964599609375;-0.602081298828125;-0.1713409423828125;0.222678080201149;0.4155285060405731;-0.0149544486775994
1768421547361621200;2.090621337890625;0.0862274169921875;-0.5879669189453125;-0.2336273193359375;0.2465866059064865;0.5390962362289429;0.0062914518639445
1768421547371621000;2.10062109375;0.0959930419921875;-0.57867431640625;-0.2630615234375;0.2322718501091003;0.5922811627388;0.0035902075469493
1768421547381622000;2.1106220703125;0.098876953125;-0.5816802978515625;-0.2700347900390625;0.2062479704618454;0.5921474695205688;-0.0122843626886606
1768421547391622100;2.1206220703125;0.0995941162109375;-0.598785400390625;-0.257171630859375;0.2086307108402252;0.5695375204086304;-0.0121458787471055
1768421547401622000;2.1306220703125;0.1141204833984375;-0.6255035400390625;-0.2451324462890625;0.2285048067569732;0.5586709976196289;0.0136502981185913
1768421547411622100;2.1406220703125;0.1429901123046875;-0.65753173828125;-0.2400970458984375;0.2448981702327728;0.5398280620574951;0.0415021702647209
1768421547421622000;2.1506220703125;0.177703857421875;-0.6953125;-0.24383544921875;0.2321139276027679;0.4996431171894073;0.0428766272962093
1768421547431622000;2.160621826171875;0.18975830078125;-0.73626708984375;-0.2513275146484375;0.1932802498340606;0.4444719851016998;0.0159270353615283
1768421547441621800;2.170621826171875;0.1829071044921875;-0.782318115234375;-0.25909423828125;0.1343154609203338;0.3867591619491577;-0.0196264311671257
1768421547451622700;2.18062255859375;0.1674041748046875;-0.824310302734375;-0.2755584716796875;0.0699457973241806;0.3363926708698272;-0.0398882925510406
1768421547461622800;2.190622802734375;0.1478271484375;-0.8468780517578125;-0.2981414794921875;0.0242462176829576;0.3115725219249725;-0.0382539108395576
1768421547471622700;2.20062255859375;0.1337432861328125;-0.845977783203125;-0.3332977294921875;-0.0121314972639083;0.3222555518150329;-0.0436089970171451
1768421547481622800;2.210622802734375;0.126068115234375;-0.8389129638671875;-0.375732421875;-0.060660682618618;0.3391042947769165;-0.0746603906154632
1768421547491623000;2.220622802734375;0.1191864013671875;-0.8358612060546875;-0.404266357421875;-0.1321519166231155;0.3453081250190735;-0.1225168630480766
1768421547501623000;2.230623046875;0.0955810546875;-0.8459320068359375;-0.4022216796875;-0.2206546068191528;0.3403253555297851;-0.1620530784130096
1768421547511623000;2.240622802734375;0.049224853515625;-0.864532470703125;-0.3763427734375;-0.3085357248783111;0.3221266567707062;-0.1782450973987579
1768421547521623800;2.250623779296875;0.0025787353515625;-0.886505126953125;-0.336090087890625;-0.3974323272705078;0.2828119993209839;-0.185966670513153
1768421547531624000;2.2606240234375;-0.049224853515625;-0.8911590576171875;-0.2927703857421875;-0.4712247848510742;0.268866091966629;-0.2185840010643005
1768421547541623800;2.270623779296875;-0.10614013671875;-0.853271484375;-0.257232666015625;-0.5218583941459656;0.2620113790035248;-0.2767495810985565
1768421547551624000;2.2806240234375;-0.1621856689453125;-0.7748260498046875;-0.23297119140625;-0.5599240064620972;0.2425228953361511;-0.3365346193313598
1768421547561623800;2.290623779296875;-0.199737548828125;-0.676361083984375;-0.191619873046875;-0.5759000778198242;0.2225587666034698;-0.3815692067146301
1768421547571623700;2.300623779296875;-0.1791839599609375;-0.56719970703125;-0.130096435546875;-0.5619655847549438;0.2575263381004333;-0.407320111989975
1768421547581624800;2.310624755859375;-0.065673828125;-0.447235107421875;-0.0771484375;-0.4650808572769165;0.3067713975906372;-0.3969579935073852
1768421547591624700;2.320624755859375;0.22900390625;-0.3480377197265625;-0.04974365234375;-0.251460462808609;0.2398480176925659;-0.3069378435611725
1768421547601624800;2.330624755859375;0.5413818359375;-0.3740081787109375;-0.039459228515625;0.0362810418009758;0.274738609790802;-0.0934697613120079
1768421547611624700;2.340624755859375;0.7131195068359375;-0.5836944580078125;-0.09014892578125;0.2249913066625595;0.2216383814811706;0.1694966256618499
1768421547621624800;2.350624755859375;0.783416748046875;-0.9820709228515624;-0.132659912109375;0.3059569895267486;0.2529132068157196;0.2366421073675155
1768421547631624700;2.360624755859375;0.631195068359375;-1.467315673828125;-0.0607147216796875;0.3391309380531311;0.4677647948265075;-0.2293407768011093
1768421547641624600;2.37062451171875;0.3676605224609375;-1.8213043212890625;-0.0092315673828125;0.2259194105863571;0.4995333850383758;-0.8865143656730652
1768421547651626000;2.3806259765625;0.00091552734375;-1.8510589599609375;-0.0587005615234375;-0.0875628739595413;0.4687158167362213;-1.0939000844955444
1768421547661625900;2.3906259765625;-0.224945068359375;-1.5022735595703125;-0.0731048583984375;-0.4181818068027496;0.2437599301338195;-0.7125492691993713
1768421547671625700;2.400625732421875;-0.227447509765625;-1.0864410400390625;-0.0055389404296875;-0.6834073662757874;0.0709761753678321;-0.0815726220607757
1768421547681625900;2.4106259765625;-0.0781097412109375;-0.8272857666015625;0.034637451171875;-0.7796036601066589;-0.0715029463171958;0.5113610029220581
1768421547691625700;2.420625732421875;0.1846160888671875;-0.7938079833984375;0.039703369140625;-0.6474288105964661;-0.354267805814743;0.817642092704773
1768421547701625900;2.4306259765625;0.3056793212890625;-0.9891204833984376;0.078216552734375;-0.4117188453674316;-0.4744429290294647;0.8325608968734741
1768421547711625700;2.440625732421875;0.3536529541015625;-1.327392578125;0.1100311279296875;-0.23860564827919;-0.3419866263866424;0.6468471884727478
1768421547721627000;2.450626953125;0.40087890625;-1.655487060546875;0.0940093994140625;-0.0668466761708259;-0.1113931015133857;0.4450456500053406
1768421547731626800;2.460626708984375;0.37164306640625;-1.94122314453125;0.050628662109375;0.1085307374596595;0.0706219747662544;0.2633586525917053
1768421547741626600;2.470626708984375;0.2781982421875;-2.160003662109375;-0.03033447265625;0.1744389086961746;0.1568894833326339;0.109768308699131
1768421547751626800;2.480626708984375;0.167236328125;-2.2283935546875;-0.133880615234375;0.0669915527105331;0.1729797720909118;-0.0217345897108316
1768421547761626600;2.490626708984375;0.1039276123046875;-2.1121826171875;-0.251129150390625;-0.1803266257047653;0.1755151003599167;-0.1553752124309539
1768421547771626800;2.500626708984375;0.11962890625;-1.87591552734375;-0.283172607421875;-0.4328669905662536;-0.0094659393653273;-0.2606843113899231
1768421547781626600;2.510626708984375;0.169097900390625;-1.6312255859375;-0.2133026123046875;-0.5800079703330994;-0.2344817519187927;-0.361854076385498
1768421547791627800;2.520627685546875;0.1918487548828125;-1.3569488525390625;-0.0713653564453125;-0.5548807978630066;-0.3516805469989776;-0.4366795718669891
1768421547801628000;2.5306279296875;0.1748809814453125;-1.100738525390625;0.0637359619140625;-0.3897368311882019;-0.3990626931190491;-0.3993066549301147
1768421547811627800;2.540627685546875;0.1377410888671875;-0.913238525390625;0.1332244873046875;-0.178833931684494;-0.3765619099140167;-0.2739498019218445
1768421547821628000;2.5506279296875;0.117523193359375;-0.78173828125;0.1299285888671875;0.0078254323452711;-0.318142294883728;-0.1476603001356125
1768421547831627800;2.560627685546875;0.123565673828125;-0.6990203857421875;0.0804290771484375;0.1383424252271652;-0.2356111854314804;-0.0918793231248855
1768421547841628000;2.5706279296875;0.1262359619140625;-0.656463623046875;0.0207366943359375;0.2131958901882171;-0.156119555234909;-0.1234785318374633
1768421547851628800;2.58062890625;0.114410400390625;-0.6507415771484375;-0.0377655029296875;0.2347733676433563;-0.0993462949991226;-0.2236597239971161
1768421547861628700;2.590628662109375;0.099609375;-0.658782958984375;-0.0956573486328125;0.2131146639585495;-0.1045596972107887;-0.3722191154956817
1768421547871628800;2.60062890625;0.0727081298828125;-0.6608428955078125;-0.139129638671875;0.1606357544660568;-0.1310645490884781;-0.5295075178146362
1768421547881628700;2.610628662109375;0.037384033203125;-0.6469573974609375;-0.1544189453125;0.1142962127923965;-0.1563933342695236;-0.6413083672523499
1768421547891628800;2.62062890625;0.0163726806640625;-0.6051788330078125;-0.1344146728515625;0.0936742946505546;-0.169829785823822;-0.6943483948707581
1768421547901628700;2.630628662109375;-0.0128021240234375;-0.5401153564453125;-0.0952301025390625;0.0854254215955734;-0.1707914471626281;-0.6811399459838867
1768421547911628800;2.64062890625;-0.048065185546875;-0.451171875;-0.0467529296875;0.0469640456140041;-0.1391011625528335;-0.6304818391799927
1768421547921630000;2.6506298828125;-0.0477142333984375;-0.3609466552734375;-0.02764892578125;-0.0083924196660518;-0.0705996006727218;-0.6263275742530823
1768421547931629800;2.6606298828125;-0.0283355712890625;-0.287353515625;-0.010040283203125;-0.0132524222135543;0.0388280898332595;-0.6967287659645081
1768421547941630000;2.6706298828125;-0.0191192626953125;-0.2305145263671875;0.024871826171875;0.0522552132606506;0.1389064937829971;-0.7749899625778198
1768421547951629800;2.6806298828125;-0.0322723388671875;-0.1849822998046875;0.05877685546875;0.1465806514024734;0.1602304130792617;-0.797675609588623
1768421547961630000;2.6906298828125;-0.043212890625;-0.14593505859375;0.0722808837890625;0.2045784443616867;0.0643363818526268;-0.7551366686820984
1768421547971629800;2.7006298828125;-0.022003173828125;-0.1175537109375;0.0738677978515625;0.2001184523105621;-0.1212822198867797;-0.6739739179611206
1768421547981630700;2.710630615234375;0.0259246826171875;-0.0972137451171875;0.06793212890625;0.1326075792312622;-0.3132396638393402;-0.5905282497406006
1768421547991630800;2.720630859375;0.0883636474609375;-0.078216552734375;0.05584716796875;0.0303272791206836;-0.4331652820110321;-0.5308327078819275
1768421548001630700;2.730630615234375;0.21044921875;-0.0609130859375;0.0532684326171875;-0.0207329746335744;-0.4015160202980041;-0.4716591536998749
1768421548011630800;2.740630859375;0.42144775390625;-0.0543365478515625;0.0050048828125;0.057676613330841;-0.0400808416306972;-0.1991466581821441
1768421548021630700;2.750630615234375;0.677001953125;-0.10833740234375;-0.1248016357421875;0.3100971579551697;0.1411992013454437;0.5549207329750061
1768421548031630800;2.760630859375;0.894134521484375;-0.3197784423828125;-0.309661865234375;0.568825364112854;-0.0743890106678009;1.4314674139022827
1768421548041630700;2.770630615234375;0.758758544921875;-0.777587890625;-0.5835418701171875;0.4326837658882141;-0.892125129699707;1.3501113653182983
1768421548051631600;2.780631591796875;0.166290283203125;-1.5401153564453125;-0.863006591796875;-0.1699703931808471;-1.2858474254608154;-0.1475321948528289
1768421548061632000;2.790632080078125;-0.4159698486328125;-2.3403778076171875;-1.1029510498046875;-1.0459445714950562;-0.4765156805515289;-0.73028963804245
1768421548071632000;2.8006318359375;-0.3784027099609375;-2.542938232421875;-0.8720550537109375;-1.224099040031433;-0.4560095965862274;-0.4607678651809692
1768421548081632000;2.810632080078125;0.0209503173828125;-2.10382080078125;-0.14013671875;-0.7529184818267822;-0.606622040271759;0.0520195253193378
1768421548091631900;2.8206318359375;0.22589111328125;-1.8809814453125;0.2738037109375;-0.2033829540014267;-0.2219166904687881;0.2177198082208633
1768421548101632000;2.830632080078125;0.514556884765625;-1.8368988037109375;0.437744140625;0.2292478382587433;0.1072462946176529;-0.246043860912323
1768421548111633000;2.8406328125;0.559661865234375;-1.765777587890625;0.4394378662109375;0.4076340794563293;0.1204110980033874;-0.7578317523002625
1768421548121632800;2.8506328125;0.2164306640625;-1.606353759765625;0.3526153564453125;0.4580397307872772;-0.0956982970237732;-0.7221070528030396
1768421548131633000;2.8606328125;-0.1927337646484375;-1.45855712890625;0.1938629150390625;0.4073632359504699;-0.4375978410243988;-0.1377437561750412
1768421548141632800;2.8706328125;-0.47991943359375;-1.415008544921875;0.007354736328125;0.3328032493591308;-0.6417986750602722;0.5494996309280396
1768421548151633000;2.8806328125;-0.51287841796875;-1.585113525390625;-0.2070465087890625;0.2032050490379333;-0.59527587890625;0.9373418688774108
1768421548161632800;2.8906328125;-0.332122802734375;-1.934906005859375;-0.5662994384765625;-0.007521831896156;-0.4266980588436126;0.8856595158576965
1768421548171632600;2.900632568359375;-0.0926361083984375;-2.2186279296875;-0.846954345703125;-0.1337279677391052;-0.117842212319374;0.5175158381462097
1768421548181633800;2.9106337890625;-0.0255126953125;-2.2812042236328125;-0.8831024169921875;0.0358637236058712;0.3624442517757416;0.149301066994667
1768421548191633700;2.920633544921875;-0.1053619384765625;-2.01202392578125;-0.4576873779296875;0.438327819108963;0.8761738538742065;0.0058083543553948
1768421548201633800;2.9306337890625;-0.13653564453125;-1.7747344970703125;-0.69927978515625;0.1824196130037307;0.9403619170188904;0.126517191529274
1768421548211634000;2.940634033203125;-0.1306915283203125;-1.4513092041015625;-0.6898040771484375;-0.0721058845520019;1.019364356994629;0.3360805511474609
1768421548221633800;2.9506337890625;-0.091644287109375;-1.0749053955078125;-0.348968505859375;-0.1139763668179512;1.0505951642990112;0.4890325367450714
1768421548231634000;2.960634033203125;0.006927490234375;-0.78314208984375;-0.160980224609375;-0.1266892403364181;0.8676086068153381;0.5114102959632874
1768421548241634800;2.970634765625;0.092041015625;-0.617279052734375;-0.1055908203125;-0.1787734776735305;0.4782043993473053;0.4546979963779449
1768421548251635000;2.980635009765625;0.08038330078125;-0.5353240966796875;-0.014007568359375;-0.1968302428722381;0.1191383749246597;0.4006930887699127
1768421548261634800;2.990634765625;0.0114593505859375;-0.5106048583984375;0.070587158203125;-0.1335466057062149;-0.0600351057946682;0.3730438947677612
1768421548271635000;3.000635009765625;-0.0267181396484375;-0.531494140625;0.0652923583984375;-0.0844360515475273;-0.0597251169383525;0.3558087050914764
1768421548281634800;3.010634765625;0.0117950439453125;-0.5326690673828125;0.008636474609375;-0.0937746912240982;-0.0191798191517591;0.3234635591506958
1768421548291634700;3.020634765625;0.067138671875;-0.4776153564453125;-0.024993896484375;-0.1579819172620773;-0.0248688645660877;0.2605144083499908
1768421548301634800;3.030634765625;0.0906829833984375;-0.383636474609375;-0.0124053955078125;-0.2357797622680664;-0.0418265424668788;0.1899203956127166
1768421548311635700;3.0406357421875;0.0936126708984375;-0.2802734375;0.0453643798828125;-0.3157030940055847;-0.009810552932322;0.1245619058609008
1768421548321635800;3.0506357421875;0.114959716796875;-0.18023681640625;0.1065826416015625;-0.4038997888565063;0.0817824825644493;0.0518421567976474
1768421548331635700;3.0606357421875;0.148223876953125;-0.1058807373046875;0.14501953125;-0.4725235998630523;0.193329781293869;-0.0678384378552436
1768421548341635600;3.070635498046875;0.180206298828125;-0.03607177734375;0.1437530517578125;-0.4355123341083526;0.2159733027219772;-0.2496947795152664
1768421548351635700;3.0806357421875;0.189788818359375;-0.023162841796875;0.07696533203125;-0.3509873151779175;0.1220468133687973;-0.4389810860157013
1768421548361635800;3.0906357421875;0.1505279541015625;-0.0253753662109375;-0.011322021484375;-0.2956204712390899;0.0419772788882255;-0.6202994585037231
1768421548371637000;3.100636962890625;0.102752685546875;-0.0168304443359375;-0.06024169921875;-0.2583583295345306;0.0722339823842048;-0.7207608222961426
1768421548381636900;3.110636962890625;0.1500396728515625;-0.030120849609375;-0.10784912109375;-0.1978166699409485;0.2108232825994491;-0.6886715888977051
1768421548391636700;3.12063671875;0.3109130859375;-0.0655975341796875;-0.1742706298828125;-0.08882787078619;0.3813665211200714;-0.4572687447071075
1768421548401636900;3.130636962890625;0.4257354736328125;-0.1571197509765625;-0.2192230224609375;0.1152466982603073;-0.0626199692487716;-0.1157196760177612
1768421548411636700;3.14063671875;0.3511199951171875;-0.4206085205078125;-0.1466827392578125;0.357034832239151;-0.7999576330184937;0.0540842749178409
1768421548421636900;3.150636962890625;0.1626739501953125;-0.9969482421875;0.0209197998046875;0.5840591788291931;-1.0598504543304443;-0.1228143349289894
1768421548431636700;3.16063671875;0.096435546875;-1.6461181640625;0.15069580078125;0.7060623168945312;-0.5663443803787231;-0.2734022438526153
1768421548441638100;3.17063818359375;0.2738037109375;-1.865814208984375;0.2080078125;0.8448809385299683;-0.2833510041236877;-0.1496848315000534
1768421548451638300;3.18063818359375;0.553314208984375;-1.6662445068359375;-0.0716705322265625;0.791040301322937;-0.724018931388855;-0.0056730657815933
1768421548461638100;3.19063818359375;0.734466552734375;-1.6276092529296875;-0.1970062255859375;0.7061142325401306;-1.1345255374908447;-0.3536909520626068
1768421548471638300;3.20063818359375;0.4856414794921875;-1.7884979248046875;-0.1359405517578125;0.5085061192512512;-0.6053413152694702;-0.4310310184955597
1768421548481638100;3.21063818359375;0.100189208984375;-1.72998046875;-0.2917022705078125;0.3004192113876343;-0.3729275166988373;0.1574689894914627
1768421548491638500;3.220638427734375;0.1276092529296875;-1.75946044921875;-0.381011962890625;0.1743624806404113;-0.4403166770935058;0.5794546008110046
1768421548501639400;3.230639404296875;0.268829345703125;-1.8958587646484375;-0.4896697998046875;0.040736511349678;-0.2764105498790741;0.532057523727417
1768421548511639300;3.240639404296875;0.2815399169921875;-1.99169921875;-0.6200714111328125;-0.086822509765625;-0.1081078276038169;0.3952394723892212
1768421548521639400;3.250639404296875;0.1840667724609375;-1.9984130859375;-0.6587677001953125;-0.2205281108617782;-0.1666970998048782;0.3216560482978821
1768421548531639300;3.260639404296875;0.05047607421875;-1.9720458984375;-0.608795166015625;-0.3914937376976013;-0.1951135694980621;0.2916425168514251
1768421548541639400;3.270639404296875;-0.0359039306640625;-1.9356231689453125;-0.44207763671875;-0.5613349676132202;-0.1243264824151992;0.283287912607193
1768421548551639300;3.280639404296875;0.0272979736328125;-1.8594970703125;-0.2253875732421875;-0.6707674264907837;-0.0715000182390213;0.2822532653808594
1768421548561639400;3.290639404296875;0.1761627197265625;-1.7131195068359375;-0.0110626220703125;-0.6578044891357422;-0.148552194237709;0.2446486353874206
1768421548571640300;3.300640380859375;0.23968505859375;-1.5637359619140625;0.145111083984375;-0.5543878674507141;-0.2202106565237045;0.1470371186733245
1768421548581640200;3.31064013671875;0.2003326416015625;-1.413604736328125;0.2359771728515625;-0.3985388576984405;-0.2433601915836334;0.0392842888832092
1768421548591640300;3.320640380859375;0.1304168701171875;-1.266754150390625;0.2575531005859375;-0.2144329398870468;-0.209974005818367;-0.0244241170585155
1768421548601640200;3.33064013671875;0.0731353759765625;-1.124359130859375;0.24847412109375;0.0048895636573433;-0.1545387059450149;-0.0834237858653068
1768421548611640300;3.340640380859375;0.0629425048828125;-1.012298583984375;0.1906890869140625;0.194505825638771;-0.1317007690668106;-0.1977849900722503
1768421548621640200;3.35064013671875;0.0620574951171875;-0.8994140625;0.1488494873046875;0.3167521059513092;-0.1011322066187858;-0.3465965688228607
1768421548631641300;3.360641357421875;0.0193023681640625;-0.7920989990234375;0.126220703125;0.3763779103755951;-0.0998269915580749;-0.5074192881584167
1768421548641641500;3.370641357421875;-0.033416748046875;-0.662872314453125;0.105682373046875;0.432460606098175;-0.1457952857017517;-0.6535367965698242
1768421548651641300;3.380641357421875;-0.0896759033203125;-0.526214599609375;0.058624267578125;0.4555395543575287;-0.2002270966768264;-0.735971212387085
1768421548661641500;3.390641357421875;-0.123321533203125;-0.387969970703125;-0.0084991455078125;0.4370692074298858;-0.2616731524467468;-0.7281450033187866
1768421548671641300;3.400641357421875;-0.1842803955078125;-0.2209320068359375;-0.036224365234375;0.4188446700572967;-0.3122186064720154;-0.618577241897583
1768421548681641200;3.41064111328125;-0.2323760986328125;-0.06268310546875;-0.01715087890625;0.4167503416538238;-0.3336890339851379;-0.479498952627182
1768421548691642400;3.420642333984375;-0.1878204345703125;0.029632568359375;0.0223846435546875;0.4108290672302246;-0.3577762544155121;-0.3996419310569763
1768421548701642200;3.430642333984375;-0.0637969970703125;0.063873291015625;0.0752410888671875;0.4005551338195801;-0.3912284672260284;-0.4535765349864959
1768421548711642400;3.440642333984375;0.0629730224609375;0.0659332275390625;0.130279541015625;0.4252346456050873;-0.4126474857330322;-0.6013526916503906
1768421548721642200;3.450642333984375;0.1196746826171875;0.0615692138671875;0.130706787109375;0.4655889868736267;-0.4179714024066925;-0.7252999544143677
1768421548731642400;3.460642333984375;0.1374053955078125;0.06890869140625;0.0558013916015625;0.4777532517910003;-0.3774583339691162;-0.6965559124946594
1768421548741642200;3.470642333984375;0.1497650146484375;0.0850830078125;-0.0424957275390625;0.4497626423835754;-0.2685773968696594;-0.5029153227806091
1768421548751642000;3.48064208984375;0.1665802001953125;0.109893798828125;-0.1363525390625;0.3899554908275604;-0.0898249596357345;-0.2887247502803802
1768421548761643500;3.4906435546875;0.1801605224609375;0.1296539306640625;-0.2164306640625;0.3369234204292297;0.1486493945121765;-0.203785091638565
1768421548771643400;3.500643310546875;0.22845458984375;0.0771942138671875;-0.27227783203125;0.2704575955867767;0.2680248022079468;-0.2985038757324219
1768421548781643300;3.510643310546875;0.420654296875;-0.062744140625;-0.2930755615234375;0.1792163550853729;0.3884875476360321;-0.2586145102977752
1768421548791643400;3.520643310546875;0.72064208984375;-0.1416168212890625;-0.29248046875;0.1637894660234451;0.5769083499908447;0.4085702002048492
1768421548801643300;3.530643310546875;1.1949310302734375;-0.27490234375;-0.1622314453125;0.2002622485160827;-0.1101565957069397;1.3010278940200806
1768421548811643400;3.540643310546875;1.2536468505859375;-0.7452545166015625;-0.2408294677734375;0.0208807811141014;-1.1088417768478394;1.1602940559387207
1768421548821644300;3.550644287109375;0.3087158203125;-1.444000244140625;-0.4518585205078125;-0.4078271687030792;-1.3036932945251465;0.0508836880326271
1768421548831644400;3.56064453125;-0.5289154052734375;-2.1945648193359375;-0.658599853515625;-1.038131594657898;-0.740379810333252;-0.2221968472003936
1768421548841644300;3.570644287109375;-0.4807586669921875;-2.568756103515625;-0.657196044921875;-1.1559442281723022;-0.5163078308105469;0.1184403598308563
1768421548851644200;3.58064404296875;0.23095703125;-2.2431182861328125;-0.12506103515625;-0.5081252455711365;-0.8704448938369751;0.539383590221405
1768421548861644300;3.590644287109375;0.4719390869140625;-2.009490966796875;0.2488250732421875;0.039246205240488;-0.6309880614280701;0.6991072297096252
1768421548871644200;3.60064404296875;0.4961395263671875;-2.0807952880859375;0.1663665771484375;0.2892549932003021;-0.1612237691879272;0.2504465878009796
1768421548881644300;3.610644287109375;0.596771240234375;-2.151947021484375;0.0146942138671875;0.4831565320491791;0.0149270175024867;-0.3396022915840149
1768421548891645200;3.620645263671875;0.5248565673828125;-2.1291961669921875;-0.0612640380859375;0.5307275056838989;-0.1799332797527313;-0.534442126750946
1768421548901645300;3.630645263671875;0.2608489990234375;-1.946502685546875;-0.1556549072265625;0.454430878162384;-0.4884586334228515;-0.2562562823295593
1768421548911645400;3.6406455078125;0.051300048828125;-1.7778167724609375;-0.178497314453125;0.3821846544742584;-0.8198986053466797;0.2285085469484329
1768421548921645300;3.650645263671875;-0.099609375;-1.783843994140625;-0.2576904296875;0.3550188243389129;-0.7860745787620544;0.5581953525543213
1768421548931645400;3.6606455078125;-0.095947265625;-1.9531402587890625;-0.4534149169921875;0.3458223938941955;-0.5078113079071045;0.5337187647819519
1768421548941645300;3.670645263671875;0.0218658447265625;-2.1297149658203125;-0.665924072265625;0.3363178372383117;-0.2234562635421753;0.3185446858406067
1768421548951646200;3.680646240234375;0.0414581298828125;-2.166290283203125;-0.863433837890625;0.2510828375816345;0.0221242103725671;0.1533248424530029
1768421548961646300;3.690646240234375;-0.0079193115234375;-1.98809814453125;-0.8996429443359375;0.1354006975889206;0.352890133857727;0.0564875118434429
1768421548971646200;3.700646240234375;-0.041168212890625;-1.680694580078125;-0.821563720703125;-0.0693718865513801;0.4782416820526123;0.0575748793780803
1768421548981646300;3.710646240234375;-0.031951904296875;-1.344970703125;-0.6364898681640625;-0.2320854365825653;0.5040255784988403;0.0906382873654365
1768421548991646200;3.720646240234375;-0.0249786376953125;-1.029022216796875;-0.390533447265625;-0.2984814941883087;0.509430468082428;0.1216010004281997
1768421549001646300;3.730646240234375;-0.0329742431640625;-0.8029022216796875;-0.2157440185546875;-0.3873027265071869;0.4339434504508972;0.1839469373226165
1768421549011646200;3.740646240234375;-0.0746917724609375;-0.625091552734375;-0.08477783203125;-0.4724293351173401;0.348370224237442;0.2453735470771789
1768421549021647000;3.750647216796875;-0.06890869140625;-0.4718475341796875;0.055267333984375;-0.4992734491825104;0.2093641459941864;0.2548365592956543
1768421549031647200;3.760647216796875;-0.032012939453125;-0.3549957275390625;0.16143798828125;-0.4385440647602081;0.1166592389345169;0.1923345625400543
1768421549041647000;3.770647216796875;0.0035858154296875;-0.2930450439453125;0.20458984375;-0.3405359983444214;0.1151638701558113;0.0807177498936653
1768421549051647500;3.7806474609375;0.0191650390625;-0.2576751708984375;0.183380126953125;-0.2525070905685425;0.1850609332323074;-0.0306364726275205
1768421549061647400;3.7906474609375;0.018951416015625;-0.196929931640625;0.120880126953125;-0.2082924842834472;0.206629604101181;-0.1166698932647705
1768421549071647500;3.8006474609375;0.039581298828125;-0.1090850830078125;0.0918426513671875;-0.1942224651575088;0.1395344585180282;-0.1728908121585846
1768421549081647400;3.8106474609375;0.0848541259765625;-0.019012451171875;0.1176910400390625;-0.2135937809944152;-0.0072621740400791;-0.2173959612846374
1768421549091648300;3.820648193359375;0.1436004638671875;0.054840087890625;0.1862640380859375;-0.283249020576477;-0.1873376667499542;-0.3120452463626861
1768421549101648400;3.8306484375;0.1763916015625;0.0946807861328125;0.245208740234375;-0.4073158502578735;-0.3022304177284241;-0.4711920320987701
1768421549111648300;3.840648193359375;0.1642913818359375;0.0892181396484375;0.2514495849609375;-0.5047105550765991;-0.3488029837608337;-0.6318045854568481
1768421549121648400;3.8506484375;0.166229248046875;0.053680419921875;0.17431640625;-0.505165696144104;-0.4456680119037628;-0.7493938207626343
1768421549131648300;3.860648193359375;0.1456298828125;0.007904052734375;0.024139404296875;-0.5080121159553528;-0.4745819568634033;-0.8098819255828857
1768421549141648400;3.8706484375;0.11553955078125;-0.0137786865234375;-0.0850372314453125;-0.4814928770065307;-0.5018007755279541;-0.813675582408905
1768421549151649300;3.880649169921875;0.0717010498046875;-0.0333099365234375;-0.1230316162109375;-0.3996438086032867;-0.5653294324874878;-0.7601016163825989
1768421549161649200;3.890649169921875;-0.011871337890625;-0.083465576171875;-0.1202850341796875;-0.2744749784469604;-0.5769381523132324;-0.653482973575592
1768421549171649300;3.900649169921875;-0.0586090087890625;-0.1678009033203125;-0.0710906982421875;-0.0901972725987434;-0.5315493941307068;-0.6131017804145813
1768421549181649200;3.910649169921875;0.1035614013671875;-0.2432403564453125;0.0011749267578125;0.2108736187219619;-0.4601777195930481;-0.6690492033958435
1768421549191649300;3.920649169921875;0.5029449462890625;-0.25421142578125;0.046600341796875;0.6005635857582092;-0.3279658854007721;-0.2269111722707748
1768421549201649200;3.930649169921875;0.7574005126953125;-0.296417236328125;-0.028167724609375;1.185524821281433;0.3498741090297699;1.3519270420074463
1768421549211649500;3.9406494140625;1.7968597412109375;-0.8262176513671875;-0.073516845703125;2.1237523555755615;0.0410571545362472;1.4184690713882446
1768421549221650400;3.950650390625;2.2862701416015625;-2.445770263671875;0.0227813720703125;2.209423780441284;-0.4203754365444183;-1.1615949869155884
1768421549231650300;3.960650390625;0.717803955078125;-3.07708740234375;-0.1285400390625;1.5320782661437988;0.0133482962846755;-2.2878668308258057
1768421549241650400;3.970650390625;-0.3310394287109375;-2.1372222900390625;-0.35150146484375;1.0478417873382568;-0.2449881881475448;-1.5659557580947876
1768421549251650300;3.980650390625;-0.1885833740234375;-1.6141815185546875;-0.399627685546875;0.7815847992897034;-0.8063974380493164;-0.635688304901123
1768421549261650400;3.990650390625;-0.0560150146484375;-1.5674896240234375;-0.464263916015625;0.2069427967071533;-0.8972245454788208;-0.1575198471546173
1768421549271650300;4.000650390625;0.0894317626953125;-1.5035400390625;-0.461761474609375;-0.4179969727993011;-1.0783929824829102;0.1202012449502945
1768421549281651200;4.010651123046875;0.2554473876953125;-1.3953094482421875;-0.24920654296875;-0.7301908135414124;-1.3087167739868164;0.3858808577060699
1768421549291651300;4.0206513671875;0.1831817626953125;-1.340057373046875;0.04730224609375;-0.5052634477615356;-1.0774166584014893;0.7200854420661926
1768421549301651200;4.030651123046875;0.0917816162109375;-1.3523712158203125;0.17059326171875;0.0470878817141056;-0.732979953289032;1.080505132675171
1768421549311651300;4.0406513671875;0.1476898193359375;-1.47808837890625;0.01068115234375;0.4837528169155121;-0.6365061402320862;1.237462043762207
1768421549321651200;4.050651123046875;0.2993316650390625;-1.7385406494140625;-0.1774444580078125;0.604912519454956;-0.7010132074356079;0.954440176486969
1768421549331651300;4.0606513671875;0.41729736328125;-2.0232391357421875;-0.2301177978515625;0.4645421206951141;-0.7276283502578735;0.3891525566577911
1768421549341651200;4.070651123046875;0.3617706298828125;-2.222900390625;-0.21746826171875;0.2048317044973373;-0.5733188986778259;-0.0583740919828414
1768421549351652400;4.08065234375;0.2047271728515625;-2.2602996826171875;-0.1294403076171875;0.0754441544413566;-0.449538916349411;-0.1968025416135788
1768421549361652500;4.090652587890625;0.056488037109375;-2.1534881591796875;-0.0645751953125;0.0486668720841407;-0.3388230502605438;-0.1376566588878631
1768421549371652400;4.10065234375;-0.019805908203125;-1.9464569091796875;-0.054718017578125;0.0641587451100349;-0.2247684001922607;-0.1006091684103012
1768421549381652500;4.110652587890625;-0.0174560546875;-1.6847381591796875;-0.0874786376953125;0.126960352063179;-0.227975383400917;-0.1377432197332382
1768421549391652400;4.12065234375;0.003173828125;-1.3874359130859375;-0.13336181640625;0.2043376863002777;-0.3566851615905761;-0.1821354478597641
1768421549401652200;4.13065234375;0.01519775390625;-1.13336181640625;-0.1580352783203125;0.2444222569465637;-0.4901316165924072;-0.2106685638427734
1768421549411652400;4.14065234375;0.0195770263671875;-0.9414825439453124;-0.0838623046875;0.2593423426151275;-0.6048669815063477;-0.2129484862089157
1768421549421653200;4.1506533203125;0.0359954833984375;-0.8255462646484375;0.0270233154296875;0.2218698114156723;-0.6927915215492249;-0.2402264475822448
1768421549431653400;4.1606533203125;0.045562744140625;-0.7493133544921875;0.119354248046875;0.1710553616285324;-0.7182763814926147;-0.3253248333930969
1768421549441653800;4.17065380859375;0.053802490234375;-0.667205810546875;0.20233154296875;0.1766333580017089;-0.7247047424316406;-0.45981365442276
1768421549451653600;4.180653564453125;0.050872802734375;-0.5843658447265625;0.2647705078125;0.2446523606777191;-0.7213611006736755;-0.6097334027290344
1768421549461653800;4.19065380859375;0.0469818115234375;-0.4993133544921875;0.22760009765625;0.294946938753128;-0.680075466632843;-0.738732635974884
1768421549471653600;4.200653564453125;0.039794921875;-0.3812255859375;0.08978271484375;0.2812151610851288;-0.6427121162414551;-0.8681564331054688
1768421549481654500;4.210654541015625;0.044830322265625;-0.262237548828125;-0.0270233154296875;0.2859462797641754;-0.6249067783355713;-1.0009174346923828
1768421549491654700;4.220654541015625;0.052978515625;-0.172332763671875;-0.13665771484375;0.3062816262245178;-0.5694437623023987;-1.145357370376587
1768421549501654500;4.230654541015625;0.0742034912109375;-0.0967254638671875;-0.2323760986328125;0.3220251798629761;-0.5049643516540527;-1.266453742980957
1768421549511654700;4.240654541015625;0.107330322265625;-0.020263671875;-0.2783966064453125;0.3054717779159546;-0.4717145264148712;-1.2986118793487549
1768421549521654500;4.250654541015625;0.1395416259765625;0.0560455322265625;-0.2714080810546875;0.2207765877246856;-0.5410126447677612;-1.204158902168274
1768421549531654700;4.260654541015625;0.178924560546875;0.127349853515625;-0.1994476318359375;0.0713383629918098;-0.7640295028686523;-0.9965348839759828
1768421549541654500;4.270654541015625;0.201202392578125;0.1799774169921875;-0.091644287109375;-0.1139713078737258;-1.003447651863098;-0.7375555634498596
1768421549551655700;4.28065576171875;0.184478759765625;0.197296142578125;0.025604248046875;-0.2733761370182037;-1.104015588760376;-0.537068247795105
1768421549561655800;4.29065576171875;0.1513824462890625;0.1784820556640625;0.1284942626953125;-0.3307393193244934;-1.0068296194076538;-0.5301445722579956
1768421549571655700;4.30065576171875;0.1014404296875;0.115631103515625;0.1721038818359375;-0.2731441855430603;-0.7759847044944763;-0.6744066476821899
1768421549581655800;4.31065576171875;0.1235809326171875;-0.0039825439453125;0.098175048828125;-0.1575693935155868;-0.5784191489219666;-0.7764778733253479
1768421549591655700;4.32065576171875;0.392822265625;-0.0863037109375;-0.094879150390625;0.0077340858988463;-0.2757556736469269;-0.6161060929298401
1768421549601655800;4.33065576171875;0.7388916015625;-0.0938262939453125;-0.28314208984375;0.2392091155052185;-0.0179078932851552;-0.0004881574132014
1768421549611655700;4.34065576171875;1.2156829833984375;-0.2508697509765625;-0.3604278564453125;0.3977814614772796;-0.6389906406402588;0.899605393409729
1768421549621656600;4.350656494140625;1.237518310546875;-0.8274078369140625;-0.6194915771484375;0.1169868037104606;-2.258194923400879;1.160204529762268
1768421549631656700;4.36065673828125;0.2952880859375;-1.602752685546875;-0.7400665283203125;-0.5402485728263855;-3.3814916610717773;-0.2214178740978241
1768421549641656600;4.370656494140625;-0.91485595703125;-2.337188720703125;-0.7473907470703125;-1.4163622856140137;-1.8465576171875;-0.8455919623374939
1768421549651656700;4.38065673828125;-0.915618896484375;-2.549835205078125;-0.4600677490234375;-1.6678059101104736;-1.1429752111434937;-0.3888321816921234
1768421549661656600;4.390656494140625;-0.3217010498046875;-2.3383941650390625;0.1247711181640625;-1.1155835390090942;-1.0058103799819946;0.3539247810840606
1768421549671656700;4.40065673828125;0.066253662109375;-2.2167816162109375;0.4161224365234375;-0.3745666742324829;-0.5265181064605713;0.7254831790924072
1768421549681656600;4.410656494140625;0.4120025634765625;-2.20538330078125;0.262725830078125;0.0966847315430641;-0.3755067884922027;0.4417691528797149
1768421549691657700;4.42065771484375;0.5166778564453125;-2.1884002685546875;-0.064605712890625;0.2724922299385071;-0.4966089725494385;-0.0744955390691757
1768421549701657900;4.430657958984375;0.3162689208984375;-2.036376953125;-0.121063232421875;0.3812517523765564;-0.5555223226547241;-0.3304862976074219
1768421549711657700;4.44065771484375;0.0005340576171875;-1.8762054443359375;0.0112762451171875;0.5067769289016724;-0.580473780632019;-0.0626886785030365
1768421549721657900;4.450657958984375;-0.1348724365234375;-1.8519439697265625;0.048492431640625;0.5514479875564575;-0.5997707843780518;0.3440511226654053
1768421549731657700;4.46065771484375;-0.1348114013671875;-1.9587554931640625;-0.1563720703125;0.4235115945339203;-0.5558562874794006;0.5549114346504211
1768421549741657900;4.470657958984375;-0.0926971435546875;-2.1053619384765625;-0.4312286376953125;0.2584805488586426;-0.3667140901088714;0.3990091681480407
1768421549751657700;4.48065771484375;-0.0451202392578125;-2.1017608642578125;-0.61468505859375;0.1313138157129287;-0.173177108168602;0.2028346061706543
1768421549761658600;4.49065869140625;-0.05584716796875;-1.91912841796875;-0.7619476318359375;-0.0759719982743263;-0.0189356077462434;0.1811980158090591
1768421549771658800;4.50065869140625;-0.1248016357421875;-1.628875732421875;-0.812225341796875;-0.3617318272590637;0.1209727600216865;0.3150644600391388
1768421549781658600;4.51065869140625;-0.1685638427734375;-1.34295654296875;-0.76641845703125;-0.6240979433059692;0.138576790690422;0.5431631803512573
1768421549791658800;4.52065869140625;-0.1699981689453125;-1.092864990234375;-0.5152740478515625;-0.7214005589485168;0.1023878902196884;0.7465000152587891
1768421549801658600;4.53065869140625;-0.1285247802734375;-0.91302490234375;-0.27410888671875;-0.7673709392547607;0.0574518404901027;0.8365646600723267
1768421549811658500;4.540658447265625;-0.0177001953125;-0.820281982421875;-0.1427764892578125;-0.8079548478126526;-0.0605901107192039;0.8020639419555664
1768421549821659600;4.55065966796875;0.120635986328125;-0.7327880859375;-0.014129638671875;-0.7722887396812439;-0.1744679361581802;0.6195958852767944
1768421549831659800;4.56065966796875;0.2368011474609375;-0.63494873046875;0.0933074951171875;-0.6841237545013428;-0.2383004575967788;0.3502019643783569
1768421549841660000;4.570659912109375;0.27734375;-0.534820556640625;0.1441192626953125;-0.5990085601806641;-0.2523432970046997;0.0752145946025848
1768421549851659800;4.58065966796875;0.23309326171875;-0.4447174072265625;0.1143951416015625;-0.5893381237983704;-0.3196648061275482;-0.1001436412334442
1768421549861659600;4.59065966796875;0.163604736328125;-0.352020263671875;0.0399932861328125;-0.6414604187011719;-0.4467383325099945;-0.1543959677219391
1768421549871659800;4.60065966796875;0.0979766845703125;-0.240447998046875;0.0005035400390625;-0.6966001391410828;-0.5008439421653748;-0.1444000601768493
1768421549881659600;4.61065966796875;0.0534820556640625;-0.1560821533203125;-0.0224151611328125;-0.7662617564201355;-0.4761100709438324;-0.1396332681179046
1768421549891659800;4.62065966796875;0.0494232177734375;-0.094879150390625;-0.0361175537109375;-0.8277543783187866;-0.3959340155124664;-0.1983133554458618
1768421549901660700;4.63066064453125;0.06219482421875;-0.0406341552734375;-0.029541015625;-0.8443464040756226;-0.2703816890716553;-0.3006770014762878
1768421549911660500;4.64066064453125;0.0754241943359375;-0.0057525634765625;-0.0518646240234375;-0.8078089356422424;-0.1915926039218902;-0.3804807662963867
1768421549921660700;4.65066064453125;0.0791473388671875;0.022064208984375;-0.099456787109375;-0.7407947182655334;-0.1898767203092575;-0.4022238850593567
1768421549931660500;4.66066064453125;0.0726318359375;0.0519256591796875;-0.140838623046875;-0.6661285161972046;-0.2369097471237182;-0.3755424618721008
1768421549941660700;4.67066064453125;0.0809173583984375;0.072296142578125;-0.1643218994140625;-0.6173601746559143;-0.3203188776969909;-0.3483169674873352
1768421549951660500;4.68066064453125;0.100616455078125;0.0802764892578125;-0.1574554443359375;-0.5844687819480896;-0.4533640146255493;-0.312800258398056
1768421549961661700;4.69066162109375;0.077972412109375;0.058929443359375;-0.122161865234375;-0.5566036105155945;-0.5857753157615662;-0.2406541556119918
1768421549971661600;4.70066162109375;0.0308685302734375;0.0193328857421875;-0.0689697265625;-0.486292153596878;-0.6723312735557556;-0.1496989428997039
1768421549981661700;4.71066162109375;0.094451904296875;-0.01025390625;-0.0240325927734375;-0.3050552606582641;-0.6144554615020752;-0.024843031540513
1768421549991661800;4.720661865234375;0.4467926025390625;-0.00653076171875;-0.0251617431640625;0.0072456621564924;-0.3954660892486572;0.303389698266983
1768421550001661700;4.73066162109375;1.008941650390625;-0.0242919921875;-0.0781707763671875;0.3729054033756256;-0.4886170923709869;1.0907466411590576
1768421550011661800;4.740661865234375;1.4233551025390625;-0.3150177001953125;-0.077545166015625;0.7776491641998291;-1.6417988538742063;1.3095839023590088
1768421550021661700;4.75066162109375;1.4691925048828125;-1.3164215087890625;0.1070098876953125;0.8483672738075256;-3.1392934322357178;-0.2139793932437896
1768421550031662600;4.76066259765625;0.525238037109375;-2.727569580078125;0.40191650390625;0.5832237601280212;-0.9755550622940063;-1.2109622955322266
1768421550041662700;4.770662841796875;-0.12005615234375;-2.6094970703125;0.6051483154296875;0.8940905332565308;0.1806803047657013;-0.7678764462471008
1768421550051662600;4.78066259765625;0.41363525390625;-1.9522857666015625;0.2266998291015625;1.2829687595367432;-0.820401132106781;-0.323937326669693
1768421550061662700;4.790662841796875;0.3419189453125;-1.7913818359375;-0.4873046875;1.0109721422195437;-1.0065521001815796;-0.3327364027500152
1768421550071662600;4.80066259765625;0.0066986083984375;-1.6143646240234375;-0.7396392822265625;0.6496123671531677;-0.5133118033409119;-0.3510536253452301
1768421550081662700;4.810662841796875;-0.0349578857421875;-1.4787139892578125;-0.831298828125;0.342987447977066;-0.175736665725708;-0.192448541522026
1768421550091662600;4.82066259765625;-0.0704498291015625;-1.50372314453125;-1.005889892578125;0.0355910174548625;0.0248677991330623;0.0803781971335411
1768421550101663500;4.83066357421875;-0.1749267578125;-1.5723876953125;-1.1082763671875;-0.1742639392614364;0.2213536947965622;0.4035948812961578
1768421550111663600;4.84066357421875;-0.21875;-1.6837310791015625;-1.0833282470703125;-0.2282310426235199;0.4744951426982879;0.649970293045044
1768421550121663500;4.85066357421875;-0.174224853515625;-1.917572021484375;-0.8740081787109375;-0.2600028216838836;0.7961578369140625;0.7418621182441711
1768421550131664000;4.860663818359375;-0.0299224853515625;-2.135345458984375;-0.5998077392578125;-0.4772081077098846;1.10933518409729;0.5878262519836426
1768421550141663700;4.870663818359375;0.200042724609375;-2.15081787109375;-0.302276611328125;-0.7453596591949463;1.1353788375854492;0.2214319854974746
1768421550151663900;4.880663818359375;0.2825927734375;-2.0631561279296875;0.0317840576171875;-0.9923305511474608;0.9727339744567872;-0.1358297318220138
1768421550161663700;4.890663818359375;0.1711273193359375;-1.9445648193359375;0.30718994140625;-1.1060951948165894;0.873370349407196;-0.2840359807014465
1768421550171664600;4.90066455078125;0.012420654296875;-1.72015380859375;0.5836029052734375;-0.995250165462494;0.7709617018699646;-0.2020247429609298
1768421550181664800;4.910664794921875;-0.074615478515625;-1.4554443359375;0.7300567626953125;-0.7267420291900635;0.6185433864593506;-0.0137693416327238
1768421550191664600;4.92066455078125;-0.038543701171875;-1.2021484375;0.639404296875;-0.5158926248550415;0.4597353637218475;0.1183511465787887
1768421550201664800;4.930664794921875;0.0443267822265625;-0.997589111328125;0.4383544921875;-0.353269100189209;0.4187847375869751;0.1250529885292053
1768421550211664600;4.94066455078125;0.0988922119140625;-0.794586181640625;0.2559051513671875;-0.182271271944046;0.4723260104656219;0.0542206279933452
1768421550221664800;4.950664794921875;0.0994873046875;-0.6396331787109375;0.102935791015625;0.0015451660146936;0.5633642673492432;-0.0133504262194037
1768421550231664600;4.96066455078125;0.051422119140625;-0.5489349365234375;-0.01708984375;0.1607284247875213;0.6493204832077026;-0.0535548366606235
1768421550241665500;4.97066552734375;-0.0064544677734375;-0.4717864990234375;-0.09466552734375;0.2827565968036651;0.7337823510169983;-0.0660786181688308
1768421550251665700;4.980665771484375;-0.03662109375;-0.3929901123046875;-0.175201416015625;0.3447267711162567;0.8905155062675476;-0.0959614142775535
1768421550261665500;4.99066552734375;-0.0096435546875;-0.3187408447265625;-0.262847900390625;0.3552923202514648;1.1152359247207642;-0.2125410288572311
1768421550271665700;5.000665771484375;0.04718017578125;-0.25433349609375;-0.3451690673828125;0.3422801196575165;1.323621153831482;-0.4229171574115753
1768421550281665500;5.01066552734375;0.1214599609375;-0.20050048828125;-0.4163818359375;0.3144652545452118;1.4131801128387451;-0.6830411553382874
1768421550291666000;5.020666015625;0.1668701171875;-0.1546630859375;-0.45916748046875;0.2682903110980987;1.4234756231307983;-0.89653480052948
1768421550301665800;5.030665771484375;0.1543426513671875;-0.0923919677734375;-0.4742889404296875;0.1847488135099411;1.4125385284423828;-0.9998116493225098
1768421550311666700;5.040666748046875;0.1123504638671875;-0.0093231201171875;-0.4481964111328125;0.0571104250848293;1.4266047477722168;-0.9759010076522828
1768421550321666800;5.050666748046875;0.102752685546875;0.0775299072265625;-0.3592681884765625;-0.1016954705119133;1.4733318090438845;-0.838485598564148
1768421550331666700;5.060666748046875;0.1685028076171875;0.169342041015625;-0.2041168212890625;-0.2329911738634109;1.48858642578125;-0.6712316274642944
1768421550341666800;5.070666748046875;0.25885009765625;0.23919677734375;-0.0450439453125;-0.3008706271648407;1.471318244934082;-0.5333672165870667
1768421550351666700;5.080666748046875;0.2865753173828125;0.265472412109375;0.0560150146484375;-0.338623046875;1.4417566061019895;-0.4304626882076263
1768421550361666600;5.09066650390625;0.2545013427734375;0.238037109375;0.0439910888671875;-0.3465893864631653;1.5990729331970217;-0.3054488599300384
1768421550371666700;5.100666748046875;0.35369873046875;0.161468505859375;-0.1869964599609375;-0.2391404062509536;2.2015936374664307;-0.0638245195150375
1768421550381666600;5.11066650390625;0.731781005859375;0.0576171875;-0.5520477294921875;0.0293152779340744;2.450827121734619;0.3402065634727478
1768421550391667700;5.120667724609375;1.121978759765625;-0.0260772705078125;-0.7068939208984375;0.363540381193161;1.246739149093628;0.8287528157234192
1768421550401667600;5.13066748046875;1.197113037109375;-0.259765625;-0.550506591796875;0.1094007939100265;-1.77096426486969;1.52880597114563
1768421550411667700;5.140667724609375;0.2992095947265625;-1.1450347900390625;-0.419952392578125;-1.372166872024536;-3.109903573989868;1.770285964012146
1768421550421667600;5.15066748046875;-1.193389892578125;-2.336944580078125;-0.4940643310546875;-3.0180249214172363;-0.8332615494728088;1.4318616390228271
1768421550431667500;5.16066748046875;-0.5023345947265625;-2.9377593994140625;-0.22454833984375;-3.1416773796081543;0.2747788429260254;1.3452281951904297
1768421550441668000;5.170668212890625;0.7034912109375;-2.9441070556640625;0.378143310546875;-1.6477142572402954;0.9864135384559632;0.8104643821716309
1768421550451668000;5.18066796875;1.028564453125;-3.07208251953125;0.4739532470703125;0.3002053499221802;2.0078163146972656;-0.1968920230865478
1768421550461668900;5.1906689453125;1.0360260009765625;-2.77923583984375;-0.2298431396484375;1.013323426246643;2.4354400634765625;-1.2011327743530271
1768421550471669000;5.2006689453125;0.5225677490234375;-2.0308380126953125;-0.9587860107421876;0.8614020943641663;2.279344320297241;-1.4309388399124146
1768421550481668900;5.2106689453125;-0.2709503173828125;-1.4487762451171875;-0.970458984375;0.479761004447937;2.132138967514038;-0.6638557314872742
1768421550491669000;5.2206689453125;-0.5260162353515625;-1.1826934814453125;-0.6616363525390625;0.0142790703102946;1.9226385354995728;0.4443907737731933
1768421550501668900;5.2306689453125;-0.301849365234375;-1.2052154541015625;-0.3788299560546875;-0.2374269366264343;1.5859107971191406;1.253912091255188
1768421550511669000;5.2406689453125;-0.1735992431640625;-1.5013427734375;-0.307342529296875;-0.3249706327915191;1.4400981664657593;1.7055240869522097
1768421550521668900;5.2506689453125;-0.044586181640625;-1.8807373046875;-0.34765625;-0.2462968528270721;1.4428532123565674;1.7469511032104492
1768421550531670000;5.260669921875;0.13751220703125;-2.2494049072265625;-0.356414794921875;-0.1808874905109405;1.6469606161117554;1.4602389335632324
1768421550541670100;5.270670166015625;0.277374267578125;-2.4879608154296875;-0.451904296875;-0.2245521545410156;1.979502558708191;0.9167524576187134
1768421550551670000;5.280669921875;0.3800048828125;-2.43402099609375;-0.523223876953125;-0.3144450187683105;2.390204429626465;0.350200891494751
1768421550561670100;5.290670166015625;0.3319549560546875;-2.093963623046875;-0.530029296875;-0.4193607866764068;2.6626687049865723;-0.0064376592636108
1768421550571670000;5.300669921875;0.15106201171875;-1.6240234375;-0.4660491943359375;-0.4846164882183075;2.695589542388916;-0.0998714715242385
1768421550581670100;5.310670166015625;-0.0412445068359375;-1.2029571533203125;-0.3820648193359375;-0.5634313821792603;2.574314594268799;-0.0176437087357044
1768421550591670000;5.320669921875;-0.1670379638671875;-0.8536529541015625;-0.3345489501953125;-0.6879845261573792;2.367414951324463;0.1292586475610733
1768421550601671000;5.3306708984375;-0.21832275390625;-0.5966796875;-0.3002471923828125;-0.8267562389373779;2.1602272987365723;0.2636236548423767
1768421550611671000;5.340671142578125;-0.2085418701171875;-0.4161529541015625;-0.263031005859375;-0.9183666110038756;2.003659963607788;0.3724689185619354
1768421550621671000;5.3506708984375;-0.1461944580078125;-0.256927490234375;-0.2010345458984375;-0.94085031747818;1.9322104454040527;0.4811402559280395
1768421550631671000;5.360671142578125;-0.0214996337890625;-0.125701904296875;-0.1433258056640625;-0.9036438465118408;1.9052715301513672;0.5301378965377808
1768421550641671000;5.3706708984375;0.102447509765625;-0.051971435546875;-0.0694427490234375;-0.8336067199707031;1.7379610538482666;0.4505186975002289
1768421550651671000;5.380671142578125;0.12713623046875;-0.07098388671875;0.0217742919921875;-0.8028697967529297;1.5178111791610718;0.3346024751663208
1768421550661671000;5.3906708984375;0.0399169921875;-0.11383056640625;0.11517333984375;-0.7615218758583069;1.5245656967163086;0.2337941229343414
1768421550671672000;5.400672119140625;-0.055328369140625;-0.1199493408203125;0.16241455078125;-0.6988688707351685;1.6740204095840454;0.1361021846532821
1768421550681672200;5.410672119140625;-0.0480499267578125;-0.0937042236328125;0.1236419677734375;-0.6380662322044373;1.7260940074920654;0.044385839253664
1768421550691672000;5.420672119140625;0.0439605712890625;-0.0588836669921875;-0.0047760009765625;-0.6083429455757141;1.5969430208206177;-0.0869695171713829
1768421550701672200;5.430672119140625;0.1165924072265625;-0.0318756103515625;-0.15057373046875;-0.6054659485816956;1.393648982048035;-0.2356466054916381
1768421550711672000;5.440672119140625;0.0919036865234375;0.00811767578125;-0.228363037109375;-0.6182355284690857;1.2370524406433103;-0.3387823104858398
1768421550721672000;5.450671875;0.0238800048828125;0.0384674072265625;-0.230926513671875;-0.6738953590393066;1.116673231124878;-0.3451137244701385
1768421550731672000;5.460672119140625;-0.0423736572265625;0.033905029296875;-0.1829376220703125;-0.7459932565689087;1.0459951162338257;-0.3003310561180115
1768421550741672000;5.470671875;-0.0999603271484375;0.0020751953125;-0.116973876953125;-0.8055351376533508;0.9865731000900269;-0.2599559426307678
1768421550751673000;5.480673095703125;-0.0471649169921875;-0.0276031494140625;-0.09014892578125;-0.7859417200088501;1.067057490348816;-0.2173459082841873
1768421550761673000;5.4906728515625;0.3755340576171875;-0.0279541015625;-0.1233673095703125;-0.5873103737831116;1.31427001953125;-0.025214809924364
1768421550771673000;5.500673095703125;1.012847900390625;-0.08197021484375;-0.2400970458984375;-0.2068482488393783;1.7128770351409912;0.6920253038406372
1768421550781673000;5.5106728515625;1.494354248046875;-0.4029998779296875;-0.3955841064453125;0.3150002956390381;1.2962433099746704;1.1840736865997314
1768421550791672800;5.5206728515625;1.5674896240234375;-1.074859619140625;-0.348876953125;0.7062186598777771;0.30772665143013;0.1348795145750045
1768421550801673000;5.5306728515625;0.451080322265625;-1.9801177978515625;-0.0366668701171875;0.8259738087654114;1.0682812929153442;-1.2732727527618408
1768421550811672800;5.5406728515625;-0.7000579833984375;-2.3676605224609375;0.232269287109375;0.9509239792823792;2.5311925411224365;-1.0839552879333496
1768421550821674000;5.550674072265625;-0.45684814453125;-1.9954071044921875;0.161834716796875;1.1271860599517822;2.3703982830047607;-0.3150290548801422
1768421550831674000;5.560674072265625;0.293609619140625;-1.71405029296875;-0.2899017333984375;0.8590680956840515;1.666287899017334;-0.0437075346708297
1768421550841674000;5.570674072265625;0.4274749755859375;-1.593353271484375;-0.4661712646484375;0.3321246802806854;1.5191134214401243;-0.2581609785556793
1768421550851674000;5.580674072265625;0.176666259765625;-1.5587158203125;-0.431396484375;-0.1379767805337906;1.494576930999756;-0.2628524005413055
1768421550861674000;5.590674072265625;-0.074249267578125;-1.4899139404296875;-0.2701568603515625;-0.2659579217433929;1.4517910480499268;0.2610071003437042
1768421550871674000;5.600674072265625;-0.094940185546875;-1.4209442138671875;-0.164642333984375;-0.1498613953590393;1.4282578229904177;0.8137416243553162
1768421550881674000;5.610674072265625;0.289398193359375;-1.4589996337890625;-0.149139404296875;0.0979161784052848;1.3031749725341797;0.9621838331222534
1768421550891675000;5.6206748046875;0.5809173583984375;-1.662628173828125;-0.1832275390625;0.2976473867893219;1.19247567653656;0.7345661520957947
1768421550901675000;5.630675048828125;0.5078887939453125;-1.9718475341796875;-0.166107177734375;0.3524232804775238;1.1661124229431152;0.4079667031764984
1768421550911675000;5.6406748046875;0.291351318359375;-2.2316741943359375;-0.1363677978515625;0.1801026612520218;1.1468710899353027;0.1720226258039474
1768421550921675000;5.650675048828125;0.0624542236328125;-2.36627197265625;-0.1443328857421875;-0.1556939929723739;1.1654613018035889;0.1275020390748977
1768421550931675000;5.6606748046875;-0.01715087890625;-2.2853240966796875;-0.11669921875;-0.4419217407703399;1.0691081285476685;0.2475930154323578
1768421550941675000;5.670675048828125;0.05889892578125;-2.0058441162109375;-0.0247039794921875;-0.5439112186431885;0.9084540605545044;0.3086028397083282
1768421550951675000;5.6806748046875;0.142822265625;-1.681121826171875;0.073455810546875;-0.4901878237724304;0.7979933023452759;0.2539680898189544
1768421550961675000;5.690675048828125;0.1565399169921875;-1.3905181884765625;0.127166748046875;-0.3579898476600647;0.8031489253044128;0.1504523605108261
1768421550971676200;5.70067626953125;0.1267242431640625;-1.1524810791015625;0.1180572509765625;-0.1864151507616043;0.9012797474861144;0.075991965830326
1768421550981676000;5.710676025390625;0.072845458984375;-0.9448394775390624;0.061126708984375;0.003067961661145;1.0354455709457395;0.1011455282568931
1768421550991676200;5.72067626953125;0.0236053466796875;-0.774932861328125;-0.019287109375;0.1138690412044525;1.1112287044525146;0.199023887515068
1768421551001676000;5.730676025390625;0.0307159423828125;-0.673309326171875;-0.0859375;0.1083973124623298;1.0869252681732178;0.2684003114700317
1768421551011676200;5.74067626953125;0.07415771484375;-0.590484619140625;-0.0789337158203125;0.0844650864601135;1.0499211549758911;0.2839417159557342
1768421551021676000;5.750676025390625;0.115875244140625;-0.5210113525390625;0.0045013427734375;0.145155593752861;1.0348180532455444;0.2391729056835174
1768421551031676200;5.76067626953125;0.123565673828125;-0.464385986328125;0.1076507568359375;0.2591277062892914;0.9836702346801758;0.1462333798408508
1768421551041677000;5.770677001953125;0.096038818359375;-0.4376220703125;0.1812286376953125;0.3838885426521301;0.9749422669410706;0.0157067906111478
1768421551051677000;5.780677001953125;0.066131591796875;-0.4546356201171875;0.211639404296875;0.4984249770641327;0.9632911682128906;-0.1324307471513748
1768421551061677000;5.790677001953125;0.0575103759765625;-0.4518890380859375;0.21026611328125;0.6197801828384399;0.967897653579712;-0.320758581161499
1768421551071677000;5.800677001953125;0.0396270751953125;-0.4196624755859375;0.11737060546875;0.7203975915908813;0.9446128606796264;-0.5131394863128662
1768421551081677000;5.810677001953125;-0.0397186279296875;-0.38323974609375;0.0350799560546875;0.8265788555145264;0.9833312034606934;-0.6149196028709412
1768421551091677000;5.820677001953125;-0.098480224609375;-0.327423095703125;-0.0182647705078125;0.8935118317604065;0.9950371384620668;-0.6427707076072693
1768421551101677000;5.830677001953125;-0.0806427001953125;-0.256317138671875;-0.0489044189453125;0.8927360773086548;0.9859501719474792;-0.6438152194023132
1768421551111678200;5.84067822265625;-0.0202484130859375;-0.1773834228515625;-0.0577850341796875;0.8319116234779358;1.0071827173233032;-0.61679607629776
1768421551121678000;5.850677978515625;0.101806640625;-0.0912017822265625;-0.0468292236328125;0.7397888898849487;0.9650022983551024;-0.5944066047668457
1768421551131678200;5.86067822265625;0.2167205810546875;-0.017120361328125;0.0003662109375;0.6284684538841248;0.8406481146812439;-0.6109145283699036
1768421551141678000;5.870677978515625;0.2640533447265625;0.02337646484375;0.0701446533203125;0.4910783767700195;0.6623574495315552;-0.6790850162506104
1768421551151678200;5.88067822265625;0.2540283203125;0.012359619140625;0.126251220703125;0.3383437097072601;0.5167392492294312;-0.7093795537948608
1768421551161678000;5.890677978515625;0.27886962890625;-0.0245361328125;0.1115570068359375;0.2253542989492416;0.6616165637969971;-0.5110499858856201
1768421551171678000;5.900677978515625;0.49200439453125;-0.0467529296875;-0.0531158447265625;0.26531583070755;1.1397581100463867;0.0893437266349792
1768421551181679000;5.91067919921875;0.9697723388671876;-0.0560760498046875;-0.1896209716796875;0.4984332323074341;0.4139870703220367;0.8864001631736755
1768421551191679000;5.920678955078125;1.41217041015625;-0.3178253173828125;-0.1627044677734375;0.2937061786651611;-1.4068098068237305;1.237542748451233
1768421551201679000;5.93067919921875;0.4132232666015625;-1.0400848388671875;-0.4183807373046875;-0.5293117761611938;-1.4484416246414185;0.3042709529399872
1768421551211679000;5.940678955078125;-0.529449462890625;-1.659423828125;-0.5720062255859375;-1.245476245880127;-0.4522814452648163;-0.5783347487449646
1768421551221678800;5.950678955078125;-0.5406646728515625;-2.0838165283203125;-0.644378662109375;-1.6062568426132202;0.1959692388772964;-0.4403542280197143
1768421551231679000;5.960678955078125;0.0429534912109375;-2.1015472412109375;-0.3596954345703125;-0.9194217324256896;-0.0115621136501431;-0.1127947270870208
1768421551241678800;5.970678955078125;0.3910675048828125;-1.8612060546875;0.2022857666015625;0.2061401158571243;-0.0119874207302927;0.2377723455429077
1768421551251679000;5.980678955078125;0.3335418701171875;-1.9823455810546875;0.43121337890625;0.9272903203964232;0.40735924243927;0.3823780119419098
1768421551261680000;5.99068017578125;0.3801422119140625;-2.159210205078125;0.4008026123046875;1.128907561302185;0.6484946608543396;0.064941182732582
1768421551271680000;6.000679931640625;0.356170654296875;-2.258087158203125;0.1495208740234375;0.9668118953704834;0.4943716526031494;-0.3866651654243469
1768421551281680100;6.01068017578125;0.3269195556640625;-2.2470245361328125;-0.0183258056640625;0.6343125104904175;-0.1565054506063461;-0.5840250849723816
1768421551291680000;6.020679931640625;0.168121337890625;-2.103240966796875;0.0822906494140625;0.37324920296669;-0.9286503791809082;-0.3938479721546173
1768421551301680000;6.03068017578125;0.013275146484375;-1.9431610107421875;0.2003326416015625;0.2414182126522064;-1.4752546548843384;-0.0389306209981441
1768421551311680000;6.040679931640625;-0.0190582275390625;-1.8303985595703125;0.1623382568359375;0.2658732235431671;-1.571016550064087;0.190409630537033
1768421551321680100;6.05068017578125;-0.0194091796875;-1.7722930908203125;0.0673065185546875;0.4482784569263458;-1.2913529872894287;0.2040010690689087
1768421551331681000;6.060680908203125;0.02923583984375;-1.7679443359375;-0.1066436767578125;0.7071363925933838;-0.9258548617362976;0.0595501475036144
1768421551341681000;6.070680908203125;0.11669921875;-1.6611785888671875;-0.341461181640625;0.8288097977638245;-0.7541525959968567;-0.0831279084086418
1768421551351681000;6.080680908203125;0.089752197265625;-1.3951416015625;-0.566253662109375;0.7386658191680908;-0.7044971585273743;-0.1364268213510513
1768421551361681000;6.090680908203125;-0.029754638671875;-1.1021270751953125;-0.618377685546875;0.5691084861755371;-0.6815119981765747;-0.0195771642029285
1768421551371681000;6.100680908203125;-0.1339569091796875;-0.8659515380859375;-0.5277099609375;0.4299793243408203;-0.6660371422767639;0.212492823600769
1768421551381681000;6.110680908203125;-0.1463165283203125;-0.7000885009765625;-0.4282073974609375;0.2594091892242431;-0.6766163110733032;0.4230724275112152
1768421551391681000;6.120680908203125;-0.095458984375;-0.579498291015625;-0.354461669921875;0.0976128429174423;-0.7891334891319275;0.5606880784034729
1768421551401682000;6.130681884765625;-0.0354156494140625;-0.5207366943359375;-0.2615203857421875;-0.0107354689389467;-0.9355093836784364;0.589367687702179
1768421551411682000;6.14068212890625;0.00286865234375;-0.4973297119140625;-0.1910858154296875;-0.0763150081038475;-1.0711116790771484;0.5375462770462036
1768421551421682200;6.15068212890625;0.025482177734375;-0.46820068359375;-0.1327667236328125;-0.1196401119232177;-1.1547048091888428;0.4716479480266571
1768421551431682000;6.16068212890625;0.02923583984375;-0.43218994140625;-0.081207275390625;-0.1603846102952957;-1.1163630485534668;0.3808591961860657
1768421551441681200;6.17068115234375;0.02752685546875;-0.36627197265625;-0.00762939453125;-0.203848734498024;-0.9959521889686584;0.2704309523105621
1768421551451681000;6.180680908203125;0.0439453125;-0.2845458984375;0.0334625244140625;-0.2663235664367676;-0.8562384843826294;0.1454687863588333
1768421551461681200;6.19068115234375;0.0689849853515625;-0.2133636474609375;0.048797607421875;-0.3326679766178131;-0.7677121162414551;0.0515004768967628
1768421551471682000;6.20068212890625;0.0843963623046875;-0.15057373046875;0.0636444091796875;-0.3714624941349029;-0.7777029275894165;-0.0147605706006288
1768421551481682200;6.21068212890625;0.0421142578125;-0.1144866943359375;0.0888519287109375;-0.3745483160018921;-0.8010149598121643;-0.070950873196125
1768421551491682000;6.22068212890625;0.003814697265625;-0.088897705078125;0.1094512939453125;-0.3094638288021087;-0.736790120601654;-0.1242961212992668
1768421551501682000;6.230681884765625;0.0219268798828125;-0.083953857421875;0.10736083984375;-0.2305437326431274;-0.6173074245452881;-0.1988116353750229
1768421551511682000;6.24068212890625;0.161651611328125;-0.069915771484375;0.1000518798828125;-0.1349623501300811;-0.6823732256889343;-0.3294585943222046
1768421551521682000;6.250681884765625;0.281768798828125;-0.0417327880859375;0.082061767578125;-0.0571945793926715;-0.7921290397644043;-0.4041709005832672
1768421551531682000;6.26068212890625;0.3363037109375;-0.053985595703125;0.0482025146484375;0.0607384480535984;-0.8450828194618225;-0.2863601148128509
1768421551541682000;6.270681884765625;0.4551239013671875;-0.102325439453125;0.006622314453125;0.2450896501541137;-0.8794404864311218;0.1071360409259796
1768421551551683000;6.28068310546875;0.6358795166015625;-0.2332611083984375;-0.035003662109375;0.5455507040023804;-0.9455108642578124;0.5646740198135376
1768421551561683000;6.290682861328125;0.8227996826171875;-0.6616668701171875;-0.0448455810546875;0.9923713207244872;-1.3156121969223022;0.3486570417881012
1768421551571683000;6.30068310546875;0.7035369873046875;-1.50640869140625;0.0097198486328125;1.2727569341659546;-1.2290993928909302;-0.347627729177475
1768421551581683200;6.31068310546875;0.1491851806640625;-1.8804473876953125;0.033935546875;1.0371779203414917;-0.2130022794008255;-0.4404535591602325
1768421551591683000;6.32068310546875;0.3209686279296875;-1.3011932373046875;-0.185333251953125;0.864254891872406;-0.1306096762418747;-0.3983862698078155
1768421551601683200;6.33068310546875;0.6480560302734375;-0.7857666015625;-0.619598388671875;0.7157455682754517;-0.7350659966468811;-0.4015916287899017
1768421551611683000;6.34068310546875;0.4981842041015625;-0.68511962890625;-0.5325469970703125;0.8140958547592163;-0.8977856636047363;-0.5719223618507385
1768421551621684000;6.35068408203125;0.2972259521484375;-0.886383056640625;-0.2602081298828125;0.8674386739730835;-0.7204045057296753;-0.7326340079307556
1768421551631684000;6.36068408203125;0.0762939453125;-1.1077423095703125;-0.307952880859375;0.6610966920852661;-0.2670559287071228;-0.3597240746021271
1768421551641684000;6.37068408203125;0.1130218505859375;-1.18206787109375;-0.3784637451171875;0.5197126865386963;-0.0865018665790557;0.3581733405590057
1768421551651684000;6.38068408203125;0.3332366943359375;-1.3451690673828125;-0.37872314453125;0.4677022099494934;-0.0977891460061073;0.8259495496749878
1768421551661684000;6.39068408203125;0.56610107421875;-1.610992431640625;-0.415191650390625;0.4101302623748779;-0.0679076761007309;0.8940037488937378
1768421551671684000;6.40068408203125;0.6106719970703125;-1.761688232421875;-0.4443359375;0.3321459889411926;9.3210637714e-06;0.9041628837585448
1768421551681684000;6.41068408203125;0.555419921875;-1.818206787109375;-0.432342529296875;0.1963673830032348;-0.1239208802580833;0.8207162022590637
1768421551691684900;6.420684814453125;0.51654052734375;-1.9402313232421875;-0.341644287109375;-0.0231503266841173;-0.2181392610073089;0.6570804119110107
1768421551701685000;6.43068505859375;0.4454345703125;-1.9382171630859375;-0.181732177734375;-0.1877909451723098;-0.1959037333726883;0.5940974354743958
1768421551711684900;6.440684814453125;0.4380340576171875;-1.8008270263671875;-0.0285491943359375;-0.2288249284029007;-0.2551017999649048;0.6278796195983887
1768421551721685200;6.450685302734375;0.4598541259765625;-1.651947021484375;0.0623626708984375;-0.2159964740276336;-0.334355890750885;0.7141700387001038
1768421551731685000;6.46068505859375;0.4212188720703125;-1.4898529052734375;0.0724334716796875;-0.2184359282255172;-0.3750316798686981;0.822191059589386
1768421551741685200;6.470685302734375;0.3613739013671875;-1.3170623779296875;0.030792236328125;-0.2097063511610031;-0.3990126252174377;0.9387200474739076
1768421551751685000;6.48068505859375;0.34326171875;-1.1680145263671875;0.001129150390625;-0.1630333960056305;-0.4324717819690704;0.9987576007843018
1768421551761685200;6.490685302734375;0.3520355224609375;-1.0504150390625;-0.0064849853515625;-0.0749453455209732;-0.4968832731246948;0.977080762386322
1768421551771686100;6.50068603515625;0.339691162109375;-0.9622650146484376;0.0078887939453125;-0.0005616606795229;-0.5515989661216736;0.9515013694763184
1768421551781686000;6.51068603515625;0.2877197265625;-0.9006805419921875;0.045074462890625;0.0770977139472961;-0.5743213295936584;0.9532713294029236
1768421551791686100;6.52068603515625;0.2610015869140625;-0.8381805419921875;0.096038818359375;0.1574727147817611;-0.5733852386474609;0.950777530670166
1768421551801686000;6.53068603515625;0.263763427734375;-0.7875823974609375;0.132354736328125;0.2287498265504837;-0.4722245335578918;0.8747895359992981
1768421551811686100;6.54068603515625;0.261077880859375;-0.7347412109375;0.15130615234375;0.315905749797821;-0.2450329214334488;0.6976557970046997
1768421551821686000;6.55068603515625;0.231048583984375;-0.6574249267578125;0.1183013916015625;0.4757465720176697;0.0590145848691463;0.4757716059684753
1768421551831686100;6.56068603515625;0.1695556640625;-0.5706634521484375;-0.005828857421875;0.6243054270744324;0.325323224067688;0.2818026542663574
1768421551841687000;6.57068701171875;0.068389892578125;-0.4698486328125;-0.200714111328125;0.6821284890174866;0.4336134791374206;0.1660683304071426
1768421551851687000;6.58068701171875;-0.02294921875;-0.321075439453125;-0.3604583740234375;0.6513290405273438;0.3654176592826843;0.1302456259727478
1768421551861687000;6.59068701171875;-0.0818634033203125;-0.144866943359375;-0.4191131591796875;0.529524564743042;0.1910354644060135;0.1708519011735916
1768421551871687200;6.600687255859375;-0.1605987548828125;0.0401763916015625;-0.37890625;0.3468961715698242;0.0961979031562805;0.3395580947399139
1768421551881687000;6.61068701171875;-0.2433624267578125;0.2205810546875;-0.2827301025390625;0.1205581054091453;0.0816059112548828;0.6444165110588074
1768421551891687200;6.620687255859375;-0.2678985595703125;0.3717041015625;-0.14007568359375;-0.0585378780961036;0.071037158370018;1.017719030380249
1768421551901687000;6.63068701171875;-0.1866302490234375;0.4641571044921875;-0.0024566650390625;-0.1456014066934585;0.1039809957146644;1.3245843648910522
1768421551911687200;6.640687255859375;0.0286712646484375;0.4305267333984375;0.065399169921875;-0.094796285033226;0.1696934252977371;1.4673434495925903
1768421551921688000;6.65068798828125;0.286285400390625;0.254608154296875;0.07403564453125;0.0610947795212268;0.3854723274707794;1.4684441089630127
1768421551931688200;6.660688232421875;0.4532928466796875;-0.02386474609375;-0.0363922119140625;0.2026835978031158;0.7758110165596008;1.2163881063461304
1768421551941688000;6.67068798828125;0.5287017822265625;-0.3308563232421875;-0.254547119140625;0.3296428918838501;1.080950140953064;0.7414333820343018
1768421551951688000;6.68068798828125;0.5601959228515625;-0.5753326416015625;-0.4886932373046875;0.3913967907428741;1.0900752544403076;0.3451730906963348
1768421551961688000;6.69068798828125;0.515777587890625;-0.7419586181640625;-0.668975830078125;0.3243248164653778;0.8804532885551453;0.3218581974506378
1768421551971688000;6.70068798828125;0.473907470703125;-0.81475830078125;-0.7001190185546875;0.061963502317667;0.5632787942886353;0.6755222678184509
1768421551981688000;6.71068798828125;0.5164642333984375;-0.6832122802734375;-0.4807586669921875;-0.0684983655810356;0.2800835967063904;1.162166953086853
1768421551991689000;6.72068896484375;0.5854644775390625;-0.4837646484375;-0.1724853515625;-0.0923496410250663;0.1119965761899948;1.602317452430725
1768421552001688800;6.730688720703125;0.562713623046875;-0.58538818359375;-0.0564117431640625;-0.1465244591236114;0.0994056835770607;1.9077540636062624
1768421552011689000;6.74068896484375;0.5171661376953125;-0.8426361083984375;-0.0049896240234375;-0.110094279050827;0.1982305347919464;1.9500595331192017
1768421552021688800;6.750688720703125;0.548095703125;-1.100433349609375;-0.075653076171875;0.1557235568761825;0.3205958604812622;1.7564860582351685
1768421552031689200;6.760689208984375;0.59600830078125;-1.26593017578125;-0.2512664794921875;0.521084725856781;0.4588695764541626;1.527594804763794
1768421552041689000;6.770689208984375;0.6326446533203125;-1.3459014892578125;-0.4749298095703125;0.6691889762878418;0.4675288498401642;1.3521076440811155
1768421552051689200;6.780689208984375;0.5783538818359375;-1.344268798828125;-0.640838623046875;0.5738920569419861;0.4198364317417145;1.304497480392456
1768421552061690000;6.790690185546875;0.4705963134765625;-1.3277587890625;-0.6933441162109375;0.3858659267425537;0.4931899905204773;1.3540823459625244
1768421552071690000;6.80068994140625;0.3979034423828125;-1.334442138671875;-0.6620635986328125;0.2668338119983673;0.667604923248291;1.4398598670959473
1768421552081690000;6.810690185546875;0.36688232421875;-1.2646331787109375;-0.5214996337890625;0.3214645683765411;0.8454487323760986;1.561208963394165
1768421552091690000;6.82068994140625;0.388916015625;-1.1287384033203125;-0.358062744140625;0.4293942451477051;1.0134955644607544;1.686141848564148
1768421552101690000;6.830690185546875;0.357269287109375;-1.049041748046875;-0.2670135498046875;0.5223875641822815;1.1939427852630615;1.846859574317932
1768421552111690000;6.84068994140625;0.345489501953125;-1.0117950439453125;-0.183837890625;0.618515133857727;1.3515914678573608;1.9193774461746216
1768421552121690000;6.850690185546875;0.409942626953125;-0.9917449951171876;-0.1348114013671875;0.6969963908195496;1.4144532680511477;1.852006196975708
1768421552131690000;6.86068994140625;0.421539306640625;-0.986907958984375;-0.1302947998046875;0.7161823511123657;1.472312569618225;1.6972697973251345
1768421552141691000;6.87069091796875;0.403472900390625;-0.9508819580078124;-0.1431732177734375;0.6823647022247314;1.5493509769439695;1.5755140781402588
1768421552151691000;6.88069091796875;0.313934326171875;-0.87152099609375;-0.197906494140625;0.6510211825370789;1.5840346813201904;1.6731195449829102
1768421552161691000;6.89069091796875;0.249267578125;-0.7570037841796875;-0.2250213623046875;0.6520512700080872;1.551364541053772;1.943751573562622
1768421552171691000;6.90069091796875;0.3104400634765625;-0.67974853515625;-0.203216552734375;0.7254467010498047;1.496524453163147;2.11791729927063
1768421552181691100;6.910691162109375;0.50067138671875;-0.651947021484375;-0.156341552734375;0.8254856467247009;1.371801733970642;1.9725635051727295
1768421552191691300;6.920691162109375;0.537200927734375;-0.63409423828125;-0.1251678466796875;0.9360209703445436;1.3035571575164795;1.803532361984253
1768421552201691100;6.930691162109375;0.3594818115234375;-0.603759765625;-0.07373046875;1.096243381500244;1.3128234148025513;1.8358210325241089
1768421552211692000;6.940692138671875;0.231170654296875;-0.5797576904296875;-0.0900726318359375;1.198023796081543;1.2166420221328735;1.979560375213623
1768421552221692200;6.950692138671875;0.15545654296875;-0.569549560546875;-0.211456298828125;1.1902167797088623;0.970950961112976;2.2069573402404785
1768421552231692000;6.960692138671875;0.0766448974609375;-0.541717529296875;-0.2563323974609375;1.126139760017395;0.7385081648826599;2.509755849838257
1768421552241692200;6.970692138671875;0.090667724609375;-0.504791259765625;-0.2545013427734375;1.1029396057128906;0.5105569958686829;2.745683431625366
1768421552251692000;6.980692138671875;0.2542877197265625;-0.50408935546875;-0.1820526123046875;1.1048121452331543;0.2016945034265518;2.7685799598693848
1768421552261692200;6.990692138671875;0.4456329345703125;-0.5550537109375;-0.111907958984375;1.1140564680099487;-0.1667109578847885;2.696967840194702
1768421552271692000;7.000692138671875;0.4994354248046875;-0.591644287109375;-0.08441162109375;1.1287339925765991;-0.4376015663146972;2.6680665016174316
1768421552281692000;7.01069189453125;0.4162445068359375;-0.5665130615234375;-0.1031951904296875;1.192341685295105;-0.6630706191062927;2.73655104637146
1768421552291693000;7.020693115234375;0.209320068359375;-0.4560546875;-0.058685302734375;1.3006939888000488;-0.8413876295089722;2.9359748363494873
1768421552301693000;7.03069287109375;-0.0714111328125;-0.269561767578125;-0.0462646484375;1.3617349863052368;-0.8465778827667236;3.1958415508270264
1768421552311693000;7.040693115234375;-0.22161865234375;-0.1299285888671875;-0.084686279296875;1.307468295097351;-0.8972445130348206;3.349116802215576
1768421552321693000;7.05069287109375;-0.0394439697265625;-0.1175384521484375;-0.133087158203125;1.1721863746643066;-1.132417917251587;3.2440500259399414
1768421552331693000;7.060693115234375;0.104522705078125;-0.2133331298828125;-0.1688232421875;0.9779108762741088;-1.4520443677902222;3.1772263050079346
1768421552341693200;7.070693115234375;0.2412261962890625;-0.2899932861328125;-0.2089691162109375;0.723119854927063;-1.7382742166519165;3.1748688220977783
1768421552351693000;7.080693115234375;0.6019744873046875;-0.292816162109375;-0.2763214111328125;0.5254136919975281;-1.8342514038085935;2.9678802490234375
1768421552361693200;7.090693115234375;0.7548828125;-0.14178466796875;-0.2269134521484375;0.5639054775238037;-1.7373675107955933;2.567744493484497
1768421552371694000;7.100694091796875;0.718475341796875;0.1373443603515625;-0.1938934326171875;0.6437736749649048;-1.7795144319534302;2.153947114944458
1768421552381694000;7.11069384765625;0.6978759765625;0.37158203125;-0.2194671630859375;0.7242929935455322;-1.9683423042297363;1.862634539604187
1768421552391694000;7.120694091796875;0.6102142333984375;0.5175933837890625;-0.138885498046875;0.7973632216453552;-1.8659204244613647;1.756603717803955
1768421552401694000;7.13069384765625;0.42218017578125;0.48004150390625;-0.2446441650390625;0.6530731320381165;-0.7527291774749756;1.7581065893173218
1768421552411694000;7.140694091796875;0.3983612060546875;0.281005859375;-0.662872314453125;0.3329159021377563;0.7048321962356567;1.611112356185913
1768421552421694000;7.15069384765625;0.98260498046875;0.140045166015625;-0.955474853515625;0.1621875762939453;2.645531415939331;1.4147241115570068
1768421552431694000;7.160694091796875;1.296966552734375;0.0866851806640625;-1.309173583984375;0.2430171817541122;5.065530300140381;1.4329696893692017
1768421552441695700;7.17069580078125;1.194122314453125;0.08740234375;-1.7682342529296875;0.6812640428543091;6.828344821929932;1.5300792455673218
1768421552451695900;7.18069580078125;1.18511962890625;0.1295928955078125;-2.000030517578125;1.0892075300216677;7.273115158081055;1.4383759498596191
1768421552461696000;7.190696044921875;1.2215728759765625;0.17999267578125;-1.9850921630859375;0.8897448182106018;7.255241394042969;1.5169527530670166
1768421552471696000;7.20069580078125;1.4136962890625;0.31768798828125;-1.740325927734375;0.4666239023208618;6.964421272277832;1.6370136737823486
1768421552481696000;7.210696044921875;1.8820648193359375;0.4361114501953125;-1.286163330078125;0.266774445772171;6.556521415710449;1.501686453819275
1768421552491695900;7.22069580078125;2.2460784912109375;0.5926361083984375;-0.8697509765625;0.3576651811599731;6.539300441741943;1.240012764930725
1768421552501695700;7.23069580078125;2.38494873046875;0.5374755859375;-0.6435089111328125;0.460410475730896;6.139462947845459;1.0838232040405271
1768421552511696000;7.24069580078125;2.303192138671875;0.4706878662109375;-0.3627777099609375;0.7427005171775818;5.090925216674805;1.1366733312606812
1768421552521696800;7.25069677734375;1.830780029296875;0.5970611572265625;0.0048675537109375;1.0170271396636963;3.889657497406006;1.393784761428833
1768421552531697000;7.26069677734375;1.1924285888671875;0.8134918212890625;-0.086395263671875;0.8947933316230774;3.257995367050171;1.7041945457458496
1768421552541696800;7.27069677734375;0.3856353759765625;1.2366180419921875;-0.627838134765625;0.4309055805206299;2.4247825145721436;2.0628442764282227
1768421552551697000;7.28069677734375;-0.0838470458984375;1.4391021728515625;-1.4135589599609375;0.1687951385974884;2.253715991973877;2.01021146774292
1768421552561696800;7.29069677734375;0.3826446533203125;1.4931488037109375;-1.89495849609375;1.0782201290130615;2.639911651611328;1.774935603141785
1768421552571696600;7.300696533203125;0.861175537109375;1.4158172607421875;-2.17083740234375;2.157632827758789;3.444323778152466;1.3262358903884888
1768421552581696800;7.31069677734375;0.7075042724609375;0.7151031494140625;-2.71551513671875;2.3204522132873535;2.9828109741210938;1.2216644287109375
1768421552591697700;7.32069775390625;0.7192230224609375;-0.2150726318359375;-2.9046630859375;1.6154534816741943;2.2813072204589844;1.188093900680542
1768421552601698000;7.330697998046875;0.9534149169921876;-0.68670654296875;-2.9041595458984375;0.6488800048828125;1.1106665134429932;0.5831688642501831
1768421552611698000;7.340697998046875;1.2257080078125;-0.4727325439453125;-2.313690185546875;-0.1468786597251892;-0.8420901894569397;-0.3302996158599853
1768421552621697800;7.35069775390625;1.045745849609375;0.310272216796875;-1.4541168212890625;-0.394096702337265;-2.2374491691589355;-0.6292261481285095
1768421552631698000;7.360697998046875;0.0469207763671875;1.156524658203125;-0.952667236328125;-0.3479622304439544;-2.2902045249938965;-0.1695277839899063
1768421552641697800;7.37069775390625;-0.554229736328125;1.5797271728515625;-0.9180755615234376;-0.0769219473004341;-2.018838882446289;0.0806463733315467
1768421552651698000;7.380697998046875;0.1348724365234375;1.6431427001953125;-0.7822265625;0.3230776488780975;-2.233555316925049;-0.1470802575349807
1768421552661697800;7.39069775390625;0.48297119140625;1.339691162109375;-0.6652374267578125;0.5308979749679565;-2.4043121337890625;-0.244194820523262
1768421552671698700;7.40069873046875;0.404022216796875;0.8532562255859375;-0.5487518310546875;0.6304045915603638;-2.7263715267181396;-0.1699312478303909
1768421552681698800;7.41069873046875;0.430999755859375;0.505401611328125;-0.4102325439453125;0.7015045881271362;-3.0849204063415527;-0.0628103911876678
1768421552691698700;7.42069873046875;0.354339599609375;0.2751617431640625;-0.36114501953125;0.8066675066947937;-2.947542190551758;-0.0710310339927673
1768421552701698800;7.43069873046875;0.35595703125;0.0976715087890625;-0.4299774169921875;0.9584349393844604;-2.8229668140411377;-0.1876492649316787
1768421552711698700;7.44069873046875;0.366424560546875;0.0576019287109375;-0.4959564208984375;1.0827083587646484;-2.7736198902130127;-0.2440949529409408
1768421552721698800;7.45069873046875;0.282196044921875;0.0634918212890625;-0.6496429443359375;1.0592012405395508;-2.8683199882507324;-0.1833919286727905
1768421552731698700;7.46069873046875;0.169586181640625;0.1115875244140625;-0.839385986328125;0.9216902256011964;-2.9661331176757812;-0.055933840572834
1768421552741698800;7.47069873046875;0.0911712646484375;0.222869873046875;-0.90240478515625;0.8313534259796143;-2.964104413986206;0.0952575430274009
1768421552751700000;7.480699951171875;0.0321807861328125;0.3498992919921875;-0.85821533203125;0.7545891404151917;-2.763455629348755;0.1919752955436706
1768421552761699800;7.490699951171875;0.014678955078125;0.3877105712890625;-0.8140106201171875;0.7682023644447327;-2.7087392807006836;0.2713934183120727
1768421552771700000;7.500699951171875;0.0451812744140625;0.437744140625;-0.6610260009765625;0.8734920620918274;-2.541506767272949;0.3407714366912842
1768421552781699800;7.510699951171875;0.1165008544921875;0.4052276611328125;-0.5727996826171875;1.0169730186462402;-2.3447391986846924;0.3655849099159241
1768421552791700000;7.520699951171875;0.3061981201171875;0.3431243896484375;-0.57464599609375;0.9994339942932128;-2.1970901489257812;0.3100593388080597
1768421552801699800;7.530699951171875;0.5009918212890625;0.362091064453125;-0.6978302001953125;0.8770601749420166;-1.9721970558166504;0.1689767688512802
1768421552811700000;7.540699951171875;0.668609619140625;0.52557373046875;-0.7552337646484375;0.793506920337677;-1.7563300132751465;0.0177379846572875
1768421552821699800;7.550699951171875;0.7188873291015625;0.65301513671875;-0.831787109375;0.6223530173301697;-1.6686959266662598;-0.0649678111076355
1768421552831700700;7.56070068359375;0.757904052734375;0.7089080810546875;-0.8736114501953125;0.4259518384933471;-1.7175966501235962;-0.1230931654572486
1768421552841700900;7.570700927734375;0.8388519287109375;0.661041259765625;-0.878875732421875;0.1524694263935089;-1.701236367225647;-0.2287085503339767
1768421552851700700;7.58070068359375;0.8873443603515625;0.535003662109375;-0.8309173583984375;-0.0385742895305156;-1.61995267868042;-0.342425525188446
1768421552861700900;7.590700927734375;0.9043426513671876;0.5228118896484375;-0.661163330078125;-0.0351840853691101;-1.6036170721054075;-0.3927182555198669
1768421552871700700;7.60070068359375;0.878387451171875;0.6856842041015625;-0.5687103271484375;0.0846696123480796;-1.6470074653625488;-0.4079456627368927
1768421552881700900;7.610700927734375;0.9329071044921876;0.7940216064453125;-0.6698760986328125;0.1066028773784637;-1.688834309577942;-0.4404468834400177
1768421552891700700;7.62070068359375;0.9157867431640624;0.722869873046875;-0.8176727294921875;-0.0163757782429456;-1.6494005918502808;-0.4227485954761505
1768421552901700600;7.63070068359375;0.8879241943359375;0.6511993408203125;-0.793792724609375;-0.10233835875988;-1.4801527261734009;-0.4008129239082336
1768421552911702000;7.640701904296875;0.887420654296875;0.598724365234375;-0.749053955078125;-0.1540146023035049;-1.244550347328186;-0.3757984042167663
1768421552921702000;7.650701904296875;0.8574676513671875;0.6021881103515625;-0.7091522216796875;-0.1704598814249038;-1.011823296546936;-0.3085311949253082
1768421552931702000;7.660701904296875;0.8091583251953125;0.6463775634765625;-0.68609619140625;-0.1813511550426483;-0.7910690903663635;-0.2210977673530578
1768421552941702000;7.670701904296875;0.7950286865234375;0.6570281982421875;-0.6542205810546875;-0.187088668346405;-0.6121765971183777;-0.1370196342468261
1768421552951701800;7.68070166015625;0.78729248046875;0.6364593505859375;-0.6072998046875;-0.1672193557024002;-0.4607140719890594;-0.0671095252037048
1768421552961702000;7.690701904296875;0.76416015625;0.6131744384765625;-0.5573883056640625;-0.1386087387800216;-0.3309510350227356;-0.0089322421699762
1768421552971701800;7.70070166015625;0.7240142822265625;0.603179931640625;-0.5157318115234375;-0.1043296009302139;-0.2044631242752075;0.0530706755816936
1768421552981703000;7.710702880859375;0.6988677978515625;0.603851318359375;-0.4956207275390625;-0.074144534766674;-0.1123097613453865;0.1135143116116523
1768421552991702800;7.720702880859375;0.6879119873046875;0.59222412109375;-0.47454833984375;-0.0435655862092971;-0.0418933890759944;0.1658720523118972
1768421553001703000;7.730702880859375;0.68548583984375;0.5782928466796875;-0.4637451171875;-0.0179244056344032;0.0091660674661397;0.1956390142440796
1768421553011702800;7.740702880859375;0.692047119140625;0.567535400390625;-0.461822509765625;-0.0035934031475335;0.0486242622137069;0.2138105481863021
1768421553021702700;7.75070263671875;0.6770782470703125;0.5534515380859375;-0.4769744873046875;-0.0133706666529178;0.0988876968622207;0.2621786296367645
1768421553031702800;7.760702880859375;0.6913299560546875;0.5375823974609375;-0.47216796875;0.0056075518950819;0.0593211129307746;0.2414637506008148
1768421553041702700;7.77070263671875;0.742279052734375;0.5057220458984375;-0.4625244140625;0.0057532270438969;0.0667870193719863;0.2242232412099838
1768421553051702800;7.780702880859375;0.7350921630859375;0.503204345703125;-0.4753265380859375;0.0239572636783123;0.0016892430139705;0.1617148667573928
1768421553061704000;7.790703857421875;0.7451934814453125;0.5005035400390625;-0.47747802734375;0.0285999532788991;-0.0413892529904842;0.1303606629371643
1768421553071703800;7.800703857421875;0.717681884765625;0.50311279296875;-0.491790771484375;0.0292907766997814;-0.095740906894207;0.1150925010442733
1768421553081704000;7.810703857421875;0.718963623046875;0.501953125;-0.4943695068359375;0.0289019551128149;-0.1531677097082138;0.0971774160861969
1768421553091703800;7.820703857421875;0.7209320068359375;0.499237060546875;-0.5001678466796875;0.0215108841657638;-0.1924368292093277;0.0900910124182701
1768421553101704000;7.830703857421875;0.6713409423828125;0.4973907470703125;-0.5252227783203125;0.0110742226243019;-0.2749111950397491;0.1226404309272766
1768421553111703800;7.840703857421875;0.7563934326171875;0.47491455078125;-0.483612060546875;0.0156828220933675;-0.3322114944458008;0.064401626586914
1768421553121704000;7.850703857421875;0.7664031982421875;0.4380340576171875;-0.48974609375;0.0058472366072237;-0.3856134712696075;0.0285450927913188
1768421553131703800;7.860703857421875;0.737396240234375;0.421295166015625;-0.50579833984375;-0.0171752590686082;-0.4662449359893799;0.0191079135984182
1768421553141704700;7.87070458984375;0.778900146484375;0.3773040771484375;-0.49017333984375;-0.038312766700983;-0.5609487891197205;-0.0218784008175134
1768421553151704800;7.880704833984375;0.8150482177734375;0.325531005859375;-0.4808349609375;-0.054877895861864;-0.6261197924613953;-0.0834613367915153
1768421553161704700;7.89070458984375;0.8294219970703125;0.3070068359375;-0.4710845947265625;-0.0556190535426139;-0.6924303770065308;-0.1498432904481887
1768421553171704800;7.900704833984375;0.8399505615234375;0.30810546875;-0.464447021484375;-0.054514106363058;-0.7367666959762573;-0.1976142674684524
1768421553181704700;7.91070458984375;0.821441650390625;0.3076324462890625;-0.460540771484375;-0.0525641404092311;-0.7822002172470093;-0.2212341129779815
1768421553191704800;7.920704833984375;0.8107452392578125;0.301788330078125;-0.4501495361328125;-0.0541135668754577;-0.8344423770904541;-0.2244080752134323
1768421553201704700;7.93070458984375;0.8111114501953125;0.29119873046875;-0.438140869140625;-0.0500810109078884;-0.873673677444458;-0.2298387885093689
1768421553211704800;7.940704833984375;0.7975006103515625;0.2893524169921875;-0.436614990234375;-0.0596779771149158;-0.8615136742591858;-0.1923175156116485
1768421553221706000;7.9507060546875;0.852264404296875;0.286102294921875;-0.4214324951171875;-0.0420691557228565;-0.9446735382080078;-0.2434667199850082
1768421553231705900;7.960705810546875;0.87615966796875;0.272308349609375;-0.41485595703125;-0.0354456081986427;-0.9418258666992188;-0.2582246363162994
1768421553241706000;7.9707060546875;0.8634796142578125;0.2812042236328125;-0.41827392578125;-0.0332445055246353;-0.9322198033332824;-0.2537238895893097
1768421553251705900;7.980705810546875;0.875213623046875;0.2844085693359375;-0.4059906005859375;-0.0270758252590894;-0.919706165790558;-0.2449727356433868
1768421553261706000;7.9907060546875;0.874786376953125;0.277496337890625;-0.3956451416015625;-0.020023776218295;-0.9024131894111632;-0.2368937730789184
1768421553271705900;8.000705810546876;0.8724822998046875;0.2745819091796875;-0.384490966796875;-0.0150180980563163;-0.8840197920799255;-0.2267207652330398
1768421553281706000;8.0107060546875;0.871368408203125;0.27423095703125;-0.3778076171875;-0.0122108599171042;-0.8655619621276855;-0.2163349688053131
1768421553291705900;8.020705810546875;0.8791046142578125;0.2794342041015625;-0.3707427978515625;-0.0037907434161752;-0.8445656299591064;-0.2062192112207412
1768421553301706800;8.030706787109375;0.8868865966796875;0.2778778076171875;-0.3653411865234375;0.0039465385489165;-0.8141403198242188;-0.1972182691097259
1768421553311707000;8.040706787109375;0.8928680419921875;0.2711639404296875;-0.358551025390625;0.0107019124552607;-0.7743292450904846;-0.1844494640827179
1768421553321706800;8.050706787109375;0.905181884765625;0.2720947265625;-0.3537750244140625;0.0169185288250446;-0.725055992603302;-0.170818880200386
1768421553331707000;8.060706787109375;0.9189910888671876;0.265594482421875;-0.3521881103515625;0.0213135443627834;-0.667071521282196;-0.1559880077838897
1768421553341706800;8.070706787109375;0.932098388671875;0.261962890625;-0.352325439453125;0.0246323756873607;-0.589216411113739;-0.1355927139520645
1768421553351706600;8.08070654296875;0.9419403076171876;0.257598876953125;-0.3475341796875;0.0272926073521375;-0.5059428215026855;-0.1101217120885849
1768421553361706800;8.090706787109376;0.950897216796875;0.2617340087890625;-0.3447418212890625;0.0299536380916833;-0.4263100326061249;-0.0892236158251762
1768421553371706600;8.10070654296875;0.95574951171875;0.2616119384765625;-0.343719482421875;0.0323044098913669;-0.3616514205932617;-0.0640205293893814
1768421553381708000;8.1107080078125;0.9569854736328124;0.2617645263671875;-0.340850830078125;0.0348112434148788;-0.3084041774272918;-0.043135218322277
1768421553391708000;8.1207080078125;0.9551849365234376;0.266326904296875;-0.336151123046875;0.0397114604711532;-0.2621794044971466;-0.0217527002096176
1768421553401707800;8.130707763671875;0.953887939453125;0.269927978515625;-0.335601806640625;0.0389913395047187;-0.2179792076349258;-0.0022399846930056
1768421553411708000;8.1407080078125;0.9535980224609376;0.2730560302734375;-0.33282470703125;0.0371423102915287;-0.1765864938497543;0.0158013328909873
1768421553421707800;8.150707763671875;0.9499969482421876;0.2760467529296875;-0.33282470703125;0.0328852459788322;-0.1316142231225967;0.0268419999629259
1768421553431708000;8.1607080078125;0.9483489990234376;0.277801513671875;-0.330810546875;0.0285043455660343;-0.0910074040293693;0.0325443595647811
1768421553441707000;8.17070703125;0.943359375;0.2767333984375;-0.32769775390625;0.0236637834459543;-0.0570760704576969;0.0309528559446334
1768421553451707100;8.18070703125;0.931671142578125;0.27667236328125;-0.3254852294921875;0.0220139548182487;-0.0273932740092277;0.0353428088128566
1768421553461708000;8.1907080078125;0.9228668212890624;0.274627685546875;-0.3210906982421875;0.0211750604212284;0.0021473066881299;0.0394693799316883
1768421553471708200;8.200708251953126;0.917236328125;0.27392578125;-0.318756103515625;0.0230216961354017;0.0232975985854864;0.0419953875243663
1768421553481708000;8.2107080078125;0.913909912109375;0.272613525390625;-0.3187103271484375;0.0217601563781499;0.0333259999752044;0.0396273024380207
1768421553491708200;8.220708251953125;0.90899658203125;0.2745513916015625;-0.3155517578125;0.0186772812157869;0.0349787548184394;0.0357273705303669
1768421553501708000;8.2307080078125;0.900390625;0.27423095703125;-0.3132476806640625;0.0178732722997665;0.0265538468956947;0.031863123178482
1768421553511708000;8.2407080078125;0.8958282470703125;0.276275634765625;-0.3089752197265625;0.017102288082242;0.0139666823670268;0.0256116203963756
1768421553521708300;8.250708251953125;0.89031982421875;0.274688720703125;-0.30816650390625;0.0130169987678527;-0.0046839676797389;0.0115898102521896
1768421553531708200;8.260708251953124;0.889068603515625;0.275146484375;-0.3076934814453125;0.0094797881320118;-0.0244163926690816;0.0004327636852394
1768421553541709300;8.270709228515624;0.890960693359375;0.27886962890625;-0.306488037109375;0.0073774890042841;-0.0460156947374343;-0.0119946114718914
1768421553551709200;8.280709228515626;0.8921356201171875;0.27850341796875;-0.3075408935546875;0.0030368026345968;-0.0695316717028617;-0.0266478564590215
1768421553561709000;8.290708984375;0.893707275390625;0.2788848876953125;-0.3070526123046875;0.0010932276491075;-0.0925581604242324;-0.0365524180233478
1768421553571709200;8.300709228515625;0.8959197998046875;0.2784576416015625;-0.3069610595703125;-0.0024684839881956;-0.114255204796791;-0.0432076565921306
1768421553581709000;8.310708984375;0.9019012451171876;0.279541015625;-0.3077545166015625;-0.0044932854361832;-0.1329218298196792;-0.0501832738518714
1768421553591709200;8.320709228515625;0.903228759765625;0.27978515625;-0.30816650390625;-0.0040663806721568;-0.1453462690114975;-0.053294114768505
1768421553601709000;8.330708984375;0.90521240234375;0.278289794921875;-0.3086090087890625;-0.0053833136335015;-0.1591449081897735;-0.0574310682713985
1768421553611709200;8.340709228515625;0.908599853515625;0.277984619140625;-0.3091278076171875;-0.0087884319946169;-0.1631279438734054;-0.0597211197018623
1768421553621710000;8.3507099609375;0.9125518798828124;0.27667236328125;-0.3092803955078125;-0.0103327985852956;-0.159048244357109;-0.0598257817327976
1768421553631710000;8.3607099609375;0.916748046875;0.275482177734375;-0.3093719482421875;-0.0115064540877938;-0.1506683379411697;-0.060544304549694
1768421553641710000;8.3707099609375;0.918365478515625;0.2741851806640625;-0.30816650390625;-0.0133269904181361;-0.1394481807947158;-0.0569634176790714
1768421553651710000;8.3807099609375;0.9195404052734376;0.273956298828125;-0.30816650390625;-0.0135067543014884;-0.1251909434795379;-0.0505928695201873
1768421553661710000;8.3907099609375;0.922119140625;0.2723388671875;-0.3077850341796875;-0.0155861498787999;-0.1060484051704406;-0.0426691658794879
1768421553671710200;8.400710205078125;0.9298553466796876;0.2730255126953125;-0.3055877685546875;-0.0170381050556898;-0.0859247595071792;-0.039741288870573
1768421553681710300;8.41071044921875;0.9382781982421876;0.274383544921875;-0.308258056640625;-0.0188221577554941;-0.0625640451908111;-0.0392395481467247
1768421553691710200;8.420710205078125;0.9356231689453124;0.2734832763671875;-0.3072509765625;-0.0188900679349899;-0.0471211746335029;-0.0332343876361846
1768421553701711000;8.430711181640625;0.9305572509765624;0.2694549560546875;-0.3042144775390625;-0.0149690955877304;-0.0332181416451931;-0.0242582019418478
1768421553711711200;8.440711181640625;0.927093505859375;0.267486572265625;-0.303497314453125;-0.0133688021451234;-0.0220786705613136;-0.0172165371477603
1768421553721711000;8.450711181640624;0.9302978515625;0.2704010009765625;-0.2970428466796875;-0.0136644132435321;-0.0193744972348213;-0.015657790005207
1768421553731711200;8.460711181640624;0.9225921630859376;0.2634429931640625;-0.309051513671875;-0.0123690515756607;-0.0044264402240514;-0.0155134461820125
1768421553741711000;8.470711181640626;0.91619873046875;0.26318359375;-0.298248291015625;-0.0111567806452512;0.0031039142049849;-0.0170466285198926
1768421553751711200;8.480711181640626;0.9153594970703124;0.262664794921875;-0.2987213134765625;-0.0095764612779021;-0.0043723778799176;-0.0233916081488132
1768421553761711000;8.490711181640625;0.9126434326171876;0.2649383544921875;-0.29901123046875;-0.0065697520039975;-0.0205550752580165;-0.0146734844893217
1768421553771711200;8.500711181640625;0.90789794921875;0.264556884765625;-0.2964324951171875;-0.0019478360190987;-0.0297094266861677;-0.0071180970408022
1768421553781712100;8.510712158203125;0.9055023193359376;0.2618408203125;-0.295867919921875;0.0004514057945925;-0.0339883267879486;-0.000348874105839
1768421553791712000;8.5207119140625;0.9084625244140624;0.2639312744140625;-0.2957000732421875;0.0032128375023603;-0.0313238352537155;0.0002261023764731
1768421553801712000;8.530712158203125;0.908599853515625;0.2642059326171875;-0.2948455810546875;0.0009153284481726;-0.0271123107522726;-0.0023928501177579
1768421553811712000;8.5407119140625;0.910369873046875;0.2660675048828125;-0.2951812744140625;0.0005728459218516;-0.0262478496879339;-0.0100406501442193
1768421553821712100;8.550712158203124;0.9125518798828124;0.2678375244140625;-0.294677734375;0.0020668793004006;-0.0312487334012985;-0.0147563088685274
1768421553831712300;8.560712158203126;0.913787841796875;0.2686614990234375;-0.2949676513671875;0.0034274882636964;-0.0408531576395034;-0.0175808575004339
1768421553841712000;8.570712158203126;0.9157257080078124;0.2688446044921875;-0.2947540283203125;0.004220045171678;-0.0496186837553978;-0.0185036435723304
1768421553851712300;8.580712158203125;0.9178009033203124;0.2703094482421875;-0.2955169677734375;0.0045260423794388;-0.0566377118229866;-0.0190943330526351
1768421553861713200;8.590713134765625;0.9193572998046876;0.270355224609375;-0.295074462890625;0.0033510555513203;-0.0579461231827735;-0.0201292373239994
1768421553871713300;8.60071337890625;0.91973876953125;0.27008056640625;-0.2953948974609375;0.0049425605684518;-0.0566888451576232;-0.0190131049603223
1768421553881713200;8.610713134765625;0.9227294921875;0.27093505859375;-0.2941741943359375;0.0036618465092033;-0.0550691112875938;-0.0185361336916685
1768421553891713000;8.620713134765625;0.924102783203125;0.271514892578125;-0.29547119140625;0.0039766319096088;-0.0538472533226013;-0.0194993987679481
1768421553901713200;8.630713134765625;0.925811767578125;0.2705078125;-0.2948150634765625;0.0031774174422025;-0.0491683445870876;-0.0218552313745021
1768421553911713000;8.640713134765624;0.9232177734375;0.2717132568359375;-0.2945556640625;0.0031686290167272;-0.0434172488749027;-0.0209092758595943
1768421553921713200;8.650713134765626;0.92242431640625;0.270294189453125;-0.2931060791015625;0.0019321233266964;-0.0399351641535759;-0.0227327421307563
1768421553931713000;8.660713134765626;0.923248291015625;0.2689056396484375;-0.293182373046875;0.0001507349224993;-0.0363904982805252;-0.0224565733224153
1768421553941713200;8.670713134765625;0.923797607421875;0.2682952880859375;-0.2924041748046875;0.0004679173871409;-0.0344783477485179;-0.0224501807242631
1768421553951714000;8.680714111328125;0.9229278564453124;0.269317626953125;-0.2926025390625;-0.0009265137487091;-0.0317147858440876;-0.0226155631244182
1768421553961714000;8.6907138671875;0.9216461181640624;0.2681427001953125;-0.2927398681640625;-0.0021576930303126;-0.0253857839852571;-0.0208456274121999
1768421553971714300;8.70071435546875;0.9191131591796876;0.2662811279296875;-0.2896881103515625;-0.000867391587235;-0.0212283227592706;-0.018470088019967
1768421553981714200;8.710714111328125;0.9192047119140624;0.26580810546875;-0.2896575927734375;-0.0032935312483459;-0.0186905972659587;-0.018174210563302
1768421553991714300;8.72071435546875;0.9196624755859376;0.265350341796875;-0.2882537841796875;-0.0028447885997593;-0.015532087534666;-0.0171675346791744
1768421554001714200;8.730714111328124;0.918670654296875;0.2656707763671875;-0.2884979248046875;-0.0040504015050828;-0.0110571784898638;-0.0147965224459767
1768421554011714300;8.74071435546875;0.9187469482421876;0.26373291015625;-0.288177490234375;-0.0050541469827294;-0.0096731334924697;-0.0134593499824404
1768421554021714200;8.750714111328126;0.917144775390625;0.2643280029296875;-0.2892303466796875;-0.0033846113365143;-0.0117756994441151;-0.0126492157578468
1768421554031715000;8.760715087890626;0.9151458740234376;0.263916015625;-0.28729248046875;-0.0053521548397839;-0.0146559076383709;-0.0103700831532478
1768421554041715200;8.770715087890625;0.9177398681640624;0.26409912109375;-0.28887939453125;-0.0042421491816639;-0.0162894912064075;-0.0100507698953151
1768421554051715000;8.780715087890625;0.920166015625;0.2644195556640625;-0.2884063720703125;-0.0035284222103655;-0.0191313493996858;-0.0089223887771368
1768421554061715200;8.790715087890625;0.9219970703125;0.264373779296875;-0.287689208984375;-0.0049617355689406;-0.0172250587493181;-0.0081119881942868
1768421554071715000;8.800715087890625;0.9232635498046876;0.265380859375;-0.289031982421875;-0.0036045885644853;-0.0163206495344638;-0.0103964479640126
1768421554081715200;8.810715087890625;0.92486572265625;0.2650299072265625;-0.2891845703125;-0.0047830371186137;-0.0167097374796867;-0.0139099564403295
1768421554091715000;8.820715087890624;0.9253387451171876;0.2659149169921875;-0.288299560546875;-0.0021984395571053;-0.0164173226803541;-0.0141770718619227
1768421554101715200;8.830715087890624;0.9247589111328124;0.2657623291015625;-0.289215087890625;-0.0037337518297135;-0.0174631457775831;-0.0123322997242212
1768421554111716000;8.840716064453124;0.923614501953125;0.26385498046875;-0.2885284423828125;-0.0021614215802401;-0.0173118785023689;-0.010056628845632
1768421554121716000;8.850716064453126;0.9230194091796876;0.2645721435546875;-0.287811279296875;-0.0023619574494659;-0.0175771284848451;-0.0110246874392032
1768421554131716400;8.86071630859375;0.922576904296875;0.2650604248046875;-0.2884063720703125;-0.0017233315156772;-0.01804930716753;-0.0123333651572465
1768421554141716200;8.87071630859375;0.92340087890625;0.2645416259765625;-0.2880859375;0.0005065332516096;-0.0192405395209789;-0.0148817440494894
1768421554151716400;8.88071630859375;0.9236907958984376;0.2664031982421875;-0.2862548828125;-0.0009225190151482;-0.0142788039520382;-0.0141080953180789
1768421554161716200;8.89071630859375;0.9219818115234376;0.2657318115234375;-0.2876739501953125;-0.0005052016349509;-0.0123581327497959;-0.0164119955152273
