timestamp;seconds_elapsed;acc_z;acc_y;acc_x;gyro_z;gyro_y;gyro_x
1768216541052712200;21.607712158203125;-0.99957275390625;0.054412841796875;0.061370849609375;-0.0029542446136474;0.0346197634935379;-0.0067718857899308
1768216541062713000;21.617713134765623;-1.0002593994140625;0.0533905029296875;0.061981201171875;-0.0027324033435434;0.0351249650120735;-0.0049976878799498
1768216541072713200;21.627713134765624;-0.9987640380859376;0.0537567138671875;0.060394287109375;-0.0055106128565967;0.0341193526983261;-0.0022229405585676
1768216541082714000;21.63771411132813;-0.99755859375;0.0550689697265625;0.061614990234375;-0.0041984734125435;0.0331084169447422;-0.0052951630204916
1768216541092715000;21.647715087890624;-0.997802734375;0.0520782470703125;0.0642852783203125;-0.005690642632544;0.0418286733329296;-0.0072422004304826
1768216541102715100;21.657715087890622;-0.9924468994140624;0.050323486328125;0.0631256103515625;-0.0060136839747428;0.0441304445266723;-0.0154308881610631
1768216541112716300;21.66771630859375;-0.989288330078125;0.0509185791015625;0.0631256103515625;-0.0092765893787145;0.0425815470516681;-0.0232235640287399
1768216541122717200;21.67771728515625;-0.99029541015625;0.0472869873046875;0.0582122802734375;-0.0114164389669895;0.0481731221079826;-0.0263581033796072
1768216541132718000;21.687718017578124;-0.99267578125;0.044891357421875;0.0535430908203125;-0.0122417528182268;0.0483350418508052;-0.0270952675491571
1768216541142718000;21.69771801757813;-0.995269775390625;0.044281005859375;0.052581787109375;-0.0135754635557532;0.0424180291593074;-0.0285594724118709
1768216541152719000;21.707718994140624;-1.0024871826171875;0.0464935302734375;0.0542449951171875;-0.012574647553265;0.047450341284275;-0.0328128077089786
1768216541162720300;21.71772021484375;-1.010711669921875;0.046173095703125;0.0581207275390625;-0.0142127582803368;0.0587719716131687;-0.0406283847987651
1768216541172720000;21.72772021484375;-1.01019287109375;0.0514373779296875;0.0658721923828125;-0.0146497823297977;0.0678898319602012;-0.0524072796106338
1768216541182721000;21.737720947265625;-1.01068115234375;0.0550079345703125;0.070892333984375;-0.0124231139197945;0.073942132294178;-0.062684953212738
1768216541192722200;21.74772216796875;-1.01007080078125;0.05682373046875;0.0738677978515625;-0.0102662192657589;0.0760838463902473;-0.0584902092814445
1768216541202722000;21.75772216796875;-1.0050201416015625;0.0595550537109375;0.0776824951171875;-0.0047673247754573;0.0747895538806915;-0.0498889945447444
1768216541212723000;21.767722900390623;-0.9934234619140624;0.062957763671875;0.081146240234375;0.0400683246552944;0.0681697353720665;-0.0400880314409732
1768216541222724000;21.77772412109375;-0.9884796142578124;0.0598602294921875;0.076568603515625;-0.0365995578467845;0.0464388728141784;-0.0337646231055259
1768216541232724200;21.78772412109375;-0.9842681884765624;0.0584564208984375;0.0708770751953125;0.0542435310781002;0.0359244458377361;-0.0205620005726814
1768216541242725000;21.79772509765625;-0.9905853271484376;0.0630035400390625;0.06634521484375;-0.0335952453315258;0.015850069001317;-0.0044365599751472
1768216541252726000;21.80772607421875;-1.0011138916015625;0.0626068115234375;0.065826416015625;0.0572715438902378;0.0267072450369596;0.008209460414946
1768216541262726100;21.81772607421875;-1.0080108642578125;0.065521240234375;0.0707550048828125;-0.0418473146855831;0.027009779587388;0.0069252839311957
1768216541272727000;21.82772705078125;-1.004150390625;0.06695556640625;0.083251953125;0.0528621487319469;0.042445994913578;0.0002194444678025
1768216541282728200;21.837728271484377;-0.9968109130859376;0.0701141357421875;0.0914306640625;-0.0421993844211101;0.0340764783322811;-0.0189103074371814
1768216541292728000;21.84772802734375;-0.9888763427734376;0.06524658203125;0.089508056640625;0.0491931140422821;0.0462846755981445;-0.030379744246602
1768216541302729200;21.857729248046876;-0.9893035888671876;0.063873291015625;0.08465576171875;-0.0458085015416145;0.0382424592971801;-0.0366773195564746
1768216541312730000;21.867730224609375;-0.9884490966796876;0.0582275390625;0.0809326171875;0.0482868403196334;0.0361984856426715;-0.0294542945921421
1768216541322730000;21.87772998046875;-0.99267578125;0.0587158203125;0.0741729736328125;-0.0441733188927173;0.0187696926295757;-0.0148071758449077
1768216541332731100;21.88773120117187;-1.00250244140625;0.0572052001953125;0.0720977783203125;0.0510522648692131;0.0244632642716169;0.0069140987470746
1768216541342732300;21.897732177734376;-1.01190185546875;0.0620269775390625;0.0736236572265625;-0.0438833013176918;0.0234762970358133;0.0168090742081403
1768216541352733200;21.90773315429687;-1.0053863525390625;0.0612030029296875;0.0781402587890625;0.0520003512501716;0.0435205809772014;0.0243716519325971
1768216541362733000;21.917733154296876;-0.991912841796875;0.068084716796875;0.0809173583984375;-0.038858450949192;0.043371707201004;0.0243135951459407
1768216541372734000;21.92773388671875;-0.9811248779296876;0.06646728515625;0.076171875;0.0618937276303768;0.0558661967515945;0.0303216874599456
1768216541382735000;21.937735107421876;-0.9796905517578124;0.06390380859375;0.067108154296875;-0.0270822178572416;0.046923566609621;0.0303254146128892
1768216541392735000;21.94773486328125;-0.98358154296875;0.0518798828125;0.0586090087890625;0.0641611441969871;0.0482468903064727;0.0265647657215595
1768216541402736600;21.957736572265624;-0.9835662841796876;0.0496063232421875;0.05889892578125;-0.0376656204462051;0.0133994286879897;0.0128361703827977
1768216541412737500;21.96773754882813;-0.9859771728515624;0.0495452880859375;0.067657470703125;0.0498256124556064;0.008144212886691;0.0109072420746088
1768216541422737700;21.977737548828124;-0.9994659423828124;0.055267333984375;0.072174072265625;-0.0519742518663406;-0.0069881347008049;0.0125767784193158
1768216541432738800;21.98773876953125;-1.0002899169921875;0.050018310546875;0.074859619140625;0.0410204045474529;0.0039963396266102;0.0146279446780681
1768216541442739700;21.99773974609375;-0.998687744140625;0.0521240234375;0.0783843994140625;-0.0567050911486148;0.0117144463583827;0.0077572553418576
1768216541452739800;22.00773974609375;-0.99932861328125;0.0481109619140625;0.07666015625;0.0387868098914623;0.0363819748163223;-0.0042642536573112
1768216541462740700;22.01774072265625;-0.9971160888671876;0.0499114990234375;0.0765533447265625;-0.0583844818174839;0.0334050953388214;-0.0175062883645296
1768216541472741600;22.02774169921875;-0.9894866943359376;0.0486602783203125;0.0719146728515625;0.0406294502317905;0.0364640019834041;-0.0196661129593849
1768216541482741500;22.037741455078127;-0.9860076904296876;0.0513916015625;0.0651702880859375;-0.0583157688379287;0.0085556712001562;-0.0193958021700382
1768216541492742700;22.04774267578125;-0.98773193359375;0.0488739013671875;0.0581512451171875;0.0371569544076919;-0.0114334831014275;-0.0010945592075586
1768216541502743800;22.057743896484375;-0.9947052001953124;0.0541839599609375;0.059112548828125;-0.0545444674789905;-0.0360639952123165;0.0293371155858039
1768216541512744700;22.06774462890625;-0.99993896484375;0.0520477294921875;0.06793212890625;0.0424902029335498;-0.0013986921403557;0.0471033304929733
1768216541522744600;22.07774462890625;-1.0053253173828125;0.0453338623046875;0.0761871337890625;-0.0523601435124874;0.0148079749196767;0.0325395688414573
1768216541532745500;22.087745361328125;-0.992706298828125;0.0457611083984375;0.087127685546875;0.047148335725069;0.0287094097584486;0.0100971087813377
1768216541542746600;22.09774658203125;-0.9830474853515624;0.053619384765625;0.091400146484375;-0.0504381395876407;0.0218568295240402;-0.0033566481433808
1768216541552746800;22.107746826171876;-0.9853668212890624;0.05621337890625;0.0874176025390625;0.04737364128232;0.0289770569652318;-0.0017664746847003
1768216541562747600;22.11774755859375;-0.988616943359375;0.0578460693359375;0.081756591796875;-0.0497917905449867;-0.0026035062037408;-0.0019355855183675
1768216541572748500;22.12774853515625;-0.9884033203125;0.0543365478515625;0.0775299072265625;0.0453198105096817;-0.0309765581041574;0.0023172164801508
1768216541582748700;22.13774877929687;-0.9943389892578124;0.0573272705078125;0.078857421875;-0.052295695990324;-0.0532341934740543;0.0123245771974325
1768216541592749600;22.14774951171875;-1.003570556640625;0.0561065673828125;0.0817413330078125;0.0117248324677348;-0.0260947179049253;0.0259607601910829
1768216541602750700;22.15775073242187;-1.0055999755859375;0.0526580810546875;0.08782958984375;-0.006286924239248;-0.0099391834810376;0.0088773807510733
1768216541612750800;22.167750732421876;-1.0015411376953125;0.05340576171875;0.0924072265625;0.0022133530583232;-0.0027955202385783;-0.0074248928576707
1768216541622751700;22.177751708984378;-0.9985504150390624;0.061767578125;0.094024658203125;0.0084957499057054;-0.0060200756415724;-0.0141435153782367
1768216541632752600;22.187752685546876;-1.0007781982421875;0.0643463134765625;0.08551025390625;0.012237224727869;-0.0090771177783608;-0.0075037227943539
1768216541642752800;22.19775268554687;-0.9962158203125;0.0617523193359375;0.0807342529296875;0.011600730009377;-0.0180517043918371;-0.0023180153220891
1768216541652753700;22.207753662109376;-0.993804931640625;0.0585479736328125;0.0783843994140625;0.009762349538505;-0.0344772823154926;0.0005890912143513
1768216541662754800;22.2177548828125;-0.9967803955078124;0.05828857421875;0.07464599609375;0.0016247945604845;-0.0413887202739715;0.0031931300181895
1768216541672755700;22.227755615234376;-1.0004425048828125;0.0608367919921875;0.074005126953125;-0.0005009406013414;-0.0284393653273582;0.0047891624271869
1768216541682755600;22.237755615234377;-1.0007476806640625;0.0604095458984375;0.0766754150390625;-0.0030754182953387;-0.0084502100944519;-0.0011566109023988
1768216541692756700;22.2477568359375;-0.9916534423828124;0.0587158203125;0.075531005859375;-0.0046160570345819;0.0046107308007776;-0.0120398849248886
1768216541702757600;22.257757568359377;-0.9864959716796876;0.058013916015625;0.067901611328125;-0.003582750679925;0.017028784379363;-0.0173441022634506
1768216541712757500;22.267757568359375;-0.9866180419921876;0.0546722412109375;0.053436279296875;-0.0087357005104422;0.0260550361126661;-0.0171920359134674
1768216541722758700;22.277758544921873;-0.9942779541015624;0.0498504638671875;0.0458984375;-0.0068429922685027;0.0236155800521373;-0.017797639593482
1768216541732759800;22.287759765625;-1.0030975341796875;0.05322265625;0.046783447265625;-0.0081428810954093;0.0219178162515163;-0.0028562401421368
1768216541742759700;22.297759765625;-1.0110931396484375;0.0560150146484375;0.0538787841796875;-0.0084520746022462;0.0320309028029441;0.0126998163759708
1768216541752760600;22.307760498046875;-1.0134124755859375;0.0556182861328125;0.0686798095703125;-0.0066515109501779;0.0478484816849231;0.0204408261924982
1768216541762761500;22.317761474609377;-1.007476806640625;0.0548095703125;0.081298828125;-0.0024114924017339;0.0624836161732673;0.0191936679184436
1768216541772763000;22.327762939453127;-1.0001220703125;0.0545196533203125;0.0862884521484375;0.0018964370246976;0.070331685245037;0.0060168798081576
1768216541782762800;22.3377626953125;-0.9932403564453124;0.0526580810546875;0.0855865478515625;0.0069591063074767;0.0659526512026786;-0.0060147494077682
1768216541792763600;22.347763671875;-0.9895782470703124;0.05255126953125;0.083709716796875;0.0086187878623604;0.0488365143537521;-0.0145355332642793
1768216541802764500;22.3577646484375;-0.99029541015625;0.0548248291015625;0.08074951171875;0.0119338911026716;0.0223183557391166;-0.0136412438005208
1768216541812764700;22.3677646484375;-0.993896484375;0.055023193359375;0.0792999267578125;0.0075892102904617;0.0022434468846768;-0.0003707120195031
1768216541822765600;22.377765625;-0.99249267578125;0.05596923828125;0.08056640625;0.0074523235671222;0.0053763897158205;0.0097253313288092
1768216541832766700;22.3877666015625;-0.9935302734375;0.0537109375;0.0855712890625;0.0096118813380599;0.0158966742455959;0.0075559206306934
1768216541842766800;22.397766845703124;-0.992401123046875;0.05419921875;0.085205078125;0.0103759421035647;0.0214064884930849;-0.0068986522965133
1768216541852767700;22.407767822265622;-0.9915618896484376;0.0586700439453125;0.0836639404296875;0.0111559815704822;0.0226155631244182;-0.0126327043399214
1768216541862768600;22.4177685546875;-0.99432373046875;0.06005859375;0.0764617919921875;0.0115567874163389;0.0240571331232786;-0.0130337765440344
1768216541872768800;22.42776879882813;-0.9955291748046876;0.05487060546875;0.0689849853515625;0.0095522264018654;0.0198128540068864;-0.0096515621989965
1768216541882769700;22.437769775390624;-0.9965057373046876;0.0512542724609375;0.0669403076171875;0.0069103701971471;0.0167478211224079;-0.0080989394336938
1768216541892770800;22.44777075195313;-0.9987640380859376;0.048736572265625;0.0691986083984375;0.0036330842413008;0.0169981587678194;-0.0031454595737159
1768216541902771700;22.457771728515624;-1.001739501953125;0.047332763671875;0.0749969482421875;0.0002689792599994;0.0236272979527711;-0.0034615767654031
1768216541912771600;22.467771484375;-1.0034332275390625;0.0497283935546875;0.0803375244140625;-6.73779723001e-05;0.0362954214215278;-0.0021070931106805
1768216541922772700;22.477772705078124;-1.0009002685546875;0.0538482666015625;0.0852813720703125;0.000868723145686;0.0447365790605545;-0.0027198863681405
1768216541932773600;22.487773681640626;-0.9915313720703124;0.055755615234375;0.085968017578125;0.0023302659392356;0.045903842896223;-0.0060131512582302
1768216541942773500;22.4977734375;-0.98614501953125;0.056671142578125;0.0810699462890625;0.0026666230987757;0.0428065843880176;-0.0089663304388523
1768216541952774700;22.507774658203125;-0.9865570068359376;0.05377197265625;0.07672119140625;0.0028533106669783;0.0370317883789539;-0.008780974894762
1768216541962775800;22.51777587890625;-0.9898834228515624;0.0534515380859375;0.0739288330078125;0.0038160434924066;0.0315440781414508;-0.0067676249891519
1768216541972775700;22.527775634765625;-0.9962615966796876;0.0540313720703125;0.0747833251953125;0.003171824850142;0.0288526862859725;-0.0054584150202572
1768216541982776600;22.537776611328123;-1.003662109375;0.0512847900390625;0.08074951171875;0.0025302693247795;0.02647022344172;-0.0067087691277265
1768216541992777500;22.547777587890625;-1.0009002685546875;0.0530548095703125;0.0849456787109375;0.0048528122715651;0.0273495987057685;-0.0060645504854619
1768216542002777600;22.557777587890627;-1.0009307861328125;0.054443359375;0.0867462158203125;0.0042802323587238;0.0305493865162134;-0.0043044672347605
1768216542012778800;22.56777880859375;-0.9975128173828124;0.0535430908203125;0.0876617431640625;0.0038352182600647;0.0283256471157073;-0.0045630601234734
1768216542022779600;22.577779541015627;-0.991912841796875;0.0523223876953125;0.0862884521484375;0.0044536041095852;0.0212405733764171;-0.0009113337146118
1768216542032780500;22.587780517578125;-0.989501953125;0.052520751953125;0.0821380615234375;0.0022788669448345;0.0146790770813822;0.0020453077740967
1768216542042780700;22.59778076171875;-0.9876251220703124;0.05047607421875;0.077789306640625;0.0008740494376979;0.0105727491900324;0.0054759918712079
1768216542052781600;22.607781494140625;-0.992034912109375;0.04949951171875;0.076263427734375;-0.0009965548524633;0.0113764917477965;0.0038559909444302
1768216542062782700;22.61778271484375;-0.9952850341796876;0.0521392822265625;0.07806396484375;-0.0043247072026133;0.0163603313267231;0.0038703719619661
1768216542072782800;22.627782958984376;-0.99688720703125;0.053863525390625;0.078948974609375;-0.0041745048947632;0.0197188425809144;-0.0025646241847425
1768216542082783700;22.63778369140625;-0.9945526123046876;0.0573883056640625;0.0795440673828125;-0.0069527146406471;0.0195231009274721;-0.0052616074681282
1768216542092784600;22.64778466796875;-0.994964599609375;0.057342529296875;0.0795135498046875;-0.0068411282263696;0.0287195295095443;-0.0036173716653138
1768216542102784500;22.65778442382813;-0.9973907470703124;0.05316162109375;0.077392578125;-0.0085002770647406;0.0375708118081092;-0.0049241846427321
1768216542112785700;22.66778564453125;-1.00030517578125;0.0521240234375;0.0767364501953125;-0.010015083476901;0.0442223213613033;-0.0096872486174106
1768216542122786800;22.677786865234378;-1.00177001953125;0.049530029296875;0.07904052734375;-0.0109373359009623;0.0431823581457138;-0.0123392241075634
1768216542132787700;22.68778759765625;-1.0023651123046875;0.04998779296875;0.079010009765625;-0.0142143554985523;0.0404523499310016;-0.0111368065699934
1768216542142787600;22.69778759765625;-1.0041961669921875;0.0518951416015625;0.0778350830078125;-0.0104758106172084;0.0471541956067085;-0.0024644893128424
1768216542152788700;22.707788818359376;-1.0098724365234375;0.0507354736328125;0.0830841064453125;-0.0146069061011075;0.0632644593715667;-0.0022578279022127
1768216542162789600;22.71778955078125;-0.9989013671875;0.0532379150390625;0.094329833984375;-0.0109341405332088;0.0462162308394908;0.0044261738657951
1768216542172789500;22.72778955078125;-0.9930877685546876;0.057708740234375;0.0902862548828125;-0.0148199591785669;0.050355315208435;-0.0011800467036664
1768216542182790700;22.737790771484377;-0.99481201171875;0.0522003173828125;0.0919952392578125;-0.0095410412177443;0.051802210509777;0.0086278431117534
1768216542192791800;22.747791748046875;-0.985931396484375;0.055023193359375;0.088104248046875;-0.0132273882627487;0.0635675266385078;0.0062677497044205
1768216542202791700;22.757791748046873;-0.989410400390625;0.0535736083984375;0.0892181396484375;-0.0092685995623469;0.0654983147978782;-0.0022719427943229
1768216542212792600;22.76779248046875;-0.9976654052734376;0.053863525390625;0.0918426513671875;-0.0085362298414111;0.067809410393238;-0.0012884372845292
1768216542222793500;22.77779345703125;-0.9986419677734376;0.0604095458984375;0.0952606201171875;0.0048432247713208;0.0683225989341735;0.0051209921948611
1768216542232795000;22.787794921875;-0.9959259033203124;0.0613555908203125;0.0976715087890625;0.0114824855700135;0.0494855269789695;0.0258734095841646
1768216542242794800;22.797794677734377;-0.9841461181640624;0.056884765625;0.098968505859375;0.0179070942103862;0.0321368984878063;0.0365204587578773
1768216542252795600;22.807795654296875;-0.9795379638671876;0.053558349609375;0.0998077392578125;0.0155520616099238;0.0228912010788917;0.0353318899869918
1768216542262796500;22.817796630859377;-0.9834442138671876;0.0532379150390625;0.0991363525390625;0.0163131933659315;0.013948306441307;0.0253879148513078
1768216542272796700;22.827796630859375;-0.9853973388671876;0.0537872314453125;0.0972900390625;0.0125725166872143;0.0097232013940811;0.0229141041636466
1768216542282797600;22.837797607421876;-0.9916534423828124;0.0553131103515625;0.0904388427734375;0.0087183900177478;0.0126577382907271;0.0142705487087368
1768216542292798700;22.847798828125;-0.99200439453125;0.053741455078125;0.0889892578125;0.004317516926676;0.009411877952516;0.0079125175252556
1768216542302798800;22.857798828125;-0.9940338134765624;0.0545654296875;0.083099365234375;-0.0008772452711127;0.0132905049249529;0.0096100168302655
1768216542312799700;22.8677998046875;-0.9949798583984376;0.0553436279296875;0.081817626953125;-0.0048517468385398;0.0200898218899965;0.008273109793663
1768216542322800600;22.877800537109376;-0.991546630859375;0.056182861328125;0.0817108154296875;-0.0060765347443521;0.0261724814772605;0.0077114491723477
1768216542332800500;22.887800537109374;-0.9910430908203124;0.0491180419921875;0.07879638671875;-0.0098997689783573;0.0199617240577936;0.0064893243834376
1768216542342801700;22.8978017578125;-0.99114990234375;0.04400634765625;0.080535888671875;-0.0108457235619425;0.0142031703144311;0.0045303031802177
1768216542352802800;22.907802734375;-0.999359130859375;0.046356201171875;0.08099365234375;-0.0151142375543713;0.0167137328535318;0.0075287562794983
1768216542362803700;22.9178037109375;-1.0025634765625;0.043243408203125;0.0854339599609375;-0.0142867937684059;0.0197872873395681;0.0088851042091846
1768216542372803600;22.92780346679687;-1.001617431640625;0.042572021484375;0.0883941650390625;-0.0160420835018157;0.0244374331086874;0.0090195937082171
1768216542382804700;22.9378046875;-1.001220703125;0.0413665771484375;0.0889892578125;-0.0175417084246873;0.0270246937870979;0.0058232680894434
1768216542392805600;22.9478056640625;-1.0009002685546875;0.041412353515625;0.0894775390625;-0.0191483944654464;0.0352456048130989;0.0056698699481785
1768216542402805200;22.95780517578125;-1.0019378662109375;0.0440216064453125;0.08978271484375;-0.0193127114325761;0.043999683111906;0.003271160647273
1768216542412806400;22.967806396484377;-1.002197265625;0.043853759765625;0.0915679931640625;-0.0184069704264402;0.0557745806872844;-0.0006314354832284
1768216542422807600;22.9778076171875;-1.002532958984375;0.0453948974609375;0.0910797119140625;-0.0211431011557579;0.059866264462471;-0.0063553676009178
1768216542432808400;22.987808349609377;-1.0049896240234375;0.0445404052734375;0.0927886962890625;-0.0256395824253559;0.0636319741606712;-0.011657721363008
1768216542442808300;22.997808349609375;-1.0001678466796875;0.0447235107421875;0.095489501953125;-0.0248068124055862;0.0653891265392303;-0.0149366054683923
1768216542452809200;23.007809326171873;-1.0002288818359375;0.04486083984375;0.094268798828125;-0.0307496562600135;0.0688408464193344;-0.0205247160047292
1768216542462810400;23.017810302734375;-0.9989013671875;0.046051025390625;0.0986785888671875;-0.0335795320570468;0.0781683027744293;-0.0218959785997867
1768216542472810200;23.027810302734373;-0.9962615966796876;0.046295166015625;0.099639892578125;-0.0398057363927364;0.0844475030899047;-0.0241087973117828
1768216542482811400;23.037811279296875;-0.988861083984375;0.0506134033203125;0.105255126953125;-0.0315467417240142;0.0590401515364646;-0.0156039930880069
1768216542492812300;23.047812255859377;-0.9827423095703124;0.0612335205078125;0.107177734375;-0.0229263547807931;0.0445474945008754;-0.0098286624997854
1768216542502812400;23.0578125;-0.9912261962890624;0.0636444091796875;0.1071319580078125;-0.0167201235890388;0.0466079823672771;-0.0063164853490889
1768216542512813300;23.067813232421877;-0.98681640625;0.06170654296875;0.1084442138671875;-0.0113413380458951;0.0422060415148735;-0.0085972165688872
1768216542522814200;23.077814208984375;-0.98095703125;0.0612640380859375;0.106903076171875;-0.006852579768747;0.0396102592349052;-0.0108063090592622
1768216542532814300;23.087814453125;-0.985382080078125;0.058990478515625;0.103607177734375;0.0007430219557136;0.0409852489829063;-0.0103040365502238
1768216542542815500;23.0978154296875;-0.9899444580078124;0.05682373046875;0.0991668701171875;0.0056927730329334;0.0469896122813224;-0.0044448156841099
1768216542552816400;23.10781640625;-0.9941558837890624;0.0577239990234375;0.1005096435546875;0.0030269487760961;0.0495739430189132;-0.0042328280396759
1768216542562817300;23.1178173828125;-0.996490478515625;0.053680419921875;0.1008148193359375;-0.0001134506601374;0.0527534931898117;-0.0044677192345261
1768216542572817400;23.1278173828125;-0.99755859375;0.0556793212890625;0.1037445068359375;0.0017749968683347;0.0473344922065734;-0.0037891454994678
1768216542582818300;23.137818359375;-0.9946136474609376;0.055328369140625;0.1056671142578125;0.0012942962348461;0.0371420420706272;0.0005230448441579
1768216542592819500;23.1478193359375;-0.9901580810546876;0.0554962158203125;0.1043548583984375;0.0008873652550391;0.0197015330195426;0.008192416280508
1768216542602819300;23.1578193359375;-0.9857025146484376;0.0550384521484375;0.1055908203125;0.0005331648280844;-0.0006277070497162;0.0102084288373589
1768216542612820500;23.167820556640624;-0.9860687255859376;0.0553131103515625;0.1038970947265625;-0.0001456749159842;-0.011429488658905;0.0094856470823287
1768216542622821400;23.1778212890625;-0.9902801513671876;0.0527801513671875;0.1009063720703125;-0.0021041636355221;-0.0152457980439066;0.0065029067918658
1768216542632822300;23.187822265625;-0.9952850341796876;0.051239013671875;0.1009063720703125;-0.0025286714080721;-0.0109581090509891;0.0063127567991614
1768216542642822100;23.197822265625;-0.9992828369140624;0.0533447265625;0.1012725830078125;-0.0024668860714882;-0.0048259142786264;0.0040983385406434
1768216542652823600;23.207823486328124;-0.998291015625;0.051055908203125;0.098785400390625;-9.9602220871e-05;0.0012562130577862;0.0022509037517011
1768216542662824400;23.217824462890626;-0.9996185302734376;0.0509490966796875;0.09698486328125;0.0014548848848789;0.0043822317384183;-0.0008367652189917
1768216542672824300;23.22782421875;-0.9937744140625;0.0511627197265625;0.0978546142578125;0.0006689860601909;0.003008573083207;-0.0011667308863252
1768216542682825200;23.2378251953125;-0.9953460693359376;0.0485687255859375;0.0962371826171875;0.0008641957538202;0.0082334289327263;-0.0008141283178701
1768216542692826400;23.247826416015624;-0.9935455322265624;0.04791259765625;0.0997772216796875;0.0014623417519032;0.0033023196738213;0.0023350596893578
1768216542702826200;23.257826171875;-0.99664306640625;0.049224853515625;0.100616455078125;0.0003685815026983;0.0091586112976074;0.0091708619147539
1768216542712827400;23.267827392578123;-0.99493408203125;0.050079345703125;0.099090576171875;0.0007155913626775;0.0055417716503143;0.010831075720489
1768216542722828300;23.277828369140625;-0.994384765625;0.048797607421875;0.1005706787109375;0.0011646003695204;0.0008753810543566;0.0101652862504124
1768216542732828400;23.287828369140627;-0.9956207275390624;0.0480499267578125;0.1022796630859375;-5.11326943524e-05;-0.0009701895760372;0.0063969129696488
1768216542742829300;23.297829345703125;-0.9936370849609376;0.046630859375;0.1031494140625;-0.0024511734955012;-0.0046046054922044;0.0017624800093472
1768216542752830200;23.307830322265627;-0.9966278076171876;0.0456695556640625;0.102752685546875;-0.0041526672430336;-0.0024410535115748;-0.0006175870657898
1768216542762831400;23.317831298828125;-0.996063232421875;0.0461883544921875;0.1032867431640625;-0.0053702644072473;-0.0026375947054475;-0.0021228056866675
1768216542772831500;23.32783154296875;-0.9952239990234376;0.0468292236328125;0.10357666015625;-0.0047801076434552;-0.0035952674224972;-0.0001976065541384
1768216542782832400;23.337832275390625;-0.997894287109375;0.049713134765625;0.1024322509765625;-0.007220628671348;-0.0010506170801818;-0.0026594325900077
1768216542792833300;23.347833251953126;-0.9971466064453124;0.0498199462890625;0.10162353515625;-0.0050051449798047;0.007095193490386;-0.002436526119709
1768216542802833400;23.35783349609375;-0.992645263671875;0.04766845703125;0.1022491455078125;-0.0067487163469195;0.0060744038783013;-0.0042296322062611
1768216542812834300;23.367834228515623;-0.9873809814453124;0.0503692626953125;0.09979248046875;-0.0059297946281731;0.0035342811606824;-0.0106292087584733
1768216542822835500;23.37783544921875;-0.9903717041015624;0.0530853271484375;0.1001434326171875;-0.0041545312851667;0.0048235175199806;-0.0124526750296354
1768216542832835300;23.38783544921875;-0.990234375;0.05169677734375;0.0976104736328125;-0.0053782537579536;0.0094057526439428;-0.0101916510611772
1768216542842836500;23.39783642578125;-0.9897308349609376;0.0480499267578125;0.09747314453125;-0.0050272489897906;0.0179156176745891;-0.0124010099098086
1768216542852837400;23.40783740234375;-0.9916229248046876;0.049713134765625;0.097625732421875;-0.0054328483529388;0.0208927653729915;-0.0091016190126538
1768216542862838300;23.41783837890625;-0.993194580078125;0.049346923828125;0.099456787109375;-0.0068222195841372;0.0175481010228395;-0.005354817956686
1768216542872838100;23.427838134765626;-0.991851806640625;0.048614501953125;0.10162353515625;-0.0062413844279944;0.0139994388446211;-0.0033329459838569
1768216542882839600;23.437839599609376;-0.991943359375;0.0478668212890625;0.103515625;-0.0065383268520236;0.0107136303558945;-0.006476807873696
1768216542892840400;23.44784033203125;-0.9910430908203124;0.0462646484375;0.102294921875;-0.0046698530204594;0.0029643645975738;-0.0067146280780434
1768216542902840300;23.45784033203125;-0.9893646240234376;0.04693603515625;0.1042327880859375;-0.0034956652671098;-0.0048213866539299;-0.0019110844004899
1768216542912841200;23.46784130859375;-0.989959716796875;0.0471038818359375;0.1039276123046875;-0.0018498316640034;-0.0032605081796646;0.0010351707460358
1768216542922842400;23.47784228515625;-0.9917449951171876;0.0472869873046875;0.1044921875;-0.0040338900871574;-0.0038759645540267;0.0042765042744576
1768216542932842200;23.48784228515625;-0.995819091796875;0.047698974609375;0.1039886474609375;-0.0050416300073266;-0.0041063278913497;0.004996090196073
1768216542942843400;23.497843505859375;-0.9960784912109376;0.0495758056640625;0.1058807373046875;-0.0034626419655978;-0.0024924525059759;0.006436061579734
1768216542952844300;23.50784423828125;-0.9963226318359376;0.0517578125;0.1071014404296875;-0.0023052322212606;-0.0018287927377969;0.0044085970148444
1768216542962845400;23.517845458984375;-0.9938201904296876;0.0516204833984375;0.1053619384765625;-0.0015459649730473;-0.0014764565275982;-0.0010298443958163
1768216542972845300;23.52784521484375;-0.99224853515625;0.0509185791015625;0.1033477783203125;-0.0043894220143556;-0.0085149249061942;0.0007595335482619
1768216542982846200;23.53784619140625;-0.9928741455078124;0.0556182861328125;0.10430908203125;-0.0002790992730297;-0.0031822111923247;0.0009171926649287
1768216542992847400;23.547847412109373;-0.9989166259765624;0.0587310791015625;0.100250244140625;-0.0017345168162137;-4.23442616011e-05;0.0045793056488037
1768216543002847500;23.557847412109375;-0.99462890625;0.0504302978515625;0.0979461669921875;-0.0016607472207397;-0.0001520664955023;0.0032983249984681
1768216543012848400;23.567848388671877;-0.9948577880859376;0.0525970458984375;0.0981597900390625;-0.0061801318079233;0.001046355930157;0.0031915323343127
1768216543022849300;23.577849365234375;-0.996856689453125;0.0504150390625;0.09722900390625;-0.0038456046022474;0.0044221789576113;0.004317516926676
1768216543032849400;23.587849365234376;-0.9928131103515624;0.0501861572265625;0.098541259765625;-0.005125786177814;0.0044759749434888;0.0005363606614992
1768216543042850300;23.597850341796875;-0.9923095703125;0.0499267578125;0.0981292724609375;-0.0053926347754895;0.0049803773872554;0.0016855146968737
1768216543052851500;23.6078515625;-0.993865966796875;0.0504913330078125;0.0987701416015625;-0.0049175270833075;0.0038839541375637;0.0027622305788099
1768216543062852400;23.617852294921875;-0.9925689697265624;0.05255126953125;0.1003875732421875;-0.0033598439767956;0.0040141828358173;0.0015931029338389
1768216543072852500;23.6278525390625;-0.99462890625;0.0507659912109375;0.1007843017578125;-0.0046754456125199;0.0026522420812398;0.0031145669054239
1768216543082853400;23.637853271484374;-0.992889404296875;0.05078125;0.101776123046875;-0.0025744778104126;0.0033550502266734;0.0059186089783906
1768216543092854300;23.647854248046876;-0.9931640625;0.0508270263671875;0.100738525390625;-0.0021835258230566;0.0023742080666124;0.0065782740712165
1768216543102854100;23.65785424804687;-0.9923248291015624;0.0498199462890625;0.099517822265625;-0.0007411577389575;0.0010586065473034;0.0072616413235664
1768216543112855600;23.66785546875;-0.9919586181640624;0.048370361328125;0.101837158203125;-0.0009624664089642;0.0009507485083304;0.0041193775832653
1768216543122856400;23.6778564453125;-0.9902496337890624;0.0483245849609375;0.1012725830078125;-0.0014841796364635;0.0044916872866451;0.0034381409641355
1768216543132856300;23.687856201171876;-0.99359130859375;0.048065185546875;0.10125732421875;-0.0003355582884978;0.0058448393829166;0.0021973741240799
1768216543142857200;23.697857177734377;-0.9933319091796876;0.047454833984375;0.1003265380859375;-0.0016586167039349;0.0041025998070836;0.0001824265345931
1768216543152858400;23.7078583984375;-0.995361328125;0.0472259521484375;0.10101318359375;-0.0011819108622148;0.0031683626584708;0.0003510046226438
1768216543162859500;23.717859619140626;-0.9962005615234376;0.04901123046875;0.10186767578125;-0.0004130562883801;0.0067055732943117;-0.0027467843610793
1768216543172859400;23.727859375;-0.997100830078125;0.0469818115234375;0.1013641357421875;-0.000230629753787;0.0083410209044814;-0.0039353528991341
1768216543182860300;23.7378603515625;-0.999847412109375;0.0469818115234375;0.1024627685546875;0.0007656587986275;0.0102326637133955;-0.0018799253739416
1768216543192861400;23.747861328125;-1.000274658203125;0.0467987060546875;0.10479736328125;0.0002790992730297;0.0127693247050046;-0.0010828413069248
1768216543202861300;23.757861328125;-0.997161865234375;0.0451812744140625;0.1034393310546875;-0.0026245452463626;0.0138476388528943;-0.0033696976024657
1768216543212862200;23.7678623046875;-0.9973297119140624;0.0473175048828125;0.103546142578125;-0.0022362563759088;0.0133648077026009;-0.002518018707633
1768216543222863400;23.77786328125;-0.9965362548828124;0.0487823486328125;0.1045379638671875;-0.0028589034918695;0.0142559008672833;-0.0024844629224389
1768216543232864300;23.7878642578125;-0.994384765625;0.050506591796875;0.1039886474609375;-0.0027425233274698;0.0135243311524391;-0.0027169568929821
1768216543242864400;23.797864501953125;-0.99322509765625;0.0481719970703125;0.10247802734375;-0.001709749456495;0.0108864698559045;-0.0053931674920022
1768216543252865300;23.807865234375;-0.9903564453125;0.0481414794921875;0.101654052734375;-0.0012146678054705;0.0072603095322847;-0.0073109096847474
1768216543262866200;23.8178662109375;-0.9892578125;0.0444793701171875;0.101409912109375;-0.0026045716367661;0.005371862091124;-0.0110297482460737
1768216543272866600;23.827866455078127;-0.99163818359375;0.0442962646484375;0.10009765625;-0.0033931334037333;0.0069095715880393;-0.0113820843398571
1768216543282867500;23.837867431640625;-0.993377685546875;0.0466156005859375;0.0982513427734375;-0.0022535668686032;0.0101570300757884;-0.0115155084058642
1768216543292868400;23.847868408203126;-0.995208740234375;0.045379638671875;0.0991668701171875;-0.0045798378996551;0.0144388601183891;-0.0103229451924562
1768216543302868500;23.857868408203124;-0.99658203125;0.0475006103515625;0.1001434326171875;-0.0020431771408766;0.016865799203515;-0.0066445870324969
1768216543312869400;23.867869384765623;-0.994140625;0.05072021484375;0.1008148193359375;-0.0010346380295231;0.0131802503019571;-0.0042554652318358
1768216543322870300;23.877870361328124;-0.990875244140625;0.0522918701171875;0.100555419921875;0.0013763216556981;0.011428689584136;-0.0016937704058364
1768216543332870400;23.88787036132813;-0.9911956787109376;0.0509033203125;0.10186767578125;0.0007403587806038;0.0076936059631407;-0.0012077435385435
1768216543342871600;23.89787158203125;-0.990966796875;0.0513763427734375;0.100982666015625;0.0016892430139705;0.0078949406743049;-0.0030594393610954
1768216543352872400;23.90787255859375;-0.9924468994140624;0.048431396484375;0.099578857421875;0.0015246596885845;0.0097170760855078;-0.0051833102479577
1768216543362873300;23.917873291015624;-0.9970550537109376;0.0472869873046875;0.0997467041015625;-0.0010165285784751;0.0147746847942471;-0.0060632186941802
1768216543372873200;23.927873291015626;-0.997100830078125;0.0491943359375;0.103363037109375;-0.0007510114228352;0.0179465096443891;-0.0065934541635215
1768216543382874400;23.937874267578124;-0.99432373046875;0.049346923828125;0.1011962890625;-0.0022671490442007;0.0194341521710157;-0.0090222572907805
1768216543392875500;23.94787548828125;-0.9951324462890624;0.047698974609375;0.1024017333984375;-0.0033366745337843;0.0152013236656785;-0.0103604951873421
1768216543402875000;23.957875;-0.9939117431640624;0.0504608154296875;0.1026611328125;-0.0018591526895761;0.0116068553179502;-0.0117117837071418
1768216543412875800;23.967875732421874;-0.995361328125;0.0487823486328125;0.103240966796875;-0.0025124261155724;0.0109288142994046;-0.010685933753848
1768216543422877000;23.977876953125;-0.994354248046875;0.05126953125;0.1043243408203125;-0.0032823460642248;0.0097029609605669;-0.0074597806669771
1768216543432878000;23.987878173828125;-0.995147705078125;0.0506134033203125;0.1033935546875;-0.0022114890161901;0.005005411338061;-0.0083359600976109
1768216543442878000;23.9978779296875;-0.9932861328125;0.048797607421875;0.1049041748046875;-0.0021033645607531;-0.0004127899592276;-0.0091402353718876
1768216543452878800;24.00787890625;-0.9939727783203124;0.049224853515625;0.10443115234375;-0.0023486416321247;0.0027827369049191;-0.0051399008370935
1768216543462880000;24.0178798828125;-0.996856689453125;0.049407958984375;0.1058197021484375;-0.0016604809788987;0.0020509003661572;-0.003490338800475
1768216543472879900;24.0278798828125;-0.9953155517578124;0.050506591796875;0.10430908203125;-0.0036993969697505;0.0034498588647693;-0.0016074840677902
1768216543482880800;24.037880859375;-0.9940032958984376;0.0490264892578125;0.103546142578125;-0.0024671524297446;0.0051295147277414;-0.0002311623829882
1768216543492882000;24.0478818359375;-0.99072265625;0.0489959716796875;0.104522705078125;-0.0015379755059257;0.0041891522705554;-0.004046939779073
1768216543502882000;24.057882080078127;-0.9912109375;0.0480804443359375;0.1051788330078125;-0.0037553233560174;0.0056192697957158;-0.0044288369826972
1768216543512883000;24.067883056640625;-0.991790771484375;0.0478057861328125;0.10321044921875;-0.0009928264189511;0.0020881847012788;-0.0046850331127643
1768216543522883800;24.0778837890625;-0.9912567138671876;0.0486297607421875;0.102630615234375;-0.0030096382834017;-0.000532632227987;-0.005641374271363
1768216543532884700;24.087884765625;-0.990692138671875;0.0482177734375;0.100982666015625;3.9947417462e-06;-0.0040730386972427;-0.004710332956165
1768216543542884900;24.097884765625;-0.990447998046875;0.0478973388671875;0.1016693115234375;-0.001104412949644;-0.0033356093335896;-0.0040866206400096
1768216543552886000;24.107885986328125;-0.991302490234375;0.04803466796875;0.1035003662109375;-0.0021784657146781;-0.0041465419344604;-0.0047031426802277
1768216543562887000;24.117886962890623;-0.9943084716796876;0.047943115234375;0.1027069091796875;-0.003139600623399;-0.0018839201657101;-0.005046157632023
1768216543572887000;24.127886962890624;-0.994110107421875;0.0477142333984375;0.1036376953125;-0.0039452067576348;-0.0017656758427619;-0.0045321676880121
1768216543582888000;24.13788793945313;-0.9970550537109376;0.0481719970703125;0.1035614013671875;-0.0039518647827208;0.0006860303110443;-0.0037457360886037
1768216543592888800;24.147888916015624;-0.9962615966796876;0.04888916015625;0.1033935546875;-0.0026370619889348;0.0048091360367834;-0.0041500041261315
1768216543602888700;24.157888671875;-0.9964447021484376;0.0492706298828125;0.103240966796875;-0.0042016692459583;0.0096531603485345;-0.0043129893019795
1768216543612890000;24.16789013671875;-0.9947662353515624;0.049072265625;0.102386474609375;-0.0028418591246008;0.0104526411741971;-0.0074469973333179
1768216543622891000;24.17789111328125;-0.9916229248046876;0.04913330078125;0.1009674072265625;-0.0013672668719664;0.0077351513318717;-0.0082384888082742
1768216543632892000;24.187891845703124;-0.990692138671875;0.0489349365234375;0.1013031005859375;0.0002324939559912;0.0059439092874526;-0.0060736052691936
1768216543642891800;24.19789184570313;-0.99139404296875;0.0486907958984375;0.1019287109375;0.0010884338989853;0.009090700186789;-0.0054653389379382
1768216543652893000;24.207892822265624;-0.9914398193359376;0.0459442138671875;0.101593017578125;-0.0006157228490337;0.0108553105965256;-0.0024549018125981
1768216543662894000;24.21789404296875;-0.9940338134765624;0.0452728271484375;0.10223388671875;-0.0006522081675939;0.0106430565938353;-0.0021776668727397
1768216543672894000;24.22789404296875;-0.9965057373046876;0.047821044921875;0.1020965576171875;-0.0007374293054454;0.007767641916871;0.0011302455095574
1768216543682894800;24.237894775390625;-0.99554443359375;0.0488739013671875;0.1047210693359375;0.0017779263434931;0.0059585566632449;0.0031193606555461
1768216543692896000;24.24789599609375;-0.996429443359375;0.047393798828125;0.1035308837890625;0.0025643578264862;0.00159443449229;0.0011981561547145
1768216543702895900;24.257895751953125;-0.9940948486328124;0.0464630126953125;0.10333251953125;0.0008964200387708;-0.0044538704678416;0.0029225528705865
1768216543712896800;24.267896728515623;-0.9912109375;0.0498199462890625;0.1060028076171875;0.0026831347495317;-0.0080134514719247;0.0039121834561228
1768216543722898000;24.27789794921875;-0.986541748046875;0.049468994140625;0.1055908203125;0.0006255765329115;-0.0102963130921125;0.0066272765398025
1768216543732899000;24.287899169921875;-0.98828125;0.0482330322265625;0.105224609375;-0.0007504787645302;-0.0057439059019088;0.0095405085012316
1768216543742899000;24.29789892578125;-0.9913787841796876;0.0488739013671875;0.103668212890625;-0.0002809634897857;-0.001757686259225;0.0094233294948935
1768216543752899800;24.30789990234375;-0.994110107421875;0.0475616455078125;0.1048736572265625;-0.002397111384198;0.0009116000146605;0.0111336112022399
1768216543762900700;24.317900634765625;-0.99542236328125;0.04705810546875;0.1022491455078125;-0.0014045510906726;0.0039081890136003;0.0078885490074753
1768216543772900900;24.32790087890625;-0.9964141845703124;0.0494384765625;0.102783203125;-0.0013717942638322;0.0070872041396796;0.0063801351934671
1768216543782902000;24.337902099609376;-0.9953460693359376;0.0485076904296875;0.1029052734375;-0.0011765845119953;0.0092092109844088;0.0035553199704736
1768216543792903000;24.34790283203125;-0.9930877685546876;0.0483245849609375;0.1001434326171875;-0.0007930893916636;0.0109969908371567;0.0011792477453127
1768216543802903000;24.357903076171876;-0.9937286376953124;0.048583984375;0.100433349609375;-0.0003757720405701;0.011928298510611;-0.0045979474671185
1768216543812904000;24.367904052734374;-0.99542236328125;0.048797607421875;0.1012725830078125;-0.0021539647132158;0.0149009190499782;-0.0040530646219849
1768216543822904800;24.37790478515625;-0.99432373046875;0.050323486328125;0.1000823974609375;-0.0022335932590067;0.0173190683126449;-0.0035473306197673
1768216543832906000;24.387906005859374;-0.9959259033203124;0.0513916015625;0.101837158203125;-0.0011595403775572;0.0209681317210197;0.0001635180960875
1768216543842906000;24.397906005859376;-0.9965057373046876;0.05029296875;0.102020263671875;-0.0021752698812633;0.0230786874890327;-0.0022836606949567
1768216543852907000;24.40790698242187;-0.9969635009765624;0.048248291015625;0.1013031005859375;-0.0023204123135656;0.0249831136316061;-0.0066696205176413
1768216543862908000;24.417907958984376;-0.996856689453125;0.045745849609375;0.10296630859375;-0.0025369273498654;0.0233215671032667;-0.0062720105051994
1768216543872907800;24.42790771484375;-0.9991912841796876;0.0463409423828125;0.1041717529296875;-0.0032045817933976;0.0236017331480979;-0.0085034733638167
1768216543882909000;24.437908935546876;-1.0004119873046875;0.0461578369140625;0.1053466796875;-0.0022873890120536;0.026391128078103;-0.0119405491277575
1768216543892910000;24.44791015625;-1.0000457763671875;0.0468902587890625;0.10546875;-0.0024362597614526;0.0255698077380657;-0.0127347037196159
1768216543902910000;24.457909912109375;-0.9975433349609376;0.0477447509765625;0.1051177978515625;-0.0022391858510673;0.0243479497730731;-0.0125155253335833
1768216543912910800;24.467910888671874;-0.9947662353515624;0.04876708984375;0.1050872802734375;-0.0016562198288738;0.025192704051733;-0.0096188047900795
1768216543922912000;24.477912109375;-0.993316650390625;0.04864501953125;0.1066131591796875;0.0004101268132217;0.0234746988862752;-0.0078241005539894
1768216543932913000;24.487912841796874;-0.9898834228515624;0.050048828125;0.10693359375;-0.0024655545130372;0.0227101054042577;-0.0070925303734838
1768216543942912800;24.497912841796875;-0.9895782470703124;0.0496978759765625;0.106903076171875;0.0003603257064241;0.0208304468542337;-0.0080139841884374
1768216543952914000;24.507913818359373;-0.9911956787109376;0.04827880859375;0.10540771484375;-0.0026282735634595;0.0224573723971843;-0.0118294954299926
1768216543962914800;24.517914794921875;-0.993408203125;0.04705810546875;0.10528564453125;-0.0013198626693338;0.0219577625393867;-0.0146138304844498
1768216543972915000;24.5279150390625;-0.996185302734375;0.0479888916015625;0.105560302734375;-0.0017321199411526;0.0270475968718528;-0.0183284077793359
1768216543982915800;24.537915771484375;-0.99725341796875;0.047576904296875;0.10791015625;-0.0029856697656214;0.0326082780957222;-0.0234312899410724
1768216543992916700;24.547916748046877;-0.9956512451171876;0.046630859375;0.1084747314453125;-0.0034988611005246;0.0321864336729049;-0.0278819650411605
1768216544002916900;24.557916748046875;-0.99578857421875;0.0461273193359375;0.11090087890625;-0.0027856663800776;0.0230488609522581;-0.0328013561666011
1768216544012918000;24.56791796875;-0.996337890625;0.0471649169921875;0.112945556640625;-0.0033382724504917;0.0124689200893044;-0.0393484719097614
1768216544022919000;24.5779189453125;-0.995880126953125;0.049072265625;0.112396240234375;-0.0021819279063493;-0.0027854002546519;-0.0474806986749172
1768216544032919800;24.587919921875;-0.9911956787109376;0.0520477294921875;0.1143646240234375;-0.0024716798216104;-0.0215194076299667;-0.0547372810542583
1768216544042920000;24.597919921875;-0.989837646484375;0.054718017578125;0.1135406494140625;-0.0010410296963527;-0.0389884114265441;-0.0607701390981674
1768216544052920800;24.6079208984375;-0.9916839599609376;0.0541839599609375;0.1094818115234375;0.0016136092599481;-0.050211239606142;-0.0555735118687152
1768216544062922000;24.617921875;-0.9926300048828124;0.05303955078125;0.108642578125;0.0016546220285817;-0.0549588575959205;-0.0439101979136467
1768216544072922000;24.627922119140624;-0.9888153076171876;0.0523529052734375;0.1055145263671875;0.0015747271245345;-0.0590193793177604;-0.0288228597491979
1768216544082923000;24.63792309570313;-0.9886016845703124;0.0482330322265625;0.1013946533203125;-0.0003475425182841;-0.0549000017344951;-0.0134596163406968
1768216544092924000;24.647923828125;-0.9902191162109376;0.0505523681640625;0.099822998046875;0.0026341325137764;-0.0442508198320865;0.001644235686399
1768216544102923800;24.657923828125;-0.9901580810546876;0.0520477294921875;0.0955657958984375;0.0044884914532303;-0.0414917841553688;0.005323392804712
1768216544112925000;24.667925048828124;-0.9923248291015624;0.0508270263671875;0.0955963134765625;0.0054640076123178;-0.0404510200023651;0.0025161546654999
1768216544122926000;24.677926025390622;-0.9993133544921876;0.0493621826171875;0.0954132080078125;0.0020133496727794;-0.0467384755611419;-0.0042698462493717
1768216544132927000;24.687927001953124;-1.002105712890625;0.051483154296875;0.0991058349609375;-0.000129163308884;-0.0552491396665573;-0.0114076500758528
1768216544142926800;24.6979267578125;-1.0038909912109375;0.0560760498046875;0.0998992919921875;-0.0005496764206327;-0.0609432458877563;-0.0214504301548004
1768216544152928000;24.707927978515624;-0.999481201171875;0.0593414306640625;0.1017608642578125;-0.0002591255761217;-0.0574225448071956;-0.0299637578427791
1768216544162929000;24.71792895507813;-0.9945831298828124;0.060943603515625;0.10345458984375;0.0046749128960072;-0.0596872977912426;-0.0278974119573831
1768216544172928800;24.7279287109375;-0.98883056640625;0.0567474365234375;0.0963592529296875;0.0022716764360666;-0.0673055350780487;-0.0203657262027263
1768216544182930000;24.737929931640625;-0.981597900390625;0.062408447265625;0.097503662109375;0.0106973852962255;-0.077611967921257;-0.0071300812996923
1768216544192930800;24.747930908203124;-0.978973388671875;0.060882568359375;0.0901947021484375;0.0100510362535715;-0.0809632912278175;0.0066600330173969
1768216544202931000;24.757930908203125;-0.9822845458984376;0.0565338134765625;0.0887603759765625;0.0110135022550821;-0.0675838366150856;0.0092912362888455
1768216544212931800;24.767931884765623;-0.9884796142578124;0.05517578125;0.091064453125;0.0124974157661199;-0.0684381797909736;0.0057742656208574
1768216544222932700;24.7779326171875;-0.993408203125;0.0589447021484375;0.0887451171875;0.014430871233344;-0.0528570897877216;0.0034333472140133
1768216544232934000;24.787933837890623;-1.00189208984375;0.062347412109375;0.093597412109375;0.0142029039561748;-0.0422127023339271;0.010439857840538
1768216544242934000;24.79793408203125;-0.9996337890625;0.0658721923828125;0.0972442626953125;0.0133600141853094;-0.0336410515010356;0.0186951234936714
1768216544252935000;24.807934814453127;-0.997528076171875;0.062347412109375;0.096954345703125;0.0096579538658261;-0.0236129183322191;0.0167363695800304
1768216544262935800;24.817935791015625;-0.9954833984375;0.0584564208984375;0.1009674072265625;0.0112992599606513;-0.0150085100904107;0.0108076399192214
1768216544272936000;24.82793603515625;-0.995269775390625;0.0540313720703125;0.0960540771484375;0.0110539821907877;0.0031941954512149;0.0029995182994753
1768216544282936800;24.837936767578125;-0.9982147216796876;0.050384521484375;0.090850830078125;0.0129347071051597;0.0175257306545972;0.0002836266648955
1768216544292938000;24.84793798828125;-0.9982452392578124;0.049591064453125;0.0897064208984375;0.018473282456398;0.0253080204129219;-0.0042373556643724
1768216544302938000;24.857938232421876;-0.99755859375;0.048492431640625;0.0903167724609375;0.0200120583176612;0.0252094827592372;-0.004880775231868
1768216544312939000;24.86793896484375;-1.000091552734375;0.04473876953125;0.09332275390625;0.0207574758678674;0.0242571365088224;-0.0013100089272484
1768216544322940000;24.87793994140625;-0.9998931884765624;0.045318603515625;0.0955352783203125;0.0202735792845487;0.0236850883811712;0.0059540290385484
1768216544332940800;24.88794091796875;-0.9969635009765624;0.043914794921875;0.094757080078125;0.0162753760814666;0.0282875634729862;0.0086020100861787
1768216544342941000;24.89794091796875;-0.996826171875;0.041046142578125;0.09332275390625;0.0175204034894704;0.0265442598611116;0.0093690007925033
1768216544352942000;24.90794213867187;-0.9971771240234376;0.04022216796875;0.092254638671875;0.0114936707541346;0.0179691463708877;0.0065678879618644
1768216544362943000;24.91794287109375;-1.0009307861328125;0.0377044677734375;0.0916595458984375;0.0096728671342134;0.0202554706484079;0.0047643953002989
1768216544372942800;24.92794287109375;-0.9996490478515624;0.0370941162109375;0.0946502685546875;0.0057268617674708;0.0233002621680498;0.00360565376468
1768216544382943700;24.93794384765625;-0.992431640625;0.037689208984375;0.0993194580078125;0.0050594732165336;0.028399683535099;0.0025134913157671
1768216544392945000;24.94794482421875;-0.98516845703125;0.0400390625;0.097442626953125;0.0028972530271857;0.0323209203779697;-0.0004775047709699
1768216544402945000;24.957945068359376;-0.97674560546875;0.04083251953125;0.0921478271484375;-0.0012237224727869;0.0336178801953792;-0.0091993575915694
1768216544412946000;24.96794580078125;-0.9716644287109376;0.0396270751953125;0.0805816650390625;-0.004373709205538;0.0359872952103614;-0.0229244902729988
1768216544422946800;24.97794677734375;-0.9770050048828124;0.0443115234375;0.0709228515625;-0.0065258098766207;0.0316090583801269;-0.0312061216682195
1768216544432948200;24.9879482421875;-0.986175537109375;0.0496063232421875;0.06451416015625;-0.0085942866280674;0.0222035720944404;-0.0277765039354562
1768216544442948000;24.997947998046875;-0.9911956787109376;0.052154541015625;0.0638427734375;-0.0114537235349416;0.0133512252941727;-0.0226067751646041
1768216544452949000;25.007948974609373;-0.9929962158203124;0.051055908203125;0.0717315673828125;-0.0114068519324064;0.0108617022633552;-0.020478643476963
1768216544462950000;25.017949951171875;-0.9892425537109376;0.0512847900390625;0.0814056396484375;-0.0118148475885391;0.0073780212551355;-0.0268169660121202
1768216544472950000;25.027949951171873;-0.9895782470703124;0.0505218505859375;0.0895538330078125;-0.0071207601577043;0.0151930674910545;-0.0277160499244928
1768216544482951000;25.037950927734375;-0.990081787109375;0.0544891357421875;0.0970306396484375;-0.0036738307680934;0.018742261454463;-0.0240829661488533
1768216544492952000;25.0479521484375;-0.9829254150390624;0.059539794921875;0.100372314453125;-0.002190982690081;0.0061266021803021;-0.0235260985791683
1768216544502952200;25.0579521484375;-0.9799957275390624;0.0621337890625;0.0989990234375;-3.16916157316e-05;-0.0149262184277176;-0.02133777923882
1768216544512953000;25.067953125;-0.9841156005859376;0.0640716552734375;0.1018524169921875;-0.0001653822982916;-0.0195694398134946;-0.0133349802345037
1768216544522954000;25.0779541015625;-0.9970550537109376;0.0606842041015625;0.1021270751953125;0.0031603733077645;-0.0108593059703707;-0.0198003370314836
1768216544532955000;25.087954833984377;-1.0065460205078125;0.0577545166015625;0.102630615234375;0.0029481193050742;-0.0001699096756055;-0.0310769584029912
1768216544542955000;25.097955078125;-1.00567626953125;0.05438232421875;0.1099853515625;0.0004295678809285;0.0008458199445158;-0.0410912446677684
1768216544552956200;25.1079560546875;-1.0052490234375;0.052459716796875;0.1104888916015625;0.0005624596378766;-0.003107908880338;-0.0433261692523956
1768216544562957000;25.11795703125;-1.0045623779296875;0.0490264892578125;0.110992431640625;-0.0007784419576637;-0.0025137576740235;-0.0338708832859993
1768216544572957000;25.12795703125;-1.0009002685546875;0.04364013671875;0.1121826171875;-0.002403502818197;-0.0081367557868361;-0.020002469420433
1768216544582958000;25.1379580078125;-1.0016937255859375;0.0435638427734375;0.1077423095703125;-0.0045129926875233;-0.0169560797512531;-0.0053668022155761
1768216544592959000;25.147958984375;-1.000518798828125;0.044464111328125;0.106048583984375;-0.0070983893238008;-0.037851508706808;0.0013419669121503
1768216544602959000;25.157958984375;-0.994842529296875;0.0491180419921875;0.11114501953125;-0.0064877266995608;-0.0510354861617088;0.01111869700253
1768216544612960000;25.1679599609375;-0.9935760498046876;0.049591064453125;0.1116943359375;-0.0081804320216178;-0.0466396734118461;0.0135730663314461
1768216544622961200;25.177961181640622;-0.99456787109375;0.04669189453125;0.1114349365234375;-0.0087610008195042;-0.036289032548666;0.0036898097023367
1768216544632962000;25.187962158203124;-0.99591064453125;0.0501251220703125;0.11041259765625;-0.0080110551789402;-0.0294034294784069;-0.0133048864081501
1768216544642962000;25.1979619140625;-0.9955902099609376;0.056976318359375;0.1082763671875;-0.0117418775334954;-0.0254723373800516;-0.0223388615995645
1768216544652962800;25.207962890625;-0.9956817626953124;0.0606842041015625;0.10430908203125;-0.0083484770730137;-0.0279581304639577;-0.0167909637093544
1768216544662964200;25.21796411132813;-0.99267578125;0.06292724609375;0.099273681640625;-0.0119815617799758;-0.0374847911298275;-0.0075942701660096
1768216544672964000;25.227964111328124;-0.987091064453125;0.0621337890625;0.0982208251953125;-0.010733338072896;-0.0494767390191555;-0.0026029737200587
1768216544682965000;25.237965087890625;-0.989105224609375;0.063568115234375;0.095367431640625;-0.009506419301033;-0.0505236275494098;0.0003925499331671
1768216544692966000;25.2479658203125;-0.9965057373046876;0.065185546875;0.0966339111328125;-0.0089596724137663;-0.0522802472114563;0.0047385622747242
1768216544702967000;25.257967041015625;-1.00067138671875;0.0694122314453125;0.099639892578125;-0.0065945195965468;-0.0506868809461593;0.0050141997635364
1768216544712967000;25.267966796875;-1.004180908203125;0.0700836181640625;0.10052490234375;-0.0042725093662738;-0.0436984784901142;-0.0006418218254111
1768216544722968000;25.277968017578125;-1.0005035400390625;0.0694122314453125;0.0996551513671875;-0.0041057956404984;-0.0438726507127285;-0.0085756452754139
1768216544732969000;25.287968994140623;-0.991912841796875;0.0640716552734375;0.0927276611328125;-0.0028589034918695;-0.0421168282628059;-0.0112965963780879
1768216544742969000;25.297968994140625;-0.9737396240234376;0.0647125244140625;0.104705810546875;0.0024240091443061;-0.0594199188053607;-0.0086952205747365
1768216544752970000;25.307969970703127;-0.973052978515625;0.0583648681640625;0.0951080322265625;0.0067319385707378;-0.0681425705552101;-0.001472728094086
1768216544762971000;25.317970947265625;-0.977203369140625;0.0590362548828125;0.0892791748046875;0.0083095952868461;-0.0705601871013641;0.006949252448976
1768216544772971300;25.32797119140625;-0.97735595703125;0.052001953125;0.0789794921875;0.0091045489534735;-0.074200727045536;0.0136162098497152
1768216544782972200;25.33797216796875;-0.986968994140625;0.0475311279296875;0.0726776123046875;0.0065084993839263;-0.0584161728620529;0.004628840368241
1768216544792973000;25.34797314453125;-1.000762939453125;0.04461669921875;0.0687255859375;0.0004902879591099;-0.0519558750092983;-0.007005977910012
1768216544802973000;25.357972900390624;-1.00860595703125;0.0451202392578125;0.0657806396484375;-0.0030858046375215;-0.0498061701655387;-0.0215468369424343
1768216544812974000;25.36797412109375;-1.01153564453125;0.04986572265625;0.0736083984375;-0.0067074373364448;-0.0479408949613571;-0.0240904223173856
1768216544822975000;25.37797509765625;-1.013580322265625;0.0528106689453125;0.081512451171875;-0.0059809270314872;-0.045527271926403;-0.0127735855057835
1768216544832976100;25.38797607421875;-1.0076751708984375;0.0531158447265625;0.080352783203125;-0.0052610747516155;-0.0389242283999919;-0.0049239182844758
1768216544842976000;25.39797607421875;-0.9976348876953124;0.047454833984375;0.0803985595703125;-0.0030660973861813;-0.0401958897709846;-0.004114051349461
1768216544852977200;25.40797705078125;-0.9904937744140624;0.04541015625;0.0814666748046875;-0.0038514635525643;-0.0380587019026279;-0.0103690177202224
1768216544862978000;25.41797802734375;-0.9896087646484376;0.046173095703125;0.08013916015625;-0.0061468421481549;-0.0475398227572441;-0.0109186936169862
1768216544872978000;25.42797802734375;-0.99151611328125;0.04931640625;0.07537841796875;-0.0009635316673666;-0.0380882620811462;-0.0162721797823905
1768216544882979000;25.43797900390625;-1.003509521484375;0.04937744140625;0.0718841552734375;0.0036935380194336;-0.0246203914284706;-0.0176170766353607
1768216544892980200;25.447980224609378;-0.9995269775390624;0.0478515625;0.0760345458984375;0.0056954361498355;-0.0262206848710775;-0.0238379538059234
1768216544902981000;25.457981201171876;-1.0005035400390625;0.04931640625;0.0765533447265625;0.009361277334392;-0.0198309626430273;-0.0270222965627908
1768216544912981000;25.46798095703125;-1.0010986328125;0.049652099609375;0.07659912109375;0.0079186428338289;-0.0131917018443346;-0.0212211329489946
1768216544922982000;25.47798193359375;-0.997589111328125;0.0528411865234375;0.075439453125;0.0097964378073811;-0.0148143656551837;-0.0142939845100045
1768216544932983000;25.48798315429687;-0.995391845703125;0.0554962158203125;0.074737548828125;0.0104957837611436;-0.024604145437479;-0.0103804692625999
1768216544942983200;25.497983154296875;-0.9945220947265624;0.053955078125;0.0747833251953125;0.0096435723826289;-0.0317038670182228;-0.0061891861259937
1768216544952984000;25.507984130859377;-0.9964752197265624;0.0546875;0.0745391845703125;0.0092624742537736;-0.0239412859082222;-0.0024064322933554
1768216544962985000;25.51798486328125;-1.0002899169921875;0.050201416015625;0.0764007568359375;0.009932791814208;-0.0126425586640834;-0.0046863644383847
1768216544972985000;25.527985107421873;-1.0018157958984375;0.04833984375;0.08056640625;0.0044341632165014;-0.0022261363919824;-0.0122002074494957
1768216544982986000;25.537986083984375;-0.9997100830078124;0.0500030517578125;0.085906982421875;-0.0006519418093375;-0.0089942943304777;-0.0238667167723178
1768216544992987100;25.547987060546873;-0.9914703369140624;0.0535736083984375;0.0938720703125;-0.0040751690976321;-0.0319443494081497;-0.0310612469911575
1768216545002987300;25.5579873046875;-0.9938507080078124;0.0582122802734375;0.09765625;-0.0079410141333937;-0.0474676489830017;-0.0277381539344787
1768216545012988200;25.56798828125;-0.9979705810546876;0.06317138671875;0.1005706787109375;-0.0056954361498355;-0.0595237798988819;-0.014299577102065
1768216545022989000;25.577989013671875;-0.9932708740234376;0.0653839111328125;0.1000518798828125;-0.0016397082945331;-0.0670275017619133;-0.0054797204211354
1768216545032990000;25.587989990234377;-0.9862213134765624;0.062896728515625;0.0919952392578125;-0.0009640643256716;-0.0736169591546058;-0.0048584048636257
1768216545042990000;25.597989990234375;-0.98291015625;0.060272216796875;0.0853729248046875;-0.0010247844038531;-0.0760550871491432;-0.0042794337496161
1768216545052991200;25.6079912109375;-0.9854278564453124;0.060211181640625;0.07830810546875;-0.0036328181158751;-0.0725037604570388;-0.0090771177783608
1768216545062992100;25.6179921875;-0.9819183349609376;0.059417724609375;0.0741729736328125;-0.0015792545164003;-0.0732832700014114;-0.021222997456789
1768216545072992000;25.627991943359376;-0.9894256591796876;0.0612335205078125;0.069793701171875;-0.0009558085002936;-0.0687100887298584;-0.0226480551064014
1768216545082993200;25.6379931640625;-1.0010223388671875;0.065582275390625;0.06439208984375;0.0001672465150477;-0.0543055832386016;-0.0145184891298413
1768216545092994000;25.647994140625;-1.0055999755859375;0.065032958984375;0.0635223388671875;-0.0026117621455341;-0.0512067265808582;-0.0056986319832503
1768216545102995000;25.65799487304687;-0.9948577880859376;0.064910888671875;0.0683441162109375;0.0030048445332795;-0.0740228295326232;-0.0106955207884311
1768216545112995000;25.6679951171875;-0.9816436767578124;0.061492919921875;0.0746307373046875;0.0063471118919551;-0.1011252850294113;-0.0152029208838939
1768216545122996000;25.677995849609378;-0.993316650390625;0.061920166015625;0.0764312744140625;0.0099453087896108;-0.10321906208992;-0.0220975782722234
1768216545132997000;25.6879970703125;-0.9892730712890624;0.05426025390625;0.081085205078125;0.0157970730215311;-0.0977950021624565;-0.0418025739490985
1768216545142997000;25.6979970703125;-1.004150390625;0.0543670654296875;0.0813140869140625;0.0109977899119257;-0.0917882397770881;-0.0510602556169033
1768216545152998000;25.707997802734376;-0.9915924072265624;0.0591888427734375;0.0791778564453125;0.0188410654664039;-0.1181013360619545;-0.0637968257069587
1768216545162999000;25.7179990234375;-1.0000457763671875;0.0561676025390625;0.0682373046875;0.0162985455244779;-0.1375962048768997;-0.0570856556296348
1768216545172999200;25.727999267578124;-0.9781036376953124;0.0563201904296875;0.075286865234375;0.0141815990209579;-0.1892823129892349;-0.0670168474316597
1768216545183000000;25.738;-0.9808807373046876;0.0509033203125;0.0656585693359375;0.0091386372223496;-0.1890492886304855;-0.0742231011390686
1768216545193001000;25.7480009765625;-0.9969635009765624;0.0496978759765625;0.0630340576171875;0.000705471378751;-0.1818382441997528;-0.0692397877573967
1768216545203001000;25.7580009765625;-1.0037078857421875;0.04827880859375;0.0529632568359375;-0.0083396891131997;-0.1625388413667678;-0.0521968901157379
1768216545213002000;25.768001953125;-1.013214111328125;0.0545501708984375;0.0452117919921875;-0.0135166076943278;-0.124650053679943;-0.0192559864372015
1768216545223003100;25.778003173828125;-1.014617919921875;0.0621337890625;0.0410614013671875;-0.020471453666687;-0.1155148744583129;-0.0028932581190019
1768216545233004000;25.788004150390623;-1.06927490234375;0.06988525390625;0.0278778076171875;-0.0220126248896121;0.052304483950138;0.075258269906044
1768216545243004200;25.798004150390625;-1.026824951171875;0.0632476806640625;0.0126495361328125;-0.0254773963242769;0.0680024847388267;0.0443791821599006
1768216545253005000;25.808005126953127;-0.99530029296875;0.0586395263671875;0.0512847900390625;-0.0163624621927738;0.0876907035708427;0.0503204278647899
1768216545263006000;25.818005859375;-1.038116455078125;0.0608062744140625;0.05255126953125;-0.0093610109761357;0.1292219012975692;0.079227976500988
1768216545273006000;25.828006103515627;-1.030120849609375;0.0623016357421875;0.0491790771484375;-0.0102845951914787;0.1403131633996963;0.0884193480014801
1768216545283007200;25.83800732421875;-0.9886016845703124;0.056304931640625;0.061126708984375;-0.0025228124577552;0.1183836311101913;0.0774553790688514
1768216545293008100;25.848008056640627;-0.9818267822265624;0.053070068359375;0.057037353515625;-0.003738012863323;0.0606806576251983;0.0586068555712699
1768216545303009000;25.858009033203125;-0.960052490234375;0.0500030517578125;0.0559844970703125;-0.0121562648564577;-0.0049436260014772;0.0253676753491163
1768216545313009000;25.8680087890625;-0.9734649658203124;0.04718017578125;0.05865478515625;-0.0209915675222873;-0.0007502124644815;0.0245532803237438
1768216545323010000;25.878010009765624;-1.009918212890625;0.057830810546875;0.0567169189453125;-0.0270846150815486;0.0355004705488681;0.0345039144158363
1768216545333011200;25.88801123046875;-0.9950103759765624;0.0615081787109375;0.0657806396484375;-0.0230944007635116;0.0310010593384504;0.0450316555798053
1768216545343011000;25.898010986328124;-0.99029541015625;0.0615692138671875;0.070648193359375;-0.0173241291195154;0.0236989371478557;0.0406198650598526
1768216545353012000;25.908011962890622;-0.9843597412109376;0.0546875;0.0742034912109375;-0.0178200099617242;0.0022929816041141;0.0263381302356719
1768216545363013000;25.91801318359375;-0.97113037109375;0.0508880615234375;0.071136474609375;-0.0183939207345247;-0.0408526249229908;0.0076251626014709
1768216545373013000;25.92801293945313;-0.9766998291015624;0.0489501953125;0.0668182373046875;-0.0232033226639032;-0.0562398359179496;-0.0023198795970529
1768216545383014000;25.938013916015624;-0.993682861328125;0.0520782470703125;0.0608673095703125;-0.0272105820477008;-0.048845037817955;-0.0047790426760911
1768216545393015000;25.94801513671875;-0.9950103759765624;0.0537109375;0.06451416015625;-0.0263138953596353;-0.0501928627490997;-0.0095058875158429
1768216545403015200;25.95801513671875;-0.9915924072265624;0.05426025390625;0.068267822265625;-0.0238137207925319;-0.0564305186271667;-0.0178895182907581
1768216545413016600;25.9680166015625;-0.9901885986328124;0.0596771240234375;0.0681610107421875;-0.017377657815814;-0.0612084977328777;-0.0224581714719533
1768216545423017700;25.978017822265624;-0.9929046630859376;0.0603179931640625;0.067474365234375;-0.0172940362244844;-0.0581778176128864;-0.0176421105861663
1768216545433018600;25.9880185546875;-1.0055694580078125;0.0578765869140625;0.05853271484375;-0.0159139856696128;-0.0383130349218845;-0.0077159767970442
1768216545443018800;25.998018798828124;-1.0059967041015625;0.056549072265625;0.0592498779296875;-0.0149701610207557;-0.0391474030911922;-0.003149454249069
1768216545453019600;26.00801953125;-1.003204345703125;0.054534912109375;0.0560302734375;-0.0156564582139253;-0.0420808754861354;-3.08926682919e-05
1768216545463020500;26.0180205078125;-1.011474609375;0.0595245361328125;0.0552520751953125;-0.0142351286485791;-0.0312804244458675;0.0092030856758356
1768216545473020700;26.028020751953125;-1.0028533935546875;0.057769775390625;0.055938720703125;-0.0106550408527255;-0.027567446231842;0.0080786990001797
1768216545483021800;26.038021728515623;-0.9986572265625;0.0554046630859375;0.0559234619140625;-0.0083700492978096;-0.0175635479390621;0.0058251321315765
1768216545493022700;26.048022705078125;-0.991943359375;0.0565032958984375;0.0591278076171875;-0.010137322358787;-0.0233508627861738;-0.0033617082517594
1768216545503023600;26.058023681640623;-0.996063232421875;0.055328369140625;0.056732177734375;-0.0074717649258673;-0.0160535350441932;-0.011765313334763
1768216545513023500;26.0680234375;-0.996429443359375;0.052947998046875;0.051513671875;-0.0056011602282524;-0.0113384081050753;-0.0122654549777507
1768216545523024600;26.078024658203127;-0.991485595703125;0.0553131103515625;0.0509796142578125;-0.0040293629281222;-0.0145128965377807;-0.007807589136064
1768216545533025800;26.08802587890625;-0.9949493408203124;0.054168701171875;0.0475921630859375;-0.0039361519739031;-0.0226190257817506;-0.0042647859081625
1768216545543025700;26.098025634765627;-0.9959716796875;0.0574188232421875;0.048675537109375;-0.0012506204657256;-0.0254718046635389;-0.0050679952837526
1768216545553026600;26.108026611328125;-0.99627685546875;0.0560150146484375;0.051849365234375;0.0006508765509352;-0.0284540113061666;-0.0095367794856429
1768216545563027700;26.11802783203125;-1.0019378662109375;0.0536346435546875;0.052825927734375;0.0021401161793619;-0.0194685067981481;-0.0095519600436091
1768216545573027600;26.128027587890625;-1.0067138671875;0.0541534423828125;0.052093505859375;0.0030738206114619;-0.0044962149113416;-0.0080110551789402
1768216545583028500;26.138028564453126;-1.00164794921875;0.0533294677734375;0.0499420166015625;0.0017592841759324;0.00197100546211;-0.0068011805415153
1768216545593029600;26.148029541015624;-1.0027618408203125;0.0551605224609375;0.05035400390625;-0.0003715109778568;0.00932053104043;-0.0016476977616548
1768216545603029800;26.15802978515625;-1.0037078857421875;0.0562744140625;0.0535430908203125;0.0006700513185933;0.0117448065429925;0.0012032161466777
1768216545613030700;26.16803076171875;-0.9972381591796876;0.0560302734375;0.056304931640625;-0.0006511429091915;0.0069348714314401;-0.0023457121569663
1768216545623031600;26.178031494140622;-0.9976348876953124;0.05859375;0.05853271484375;0.001432248041965;0.0100688794627785;-0.001146490802057
1768216545633032400;26.188032470703124;-0.997589111328125;0.06182861328125;0.0590362548828125;0.0040096552111208;0.0056797238066792;-2.53000307566e-05
1768216545643032600;26.19803247070313;-0.9927520751953124;0.0583648681640625;0.0591278076171875;0.0029558425303548;-0.0033651704434305;-0.0007824367494322
1768216545653033700;26.20803369140625;-0.996002197265625;0.0579376220703125;0.05499267578125;0.0024804682470858;-0.0014948323369026;0.0017939052777364
1768216545663034600;26.21803466796875;-0.9990234375;0.0561676025390625;0.0553436279296875;0.0033465281594544;0.0020314592402428;-0.0001829591637942
1768216545673034800;26.22803466796875;-0.995819091796875;0.0537261962890625;0.0574493408203125;0.0038091193418949;0.0043113916181027;-0.0012463594321161
1768216545683035600;26.23803564453125;-0.99615478515625;0.05206298828125;0.0532073974609375;0.0057915765792131;0.0080784326419234;-0.0028727517928928
1768216545693036500;26.24803662109375;-0.9969329833984376;0.0514678955078125;0.0489959716796875;0.0057787932455539;0.0114950025454163;-0.003836017102003
1768216545703036700;26.25803662109375;-0.9969329833984376;0.0510101318359375;0.046783447265625;0.007953530177474;0.0162663217633962;-0.0066608320921659
1768216545713037800;26.268037841796875;-0.99896240234375;0.04937744140625;0.0464935302734375;0.0042970106005668;0.0213199350982904;-0.0075644426979124
1768216545723038700;26.278038818359377;-0.9981536865234376;0.0474395751953125;0.0487060546875;0.0051787830889225;0.0298865269869565;-0.0060538975521922
1768216545733039600;26.28803955078125;-0.99554443359375;0.0474395751953125;0.05224609375;0.0051377704367041;0.03735376521945;-0.0053079463541507
1768216545743039500;26.29803955078125;-0.9930419921875;0.04803466796875;0.05389404296875;0.0058403122238814;0.0331859178841114;-0.0055668056011199
1768216545753040600;26.30804052734375;-0.9908599853515624;0.0475311279296875;0.057647705078125;0.0059801279567182;0.0281184539198875;-0.0084864292293787
1768216545763041800;26.318041748046873;-0.9965362548828124;0.051239013671875;0.0611419677734375;0.0077508641406893;0.0306407324969768;-0.0088709890842437
1768216545773041700;26.328041748046875;-1.0010986328125;0.0561676025390625;0.0630035400390625;0.0083996104076504;0.0320032052695751;-0.0075388764962553
1768216545783042600;26.33804248046875;-1.0019073486328125;0.0575103759765625;0.065399169921875;0.007432616315782;0.0199180487543344;-0.0007392935222014
1768216545793043700;26.348043701171875;-1.0034027099609375;0.06219482421875;0.0655975341796875;0.0074185016565024;0.0133576169610023;0.0081628551706671
1768216545803043600;26.358043701171876;-1.0072021484375;0.0646820068359375;0.0609130859375;0.0029555761720985;0.0073753581382334;0.0162143893539905
1768216545813044500;26.36804443359375;-1.0055999755859375;0.0644989013671875;0.059112548828125;-0.0028778119012713;-0.0007278419216163;0.0166407618671655
1768216545823045600;26.378045654296876;-1.00665283203125;0.066802978515625;0.058013916015625;-0.0069990535266697;-0.0036125779151916;0.0180825982242822
1768216545833046800;26.388046875;-1.0082244873046875;0.0678253173828125;0.057830810546875;-0.0111008547246456;-0.003050118451938;0.0184272099286317
1768216545843046700;26.398046630859376;-1.00677490234375;0.065338134765625;0.0612945556640625;-0.0132806515321135;-0.0020841897930949;0.0144372629001736
1768216545853047600;26.40804760742187;-1.0041961669921875;0.0655364990234375;0.0615997314453125;-0.0167129337787628;-0.0033553165849298;0.0111394701525568
1768216545863048400;26.41804833984375;-1.0003814697265625;0.068572998046875;0.0621185302734375;-0.0184410586953163;-0.0079769659787416;0.0066025089472532
1768216545873048600;26.428048583984378;-0.99664306640625;0.0661163330078125;0.060272216796875;-0.0177433099597692;-0.0121650537475943;0.0033609091769903
1768216545883049700;26.4380498046875;-0.99468994140625;0.0652313232421875;0.0552215576171875;-0.0156154446303844;-0.012941631488502;0.0015571502735838
1768216545893050600;26.448050537109378;-0.9942779541015624;0.0617523193359375;0.049041748046875;-0.0161563325673341;-0.0127384318038821;0.0041337586008012
1768216545903050800;26.45805078125;-0.9972076416015624;0.059356689453125;0.0458984375;-0.0120494719594717;-0.0108150970190763;0.0055212653242051
1768216545913051600;26.4680517578125;-0.9922637939453124;0.0539703369140625;0.044464111328125;-0.0076547237113118;-0.0081788338720798;0.008103466592729
1768216545923052500;26.478052490234376;-0.987060546875;0.0499267578125;0.0435791015625;-0.0038826225791126;-0.0005920206895098;0.0118268318474292
1768216545933053700;26.4880537109375;-0.9882354736328124;0.0450286865234375;0.04791259765625;-0.0002340918581467;0.0123346969485282;0.0105112306773662
1768216545943053800;26.4980537109375;-0.984649658203125;0.0393218994140625;0.05096435546875;0.0068906629458069;0.0222243461757898;0.0049588060937821
1768216545953054700;26.5080546875;-0.98358154296875;0.0366973876953125;0.0473785400390625;0.007970574311912;0.0218791998922824;0.0041188448667526
1768216545963055600;26.5180556640625;-0.9819183349609376;0.0386505126953125;0.0444488525390625;0.0119634522125124;0.0088424934074282;0.0052091432735323
1768216545973055500;26.528055419921873;-0.9844970703125;0.036712646484375;0.046142578125;0.0124750453978776;0.0040006004273891;0.005142830312252
1768216545983056600;26.538056640625;-0.9929656982421876;0.036895751953125;0.05023193359375;0.0104177538305521;0.0123107284307479;0.0034634410403668
1768216545993057800;26.548057861328125;-0.99444580078125;0.0365447998046875;0.056121826171875;0.01174081210047;0.0096257291734218;0.0021190773695707
1768216546003057700;26.5580576171875;-0.9933929443359376;0.0349273681640625;0.056854248046875;0.0128156635910272;0.0116284266114234;-0.0029872676823288
1768216546013058600;26.56805859375;-0.9977569580078124;0.03485107421875;0.0581817626953125;0.0114337494596838;0.0165829714387655;-0.0071902684867382
1768216546023059700;26.578059814453123;-1.0037384033203125;0.0399932861328125;0.05938720703125;0.0093407714739441;0.0168615374714136;-0.0122516062110662
1768216546033060600;26.588060546875;-1.007659912109375;0.044189453125;0.0567626953125;0.0072659021243453;0.0128018148243427;-0.0107498494908213
1768216546043060700;26.598060791015627;-1.0054931640625;0.0508575439453125;0.0587310791015625;0.0018061558948829;0.008797219954431;-0.0067167584784328
1768216546053061600;26.6080615234375;-1.0105438232421875;0.05322265625;0.0598602294921875;-0.0011717908782884;0.0116137787699699;-0.005363340023905
1768216546063062800;26.618062744140627;-1.0145416259765625;0.0542144775390625;0.0611572265625;-0.0033683660440146;0.0125959524884819;-0.0101173492148518
1768216546073062700;26.628062744140625;-1.014678955078125;0.0590057373046875;0.0643310546875;-0.0056509613059461;0.0097181415185332;-0.016013054177165
1768216546083063600;26.6380634765625;-1.0103302001953125;0.0619354248046875;0.066864013671875;-0.0019845876377075;0.004529770463705;-0.014549913816154
1768216546093064400;26.648064453125;-1.006195068359375;0.0613555908203125;0.0639495849609375;-0.001571797649376;0.0058754659257829;-0.0111285513266921
1768216546103064800;26.65806494140625;-1.0031890869140625;0.0589599609375;0.0599822998046875;-0.0020351877901703;0.0092409029603004;-0.0110635701566934
1768216546113065700;26.668065673828124;-0.999664306640625;0.0588226318359375;0.0577545166015625;-0.0014213290996849;0.0048320395871996;-0.0128641333431005
1768216546123066600;26.678066650390623;-0.9943695068359376;0.06103515625;0.05682373046875;-0.0019329222850501;0.0012234562309458;-0.0129301799461245
1768216546133066800;26.688066650390624;-0.989166259765625;0.060760498046875;0.0564117431640625;-0.002591788303107;-0.0045388252474367;-0.0055154063738882
1768216546143067600;26.69806762695313;-0.986480712890625;0.0592041015625;0.0527191162109375;-0.0037055222783237;-0.0088880341500043;0.000250603450695
1768216546153068800;26.70806884765625;-0.984466552734375;0.056732177734375;0.051025390625;-0.0057012951001524;-0.011418835259974;0.0017062872648239
1768216546163069700;26.71806958007813;-0.9869384765625;0.0574493408203125;0.05426025390625;-0.002959837205708;-0.0093335807323455;-0.0043516051955521
1768216546173069800;26.72806982421875;-0.9918365478515624;0.0560760498046875;0.0528411865234375;-0.0021318604703992;0.000258326617768;-0.0064299362711608
1768216546183070700;26.73807080078125;-0.9935455322265624;0.055816650390625;0.0535125732421875;-0.0016828514635562;0.0014266553334891;-0.0072643044404685
1768216546193071600;26.748071533203124;-0.9903411865234376;0.058685302734375;0.055328369140625;0.0011278487509116;-0.0010072075529024;-0.0026620957069098
1768216546203071500;26.758071533203125;-0.9857940673828124;0.0573883056640625;0.05487060546875;-0.0008378304773941;-0.0010213222121819;0.0050147324800491
1768216546213073000;26.768072998046875;-0.9852447509765624;0.055419921875;0.0561065673828125;0.0007733819657005;-0.0025033713318407;0.004922320600599
1768216546223073800;26.77807373046875;-0.99078369140625;0.0524139404296875;0.05499267578125;-0.0006535397260449;-0.005175054538995;0.0053865094669163
1768216546233073700;26.78807373046875;-0.9941253662109376;0.0518951416015625;0.055755615234375;-2.45010814978e-05;-0.0099570266902446;0.0132633410394191
1768216546243074600;26.798074462890625;-0.9975738525390624;0.0506591796875;0.0576629638671875;-0.0015014902455732;-0.0114446682855486;0.018600583076477
1768216546253075700;26.80807568359375;-1.001861572265625;0.0512237548828125;0.05743408203125;-0.0009355684742331;-0.0069037126377224;0.019352126866579
1768216546263076600;26.81807666015625;-1.002777099609375;0.049041748046875;0.0540618896484375;-0.0022959110792726;-0.0076525933109223;0.015906261280179
1768216546273076700;26.82807666015625;-1.0063629150390625;0.0493011474609375;0.052581787109375;-0.0040272320620715;-0.0073212962597608;0.0124223148450255
1768216546283077600;26.83807763671875;-1.0115203857421875;0.0505523681640625;0.0513153076171875;-0.0035963326226919;-0.0011709919199347;0.0090725906193256
1768216546293078800;26.848078857421875;-1.0103759765625;0.0506744384765625;0.0555419921875;-0.0045747780241072;0.001743305241689;0.0037899445742368
1768216546303078700;26.85807861328125;-1.00518798828125;0.05267333984375;0.0604705810546875;-0.0002375539625063;0.0071569788269698;0.0015523566398769
1768216546313079600;26.86807958984375;-1.006256103515625;0.052459716796875;0.0604095458984375;-0.0009888317435979;0.0078134480863809;-0.0002671150432433
1768216546323080700;26.878080810546876;-0.9949493408203124;0.0538482666015625;0.061798095703125;0.0023065637797117;-0.0007041397620923;-0.0038786276709288
1768216546333080800;26.88808081054687;-0.990570068359375;0.05169677734375;0.0590057373046875;0.0013832458062097;-0.0095935054123401;-0.0075729647651314
1768216546343081700;26.898081787109376;-0.9900360107421876;0.048919677734375;0.053680419921875;0.0030975225381553;-0.0110646355897188;-0.0060610882937908
1768216546353082600;26.90808251953125;-0.9922027587890624;0.0449981689453125;0.0512237548828125;-3.9148468204e-05;-0.0101104248315095;-0.0066592344082891
1768216546363083500;26.91808349609375;-0.9950103759765624;0.0472564697265625;0.0504150390625;-0.0027166905347257;-0.0100222742184996;-0.004422711674124
1768216546373083600;26.928083740234374;-0.995147705078125;0.0506744384765625;0.0487213134765625;-0.0022788669448345;-0.006614226847887;0.0009707222343422
1768216546383084800;26.938084716796876;-0.997833251953125;0.0475921630859375;0.0486602783203125;-0.0039007319137454;-0.0002559297718107;0.0013395700370892
1768216546393085700;26.948085693359378;-0.9981689453125;0.046234130859375;0.0517425537109375;-0.0037353497464209;0.0074869445525109;-0.0003949467791244
1768216546403085800;26.9580859375;-0.9943695068359376;0.050201416015625;0.0543212890625;-0.0012793826172128;0.0137123502790927;-0.0055399076081812
1768216546413087000;26.9680869140625;-0.9918365478515624;0.0488128662109375;0.054595947265625;0.0008383630774915;0.0162554029375314;-0.0069053103215992
1768216546423087900;26.978087890625;-0.9912261962890624;0.0482635498046875;0.05242919921875;0.0009432916413061;0.0117136472836136;-0.0082286354154348
1768216546433087700;26.988087646484377;-0.9904327392578124;0.0491485595703125;0.0511932373046875;-0.0005467469454742;0.0080110551789402;-0.0045438855886459
1768216546443089000;26.9980888671875;-0.9927825927734376;0.053955078125;0.0510101318359375;-0.0007595335482619;0.0040405481122434;-0.0043862261809408
1768216546453090000;27.008090087890626;-0.9987945556640624;0.05377197265625;0.0532684326171875;-0.0020596887916326;0.0091255875304341;-0.006059490609914
1768216546463091000;27.018091064453124;-1.002532958984375;0.0530853271484375;0.0576019287109375;-0.0035467979032546;0.0126857012510299;-0.0111879399046301
1768216546473090800;27.0280908203125;-1.005401611328125;0.0545501708984375;0.058319091796875;-0.0060421796515583;0.0176010970026254;-0.013717676512897
1768216546483091700;27.038091796875;-1.0070648193359375;0.0531463623046875;0.0591583251953125;-0.006115682888776;0.0196868851780891;-0.0153238289058208
1768216546493093000;27.048093017578125;-1.005828857421875;0.052520751953125;0.055755615234375;-0.0064563015475869;0.0220195483416318;-0.0167994871735572
1768216546503093000;27.058093017578123;-1.00506591796875;0.0527496337890625;0.053741455078125;-0.0051777176558971;0.0242257118225097;-0.0148921301588416
1768216546513094000;27.068093994140625;-1.0050048828125;0.051422119140625;0.050140380859375;-0.0075742965564131;0.0303533785045146;-0.016842097043991
1768216546523094800;27.0780947265625;-1.0045318603515625;0.0507659912109375;0.05047607421875;-0.006130862981081;0.0421088375151157;-0.0185364000499248
1768216546533095000;27.088094970703125;-1.0102386474609375;0.05072021484375;0.0513763427734375;-0.0067074373364448;0.0475704483687877;-0.0229042507708072
1768216546543095800;27.098095703125;-1.0142669677734375;0.0563201904296875;0.0565338134765625;-0.007245129905641;0.0602492243051528;-0.0253788605332374
1768216546553097000;27.108096923828125;-1.0147857666015625;0.05670166015625;0.0577545166015625;-0.0035960664972662;0.0615853331983089;-0.0303760152310132
1768216546563097900;27.118097900390627;-1.0111083984375;0.055633544921875;0.0621337890625;-0.000964596925769;0.0630223751068115;-0.0329291895031929
1768216546573098000;27.128097900390625;-1.005889892578125;0.05523681640625;0.066192626953125;0.0008833705214783;0.050769705325365;-0.0337457135319709
1768216546583099000;27.138098876953126;-1.001800537109375;0.0535736083984375;0.0615997314453125;0.0014295848086476;0.0425298847258091;-0.027149062603712
1768216546593099800;27.148099853515625;-0.9986419677734376;0.052825927734375;0.0638275146484375;0.0023521038237959;0.0281762443482875;-0.0141531033441424
1768216546603100000;27.158099853515623;-0.993011474609375;0.0535888671875;0.063873291015625;0.0011933625210076;0.0172945670783519;0.0033617082517594
1768216546613101000;27.16810107421875;-0.9889984130859376;0.053802490234375;0.0628662109375;0.0010591391474008;0.0075852153822779;0.0113277556374669
1768216546623102000;27.17810205078125;-0.980377197265625;0.0509796142578125;0.062042236328125;0.0005965480813756;0.0009691243176348;0.0021611552219837
1768216546633101800;27.188101806640624;-0.98150634765625;0.0516357421875;0.0602874755859375;-0.00099042954389;0.0077005303464829;-0.0079495357349514
1768216546643103000;27.19810302734375;-0.9902496337890624;0.0528717041015625;0.0576324462890625;-0.0027542412281036;0.0164431557059288;-0.0135150095447897
1768216546653103900;27.208103759765624;-0.9907379150390624;0.055084228515625;0.0562744140625;-0.0057135457172989;0.0173837840557098;-0.0147443246096372
1768216546663103700;27.218103759765626;-0.9892730712890624;0.058197021484375;0.0548248291015625;-0.0058301920071244;0.0176205392926931;-0.0138873197138309
1768216546673105000;27.22810498046875;-0.9904022216796876;0.058685302734375;0.05340576171875;-0.0045257760211825;0.0170255880802869;-0.0092217279598116
1768216546683106000;27.23810595703125;-0.990478515625;0.05572509765625;0.0529632568359375;-0.0061420481652021;0.0189467929303646;-0.009345831349492
1768216546693107000;27.24810693359375;-0.99505615234375;0.0530242919921875;0.0537109375;-0.0049705239944159;0.0242110639810562;-0.0087863011285662
1768216546703106800;27.25810693359375;-0.9987640380859376;0.054290771484375;0.056732177734375;-0.0039633163250982;0.0322745814919471;-0.00787203758955
1768216546713107700;27.268107666015624;-1.0019378662109375;0.0542144775390625;0.05877685546875;-0.0015395734226331;0.0359366945922374;-0.0102249402552843
1768216546723109000;27.278109130859377;-1.0055694580078125;0.05596923828125;0.0621490478515625;0.0009821738349273;0.0410201363265514;-0.0087612671777606
1768216546733109000;27.28810888671875;-1.005889892578125;0.057708740234375;0.0658416748046875;0.0045947516337037;0.0400068052113056;-0.0083740437403321
1768216546743110000;27.29810986328125;-1.000885009765625;0.05767822265625;0.0664215087890625;0.0060288640670478;0.0338168181478977;-0.0054829157888889
1768216546753110800;27.30811083984375;-0.99444580078125;0.05731201171875;0.066741943359375;0.0075338161550462;0.0217718742787837;-0.004096208140254
1768216546763111000;27.31811083984375;-0.991851806640625;0.056915283203125;0.0661163330078125;0.0065830680541694;0.0148814776912331;-0.0018405106384307
1768216546773111800;27.32811181640625;-0.9895172119140624;0.05450439453125;0.062255859375;0.0052940980531275;0.0150708286091685;0.0004063983797095
1768216546783113000;27.338113037109373;-0.9924468994140624;0.0511932373046875;0.05914306640625;0.0011150655336678;0.0151073141023516;-0.0048650624230504
1768216546793113900;27.34811376953125;-0.9923553466796876;0.0480499267578125;0.057525634765625;-0.0035105790011584;0.0144079681485891;-0.0107543766498565
1768216546803114000;27.358114013671877;-0.9959716796875;0.049285888671875;0.056793212890625;-0.0037984666414558;0.0212283227592706;-0.0139280660077929
1768216546813115000;27.368114990234375;-1.0018310546875;0.0510101318359375;0.0557403564453125;-0.0045414883643388;0.0255831237882375;-0.0124992802739143
1768216546823115800;27.37811572265625;-1.0051422119140625;0.051361083984375;0.055389404296875;-0.0044922200031578;0.0284686591476202;-0.0101003050804138
1768216546833116000;27.388115966796875;-1.005340576171875;0.0514984130859375;0.056884765625;-0.0076576531864702;0.0270715653896331;-0.0070911990478634
1768216546843117000;27.398116943359376;-1.000640869140625;0.0531463623046875;0.0593109130859375;-0.0072286180220544;0.0243082698434591;-0.0012495551491156
1768216546853118000;27.408117919921875;-0.9987945556640624;0.052703857421875;0.0594635009765625;-0.0046426886692643;0.0254441071301698;0.00375372543931
1768216546863117800;27.418117919921876;-0.996185302734375;0.05230712890625;0.06011962890625;-0.0033728934358805;0.0232749618589878;0.0018554243724793
1768216546873119000;27.428118896484374;-0.9925537109375;0.0533599853515625;0.0617828369140625;-0.0027095000259578;0.0189622398465871;-0.0011845740955322
1768216546883119900;27.438119873046876;-0.993316650390625;0.0547332763671875;0.066680908203125;-0.0021872541401535;0.0121125895529985;-0.000446612102678
1768216546893121000;27.44812109375;-0.995941162109375;0.055816650390625;0.0674285888671875;-0.0020136160310357;0.0066115637309849;0.0068094367161393
1768216546903121000;27.458120849609376;-1.00091552734375;0.0562591552734375;0.0662689208984375;-0.0011603393359109;0.0086129289120435;0.0138609539717435
1768216546913122000;27.4681220703125;-0.993316650390625;0.053558349609375;0.070098876953125;-0.0042512039653956;0.010694989003241;0.0060331248678267
1768216546923123000;27.478123046875;-0.995208740234375;0.0528717041015625;0.0717926025390625;-0.0007523429812863;0.011723767966032;-0.0043814326636493
1768216546933122800;27.488122802734377;-0.9995269775390624;0.0572509765625;0.0740814208984375;-0.0013281183782964;0.0130766537040472;-0.0094627439975738
1768216546943123700;27.498123779296876;-0.9985198974609376;0.06024169921875;0.0733184814453125;-0.0018335863715037;0.0131304496899247;-0.00698067760095
1768216546953125000;27.508125;-0.9913330078125;0.06182861328125;0.0739288330078125;-0.0034626419655978;0.0130580114200711;0.0004783037293236
1768216546963125000;27.518125;-0.9868621826171876;0.0585479736328125;0.0681915283203125;-0.0023007048293948;0.0145251471549272;0.0017579526174813
1768216546973126000;27.5281259765625;-0.9891204833984376;0.0544281005859375;0.062744140625;-0.0069215558469295;0.0128164626657962;0.0007731156656518
1768216546983126800;27.538126708984375;-0.990020751953125;0.0540618896484375;0.0620269775390625;-0.0069881347008049;0.0066999807022511;-0.0035958001390099
1768216546993128000;27.5481279296875;-0.9932098388671876;0.0534820556640625;0.0611114501953125;-0.0074275564402341;0.0098651479929685;-0.0052339104004204
1768216547003127800;27.5581279296875;-0.996307373046875;0.0537109375;0.0615081787109375;-0.0067055732943117;0.010766627267003;-0.0039129825308918
1768216547013129000;27.56812890625;-0.996856689453125;0.05462646484375;0.06097412109375;-0.0045103295706212;0.0097761983051896;-0.0049108690582215
1768216547023129900;27.5781298828125;-0.9990386962890624;0.0517120361328125;0.061981201171875;-0.0043558664619922;0.0113485278561711;-0.0033156354911625
1768216547033130000;27.5881298828125;-1.0014495849609375;0.0522613525390625;0.06085205078125;-0.0022833943367004;0.013213007710874;-0.003507649526
1768216547043131000;27.598130859375;-1.0034942626953125;0.0529327392578125;0.0633392333984375;-0.0026565031148493;0.0168495532125234;-0.0062456452287733
1768216547053131800;27.6081318359375;-1.002838134765625;0.0518951416015625;0.0652008056640625;-0.0023939155507832;0.0151118412613868;-0.0112870093435049
1768216547063132000;27.6181318359375;-1.0037078857421875;0.0521087646484375;0.066680908203125;-0.0025515747256577;0.0152663048356771;-0.0128500182181596
1768216547073133000;27.628133056640625;-0.9990692138671876;0.05242919921875;0.0650482177734375;-0.0004479436902329;0.007964183576405;-0.0139216743409633
1768216547083134000;27.638134033203126;-0.996063232421875;0.0509796142578125;0.0633544921875;-0.0024485103785991;0.0046770432963967;-0.0116191050037741
1768216547093133800;27.6481337890625;-0.9953460693359376;0.0512237548828125;0.0633087158203125;-0.0043116579763591;-0.0003571299021132;-0.0079308934509754
1768216547103135000;27.658135009765623;-0.9965057373046876;0.0521392822265625;0.062957763671875;-0.0059907808899879;0.0018431737553328;0.0013480921043083
1768216547113135900;27.668135986328124;-0.9983673095703124;0.0518798828125;0.0618133544921875;-0.0077157104387879;0.0055215316824615;0.0029198897536844
1768216547123137000;27.678136962890623;-0.994598388671875;0.052154541015625;0.0635833740234375;-0.006024869158864;0.0043718451634049;0.0001190433031297
1768216547133137000;27.688136962890624;-0.9952545166015624;0.05322265625;0.062896728515625;-0.0059127500280737;0.0050919638015329;-0.0043380232527852
1768216547143138000;27.69813793945313;-0.9968719482421876;0.0529327392578125;0.0605010986328125;-0.0059513659216463;0.0092353103682398;-0.0083005400374531
1768216547153139000;27.708138916015624;-1.00244140625;0.055908203125;0.0617523193359375;-0.0073551181703805;0.0168391671031713;-0.0024817998055368
1768216547163138800;27.718138916015626;-1.0019683837890625;0.0540618896484375;0.06201171875;-0.0077500650659203;0.01519067119807;0.0014833806781098
1768216547173139700;27.7281396484375;-0.999420166015625;0.0543670654296875;0.061370849609375;-0.0073636402375996;0.0166926942765712;0.002976348856464
1768216547183141000;27.73814111328125;-0.9999542236328124;0.054443359375;0.06427001953125;-0.0089042792096734;0.0196730364114046;0.0092036183923482
1768216547193141000;27.74814111328125;-1.0056915283203125;0.0562744140625;0.0740814208984375;-0.0083966804668307;0.0241452828049659;0.0228512529283761
1768216547203142000;27.758141845703125;-0.998382568359375;0.0533905029296875;0.06610107421875;-0.0120875556021928;0.0265738200396299;0.0235585886985063
1768216547213142800;27.768142822265624;-0.993255615234375;0.0513458251953125;0.067474365234375;-0.0121775707229971;0.0155704375356435;0.0238547325134277
1768216547223144000;27.77814404296875;-0.9971466064453124;0.056793212890625;0.0761566162109375;-0.0084195835515856;0.0075567197054624;0.0240904223173856
1768216547233143800;27.788143798828123;-0.999420166015625;0.055145263671875;0.0706024169921875;-0.008665126748383;0.0030154972337186;0.0321060046553611
1768216547243145000;27.79814501953125;-0.996307373046875;0.04974365234375;0.0689697265625;-0.0109783485531806;0.0022599585354328;0.0377985127270221
1768216547253145900;27.808145751953123;-0.9925994873046876;0.0509796142578125;0.0689849853515625;-0.0124859642237424;0.0028772791847586;0.0437900908291339
1768216547263146000;27.81814599609375;-0.9888153076171876;0.04840087890625;0.0666656494140625;-0.0132193993777036;0.0037526602391153;0.0401040092110633
1768216547273147000;27.82814697265625;-0.9868621826171876;0.04571533203125;0.0627899169921875;-0.0094630103558301;0.0072813485749065;0.0366789177060127
1768216547283147800;27.838147705078125;-0.988037109375;0.0466156005859375;0.062225341796875;-0.007791344076395;0.0007017429452389;0.0306300800293684
1768216547293148000;27.84814794921875;-0.99041748046875;0.0481109619140625;0.0597381591796875;-0.0060765347443521;-0.0106694223359227;0.033805102109909
1768216547303149000;27.858149169921877;-0.996063232421875;0.045745849609375;0.0612335205078125;-0.0027419906109571;-0.0114063192158937;0.0371127463877201
1768216547313150000;27.86814990234375;-0.9979400634765624;0.048797607421875;0.069580078125;-0.0050666639581322;-0.0195457376539707;0.0381077043712139
1768216547323150800;27.87815087890625;-0.9944305419921876;0.0468597412109375;0.069488525390625;-0.0090134683996438;-0.0269996598362922;0.0413759350776672
1768216547333151000;27.88815087890625;-0.989532470703125;0.0528411865234375;0.0701141357421875;-0.0055665392428636;-0.0341995172202587;0.0340306721627712
1768216547343151900;27.89815185546875;-0.9857177734375;0.0543975830078125;0.069061279296875;-0.005445631686598;-0.0407026894390583;0.0208863727748394
1768216547353153000;27.908153076171875;-0.98822021484375;0.050048828125;0.0634613037109375;-0.0060464409179985;-0.0345870070159435;0.0217503029853105
1768216547363153000;27.91815283203125;-0.9880523681640624;0.054107666015625;0.0660552978515625;-0.0010993528412654;-0.0322239808738231;0.0176785960793495
1768216547373154000;27.928154052734374;-0.9914703369140624;0.05072021484375;0.062896728515625;-0.0008037420338951;-0.0252331849187612;0.0141419181600213
1768216547383155000;27.938155029296876;-0.9915771484375;0.0550079345703125;0.06512451171875;-0.0008183894096873;-0.0296790655702352;0.0131464283913373
1768216547393154800;27.94815478515625;-0.9910125732421876;0.053314208984375;0.06781005859375;0.001089232857339;-0.0305850729346275;0.0014120079576969
1768216547403155700;27.95815576171875;-0.9942626953125;0.0542755126953125;0.0637054443359375;-0.0001438106992281;-0.0270300190895795;0.0006210491410456
1768216547413156900;27.96815698242187;-0.9956207275390624;0.052947998046875;0.0659332275390625;-0.0010780475568026;-0.0304868035018444;-0.0018857843242585
1768216547423157000;27.978156982421876;-0.996490478515625;0.0517120361328125;0.06304931640625;-0.0014642059104517;-0.031219171360135;0.0031214910559356
1768216547433158000;27.988157958984377;-0.9974822998046876;0.047149658203125;0.060302734375;-0.0054829157888889;-0.0170881729573011;0.0008780442294664
1768216547443158800;27.99815869140625;-0.99871826171875;0.0494384765625;0.0663604736328125;-0.0068903965875506;-0.0183020420372486;0.0017667410429567
1768216547453160000;28.008159912109377;-0.9949951171875;0.046112060546875;0.0597991943359375;-0.006182528566569;-0.0148447258397936;0.0003821636200882
1768216547463159800;28.018159912109375;-0.9908294677734376;0.0447845458984375;0.059478759765625;-0.0042400187812745;-0.014797587879002;-0.0027262780349701
1768216547473161000;28.028160888671874;-0.9926605224609376;0.0428619384765625;0.0562896728515625;-0.0033688987605273;-0.0127080716192722;-0.0057348511181771
1768216547483161900;28.038161865234375;-0.99969482421875;0.041015625;0.0578155517578125;0.0001589907187735;-0.0083143888041377;-0.0063652214594185
1768216547493162000;28.048161865234373;-1.0049591064453125;0.04217529296875;0.0587005615234375;0.0003028014034498;-0.0060192765668034;-0.0068259481340646
1768216547503163000;28.058162841796875;-1.0073699951171875;0.040802001953125;0.063751220703125;0.0012716593919321;-0.0075183701701462;-0.0055966330692172
1768216547513163800;28.068163818359373;-1.006378173828125;0.04412841796875;0.0666351318359375;0.0011840413790196;-0.0069772158749401;-0.0029134983196854
1768216547523164000;28.078163818359375;-1.003021240234375;0.0457000732421875;0.0681610107421875;0.0025465146172791;-0.0070837419480085;-0.0032631712965667
1768216547533165000;28.0881650390625;-0.997528076171875;0.0457000732421875;0.0658111572265625;0.0016951019642874;-0.0075085163116455;-0.0058751995675265
1768216547543166000;28.098166015625;-0.9917449951171876;0.0445556640625;0.0611572265625;0.00220935838297;-0.0098627507686614;-0.0128609370440244
1768216547553166800;28.108166748046877;-0.991668701171875;0.045562744140625;0.0550537109375;-0.0011454256018623;-0.0106616988778114;-0.0191246923059225
1768216547563167000;28.1181669921875;-0.990631103515625;0.0470733642578125;0.054351806640625;-0.0005691175465472;-0.0184602327644824;-0.0134569527581334
1768216547573167900;28.12816796875;-0.9941558837890624;0.048583984375;0.055938720703125;-0.0014647386269643;-0.0205372329801321;-0.0026618295814841
1768216547583169000;28.1381689453125;-0.998077392578125;0.0488433837890625;0.0548248291015625;-0.0029318740125745;-0.0179265365004539;0.0015496934065595
1768216547593169000;28.1481689453125;-0.9982452392578124;0.0487823486328125;0.054168701171875;-0.0032421322539448;-0.010751980356872;-0.0057423077523708
1768216547603169800;28.158169677734374;-0.995330810546875;0.04541015625;0.0542449951171875;-0.0086012110114097;-0.0121349599212408;-0.0133205987513065
1768216547613171000;28.1681708984375;-0.9931640625;0.0472412109375;0.059356689453125;-0.005748433060944;-0.0133594814687967;-0.0143784070387482
1768216547623170800;28.1781708984375;-0.998931884765625;0.044891357421875;0.0562744140625;-0.0080454098060727;-0.0113101787865161;-0.003516171593219
1768216547633171700;28.188171630859376;-0.998046875;0.0420379638671875;0.05767822265625;-0.0088467551395297;-0.0100997723639011;-0.0026589001063257
1768216547643172900;28.1981728515625;-0.9977874755859376;0.0435028076171875;0.0594329833984375;-0.0099085569381713;-0.0130098080262541;0.0013081447687
1768216547653173000;28.208173095703124;-1.0003814697265625;0.0392608642578125;0.056427001953125;-0.0048631983809173;-0.0024634238798171;-0.0020756677258759
1768216547663174000;28.218173828125;-0.9979400634765624;0.044769287109375;0.0601348876953125;-0.0057612163946032;-0.0058272625319659;-0.0022668826859444
1768216547673174800;28.2281748046875;-0.996124267578125;0.0517425537109375;0.0649566650390625;-0.0032096416689455;-0.0200919527560472;0.0102001735940575
1768216547683175700;28.23817578125;-0.9927825927734376;0.0518798828125;0.061065673828125;-0.0022716764360666;-0.0192037876695394;0.0188218913972377
1768216547693176000;28.248176025390624;-0.9915313720703124;0.0502471923828125;0.0579681396484375;-0.004251470323652;-0.0203915573656559;0.0204970184713602
1768216547703177000;28.25817700195313;-0.9934234619140624;0.0491180419921875;0.0560150146484375;-0.0026586337480694;-0.0203825030475854;0.0151738924905657
1768216547713177900;28.268177734375;-1.0032958984375;0.046844482421875;0.05084228515625;-0.0043635894544422;-0.0097146788612008;0.003915645647794
1768216547723178000;28.278177978515625;-1.00640869140625;0.0493316650390625;0.0531158447265625;-0.0051092742942273;-0.004743356257677;-0.0081162499263882
1768216547733179000;28.288178955078124;-1.0081939697265625;0.0549163818359375;0.057891845703125;-0.0030434604268521;-0.0119346901774406;-0.0103181516751647
1768216547743179800;28.2981796875;-1.007415771484375;0.05108642578125;0.0543365478515625;-0.0008900284301489;-0.0114385429769754;-0.0114265587180852
1768216547753180000;28.308179931640623;-1.003082275390625;0.05255126953125;0.0590972900390625;-0.0008226504432968;-0.01451076567173;-0.0060789315029978
1768216547763181000;28.31818115234375;-1.002105712890625;0.0498504638671875;0.062469482421875;-0.0008327704854309;-0.015141668729484;-0.0016120113432407
1768216547773182000;28.328181884765623;-0.9996490478515624;0.045501708984375;0.0648040771484375;-0.0013611416798084;-0.0160814989358186;-0.001227184664458
1768216547783182800;28.338182861328125;-0.9959564208984376;0.0421600341796875;0.0616302490234375;-0.0044972798787057;-0.0171073470264673;-0.0034557178150862
1768216547793183000;28.348182861328127;-0.997344970703125;0.0417633056640625;0.0600738525390625;-0.0063678845763206;-0.0127751836553215;-0.0069684274494647
1768216547803183900;28.358183837890625;-0.99676513671875;0.0412445068359375;0.0582275390625;-0.0056879795156419;-0.0131882401183247;-0.0062509714625775
1768216547813185000;28.36818505859375;-0.9951934814453124;0.0429229736328125;0.055145263671875;-0.0060445768758654;-0.0148631017655134;-0.0083354273810982
1768216547823185000;28.378184814453125;-0.9996185302734376;0.0448760986328125;0.052825927734375;-0.0030807447619736;-0.0175289269536733;-0.0048522795550525
1768216547833185800;28.388185791015623;-0.999664306640625;0.0453033447265625;0.052154541015625;-0.002470081904903;-0.0193859487771987;-0.0071026505902409
1768216547843187000;28.39818701171875;-0.998504638671875;0.0463409423828125;0.0553741455078125;-0.0014197311829775;-0.014183996245265;-0.0013363742036744
1768216547853186800;28.40818676757813;-1.00244140625;0.0478668212890625;0.0574188232421875;0.0008921589469537;-0.0092765893787145;0.0033401367254555
1768216547863188000;28.41818798828125;-0.99798583984375;0.046630859375;0.0571136474609375;0.0033446638844907;-0.0071892035193741;0.0032914008479565
1768216547873188900;28.42818896484375;-0.99517822265625;0.0460357666015625;0.0546417236328125;0.0023307986557483;-0.0040069920942187;0.0012612730497494
1768216547883189000;28.43818896484375;-0.994903564453125;0.04522705078125;0.0548095703125;0.0014924354618415;-0.0032754219137132;-0.0018279937794432
1768216547893190000;28.44818994140625;-0.9979095458984376;0.0478668212890625;0.0548553466796875;-0.0001557949290145;-0.0021425131708383;-0.0027507790364325
1768216547903190800;28.458190673828124;-0.9983673095703124;0.048492431640625;0.05462646484375;0.0025814019609242;-0.0030874025542289;-0.0051976912654936
1768216547913191700;28.468191650390622;-0.9995269775390624;0.0459136962890625;0.053558349609375;-0.0012229235144332;5.27305892319e-05;-0.0062967780977487
1768216547923192000;28.478192138671876;-1.0031585693359375;0.04644775390625;0.052886962890625;-0.0032842103391885;0.00547093199566;-0.0035510589368641
1768216547933193000;28.48819287109375;-1.001556396484375;0.04693603515625;0.0534820556640625;-0.0055574844591319;0.0069279470480978;-0.0014048174489289
1768216547943193900;28.49819384765625;-0.99957275390625;0.04669189453125;0.0503387451171875;-0.0070563117042183;0.0088131986558437;0.0008594020619057
1768216547953194000;28.508194091796874;-0.9987945556640624;0.047210693359375;0.05157470703125;-0.0061127534136176;0.0089333076030015;0.0023299995809793
1768216547963195000;28.51819482421875;-0.9951019287109376;0.0484161376953125;0.0524749755859375;-0.0028525118250399;0.0087194554507732;0.0019188075093552
1768216547973196000;28.528196044921874;-0.99603271484375;0.047454833984375;0.051513671875;-0.0033683660440146;0.008823319338262;-0.0011976235546171
1768216547983196000;28.53819580078125;-0.9975738525390624;0.0448760986328125;0.0534210205078125;-0.0010671286145225;0.0108390655368566;-0.0031758195254951
1768216547993197000;28.548197021484373;-0.9959869384765624;0.0448455810546875;0.054229736328125;0.0037723677232861;0.0043878243304789;-0.0059580239467322
1768216548003198000;28.558197998046875;-0.99530029296875;0.043701171875;0.0543212890625;0.0005139900604262;-0.0001523328101029;-0.0077061229385435
1768216548013198800;28.56819873046875;-0.99835205078125;0.0427398681640625;0.05389404296875;-5.83232285862e-05;0.0018394453218206;-0.0074675036594271
1768216548023198700;28.57819873046875;-0.9990081787109376;0.0439605712890625;0.0544281005859375;0.0014202637830749;0.0009603358921594;-0.0056474995799362
1768216548033200000;28.5882001953125;-0.9969482421875;0.044952392578125;0.05657958984375;0.000875114754308;-0.0011872372124344;-0.0074469973333179
1768216548043201000;28.598200927734375;-0.9996185302734376;0.04400634765625;0.0541534423828125;-0.0004804342461284;-0.0002391518646618;-0.0045081991702318
1768216548053201000;28.608200927734377;-0.9997406005859376;0.045196533203125;0.051055908203125;0.0005603290628641;-0.0018524948973208;-0.0046205846592783
1768216548063201800;28.618201904296875;-0.9980621337890624;0.047210693359375;0.0529327392578125;0.0008482168195769;5.1399008953e-05;-0.0017204020405188
1768216548073203000;28.628202880859376;-0.998016357421875;0.04351806640625;0.0518035888671875;0.0017219999572262;0.0014258564915508;-0.0041095237247645
1768216548083202800;28.638202880859374;-1.0001983642578125;0.0447998046875;0.05181884765625;-0.0002740392810665;0.0032325449865311;-0.0035345472861081
1768216548093204000;28.648203857421876;-1.003509521484375;0.0454864501953125;0.05389404296875;-0.0007850998663343;0.0083974795415997;-0.0068786786869168
1768216548103204900;28.658204833984374;-1.0033721923828125;0.0435333251953125;0.0557403564453125;-0.0004394215648062;0.0124864969402551;-0.0086158588528633
1768216548113205000;28.668205078125;-1.003173828125;0.0434112548828125;0.0556640625;-0.0035465315449982;0.0122811673209071;-0.0071234232746064
1768216548123206000;28.67820581054687;-0.9996185302734376;0.0463409423828125;0.0583648681640625;-0.0014982944121584;0.0082773705944418;-0.0028871328104287
1768216548133206800;28.688206787109376;-0.9989013671875;0.047027587890625;0.0609893798828125;-0.0004186489095445;0.0077487332746386;-0.0003094593121204
1768216548143208000;28.6982080078125;-0.9980316162109376;0.0446929931640625;0.06378173828125;0.0013014868600293;0.0021710088476538;0.0057875816710293
1768216548153208000;28.7082080078125;-0.9984283447265624;0.0451812744140625;0.06097412109375;0.0044333641417324;-0.004471980035305;0.0075090490281581
1768216548163209000;28.718208984375;-0.9992523193359376;0.044891357421875;0.0605316162109375;0.0051324442028999;-0.0013622068800032;0.0132881086319684
1768216548173209900;28.7282099609375;-1.007293701171875;0.046875;0.061187744140625;0.0087370323017239;0.0067652282305061;0.0199689138680696
1768216548183210000;28.7382099609375;-1.0001678466796875;0.045745849609375;0.0618743896484375;0.0085524758324027;0.0063329972326755;0.0181547682732343
1768216548193211000;28.7482109375;-1.0013580322265625;0.0427398681640625;0.05950927734375;0.0038120488170534;0.0036277580074965;0.0161579307168722
1768216548203212000;28.7582119140625;-1.001129150390625;0.045867919921875;0.056671142578125;0.0032642364967614;-0.0013052152935415;0.0129786487668752
1768216548213212000;28.7682119140625;-0.99951171875;0.0487823486328125;0.056732177734375;0.000398408883484;-0.0043867588974535;0.0043409527279436
1768216548223213000;28.778213134765625;-0.9964599609375;0.0485076904296875;0.0569305419921875;-0.0029651634395122;-0.0051857070066034;-0.002306031063199
1768216548233214000;28.7882138671875;-0.994354248046875;0.053375244140625;0.056976318359375;-0.0011797803454101;-0.0053300503641366;-0.0027409254107624
1768216548243214800;28.79821484375;-0.9894866943359376;0.054351806640625;0.054473876953125;0.0007989483419805;-0.0105242803692817;-0.001620533526875
1768216548253214700;28.808214599609375;-0.9841461181640624;0.049560546875;0.04791259765625;0.0040935450233519;-0.0046786414459347;-0.0015065502375364
1768216548263216000;28.818216064453125;-0.9864349365234376;0.0461273193359375;0.0432586669921875;0.0073476615361869;0.0039209718815982;-0.0008562062866985
1768216548273217000;28.828217041015623;-0.986358642578125;0.0452728271484375;0.040313720703125;0.011021758429706;0.0039398805238306;0.0009454221581108
1768216548283217000;28.838216796875;-0.98486328125;0.04425048828125;0.0391998291015625;0.0090917656198143;0.0043172505684196;0.0039305593818426
1768216548293217800;28.8482177734375;-0.991302490234375;0.0445098876953125;0.0362396240234375;0.0065569686703383;0.0164122618734836;0.0053060823120176
1768216548303219000;28.858218994140625;-0.9976348876953124;0.0451202392578125;0.0399169921875;0.0043220440857112;0.0265442598611116;0.0048179244622588
1768216548313218800;28.86821875;-1.001678466796875;0.045013427734375;0.044158935546875;0.0002111886715283;0.028080902993679;-0.0020106865558773
1768216548323220000;28.878219970703125;-1.003692626953125;0.0428924560546875;0.0456390380859375;-0.0018903117161244;0.0232509933412075;-0.0054174023680388
1768216548333220900;28.888220947265623;-1.008880615234375;0.044097900390625;0.050048828125;-0.0032844764646142;0.0217998381704092;-0.002967826789245
1768216548343221000;28.898220947265624;-1.0106353759765625;0.039794921875;0.0535430908203125;-0.0052672000601887;0.018200309947133;0.0047817057929933
1768216548353222000;28.90822192382813;-1.0068511962890625;0.0386505126953125;0.057525634765625;-0.0059529640711843;0.0164740476757287;0.0072794845327734
1768216548363222800;28.918222900390624;-1.0086669921875;0.036102294921875;0.0631866455078125;-0.0021291973534971;0.0159808304160833;0.0045010084286332
1768216548373224000;28.92822387695313;-1.0040740966796875;0.036468505859375;0.0631866455078125;-0.0029593044891953;0.0115075185894966;-0.0017606157343834
1768216548383224000;28.93822412109375;-0.9966278076171876;0.0404510498046875;0.0664520263671875;-0.0003853593952953;0.007186806295067;-0.004914597608149
1768216548393225000;28.948224853515622;-0.993988037109375;0.04248046875;0.0616302490234375;-0.0009076052810996;0.0088483523577451;-0.0061465757898986
1768216548403224800;28.958224853515624;-0.9941558837890624;0.0428466796875;0.05914306640625;-0.0015507587231695;0.0008372978190891;-0.0087588708847761
1768216548413225000;28.968224853515625;-1.004486083984375;0.0426788330078125;0.05853271484375;-0.0042735747992992;-0.0051217912696301;-0.0001195759323309
1768216548423226000;28.97822607421875;-1.0008087158203125;0.0459747314453125;0.0552215576171875;-0.0077556576579809;-0.0126814404502511;0.0035574506036937
1768216548433227000;28.98822705078125;-0.9955902099609376;0.0493011474609375;0.057403564453125;-0.0079167792573571;-0.0199785009026527;0.0106675578281283
1768216548443227100;28.99822705078125;-0.99395751953125;0.0474090576171875;0.0652313232421875;-0.008330101147294;-0.014716095291078;0.0082304989919066
1768216548453228000;29.00822802734375;-0.98681640625;0.0429229736328125;0.064697265625;-0.0095434375107288;-0.0130774527788162;-0.0070371367037296
1768216548463229000;29.01822900390625;-0.98046875;0.043853759765625;0.0649566650390625;-0.0053018210455775;-0.0222240798175334;-0.0141794681549072
1768216548473230000;29.02822998046875;-0.9870758056640624;0.0479888916015625;0.063232421875;-0.0076621808111667;-0.0227652341127395;-0.006884004920721
1768216548483230200;29.038230224609375;-0.990966796875;0.04473876953125;0.0575103759765625;-0.0056104813702404;-0.0262425225228071;-0.0001954760227818
1768216548493231000;29.048231201171873;-0.9911346435546876;0.0454559326171875;0.057098388671875;-0.0064120930619537;-0.0322215855121612;0.0041806302033364
1768216548503232000;29.05823193359375;-0.9916534423828124;0.0480499267578125;0.0540008544921875;-0.0070310113951563;-0.0332508981227874;0.0032301479950547
1768216548513232000;29.06823193359375;-0.989898681640625;0.0490570068359375;0.06005859375;-0.0057287258096039;-0.0351414754986763;-0.001954493811354
1768216548523233000;29.07823291015625;-1.0001068115234375;0.045745849609375;0.0584869384765625;-0.0046237800270318;-0.0315864235162735;-0.0032945964485406
1768216548533234200;29.088234130859377;-0.99761962890625;0.046875;0.055572509765625;-0.006426740437746;-0.0270569175481796;-0.0051529505290091
1768216548543234000;29.098234130859375;-0.9901275634765624;0.0446014404296875;0.050445556640625;-0.0065788067877292;-0.0243807062506675;-0.0087767131626605
1768216548553235000;29.10823486328125;-0.9893798828125;0.0421905517578125;0.043548583984375;-0.0092584798112511;-0.0261306706815958;-0.0137443076819181
1768216548563236000;29.118236083984375;-0.9920654296875;0.042572021484375;0.0379180908203125;-0.0120398849248886;-0.0188756864517927;-0.0072150360792875
1768216548573237000;29.128237060546876;-0.9967041015625;0.04278564453125;0.031005859375;-0.0096544912084937;-0.017135577276349;-0.0077628483995795
1768216548583236900;29.13823681640625;-1.0067901611328125;0.0423583984375;0.028656005859375;-0.009974337182939;-0.0081569962203502;-0.0070632356218993
1768216548593238000;29.148238037109376;-1.00927734375;0.0428009033203125;0.0333251953125;-0.0128002176061272;-0.0005137237603776;-0.0058453720994293
1768216548603239200;29.1582392578125;-1.0140228271484375;0.042510986328125;0.0330810546875;-0.01205959264189;0.0136859845370054;-0.0086752474308013
1768216548613239000;29.168239013671876;-1.014739990234375;0.0412139892578125;0.0379791259765625;-0.0151057159528136;0.0249982941895723;-0.0177281312644481
1768216548623240000;29.178239990234378;-1.0100555419921875;0.0439300537109375;0.045196533203125;-0.0149555131793022;0.0353713072836399;-0.0246201250702142
1768216548633240800;29.18824072265625;-1.008544921875;0.0394439697265625;0.0478363037109375;-0.0144748128950595;0.0391873493790626;-0.0267927311360836
1768216548643241000;29.19824096679687;-0.9996490478515624;0.0406341552734375;0.050933837890625;-0.0178586263209581;0.0332924425601959;-0.0281597319990396
1768216548653242000;29.2082421875;-1.00006103515625;0.0385894775390625;0.0582427978515625;-0.0192621108144521;0.0171800516545772;-0.0253170747309923
1768216548663243000;29.21824291992187;-1.0011138916015625;0.037384033203125;0.0607147216796875;-0.021792646497488;0.0032373385038226;-0.0147443246096372
1768216548673244000;29.228243896484376;-1.0020294189453125;0.0374603271484375;0.06298828125;-0.0194788929075002;0.0080728400498628;-0.0026594325900077
1768216548683244000;29.238244140625;-1.0034027099609375;0.03936767578125;0.0623931884765625;-0.0184706207364797;0.0227298140525817;0.0067700217477977
1768216548693245000;29.248244873046875;-0.999298095703125;0.0418243408203125;0.0614471435546875;-0.0165648609399795;0.0321262441575527;0.0073607107624411
1768216548703246000;29.25824609375;-0.9913330078125;0.042724609375;0.0587158203125;-0.0132934348657727;0.0335430465638637;0.0016998957144096
1768216548713246200;29.26824609375;-0.9853363037109376;0.0460052490234375;0.0533905029296875;-0.0091748563572764;0.0271293558180332;-0.0017475662752985
1768216548723247000;29.2782470703125;-0.982391357421875;0.050872802734375;0.0507049560546875;-0.0098696751520037;0.0141909196972846;-0.0084448838606476
1768216548733248000;29.288248046875;-0.9793701171875;0.0555877685546875;0.0496978759765625;-0.0046184537932276;0.0046397591941058;-0.0130430972203612
1768216548743248000;29.298247802734377;-0.9790191650390624;0.056396484375;0.0495758056640625;-9.5074850833e-05;0.0037824877072125;-0.0208874382078647
1768216548753249000;29.3082490234375;-0.981597900390625;0.0547637939453125;0.0480194091796875;0.0010985539993271;0.0128380339592695;-0.0275948755443096
1768216548763250200;29.318250244140625;-0.9845733642578124;0.0525360107421875;0.0408935546875;0.0031076427549123;0.0215593539178371;-0.0360853001475334
1768216548773250000;29.32825;-0.9901123046875;0.0492706298828125;0.0365753173828125;0.0042011365294456;0.0275594554841518;-0.0428489297628402
1768216548783251000;29.3382509765625;-1.0035552978515625;0.0457763671875;0.0333404541015625;0.0005049353349022;0.0338639579713344;-0.0466082468628883
1768216548793252000;29.348252197265627;-1.0181884765625;0.0443878173828125;0.0344390869140625;-0.000140082265716;0.0462934635579586;-0.0399317033588886
1768216548803253000;29.3582529296875;-1.0298614501953125;0.0446014404296875;0.0391998291015625;-0.0023313311394304;0.0518003478646278;-0.0290502943098545
1768216548813252900;29.3682529296875;-1.03314208984375;0.046356201171875;0.0463714599609375;-0.0010655306978151;0.053744189441204;-0.0100560961291193
1768216548823254000;29.37825390625;-1.02972412109375;0.05126953125;0.0560760498046875;0.0015390408225357;0.0583578497171402;0.0064147561788558
1768216548833255200;29.388255126953126;-1.021148681640625;0.0514678955078125;0.0638427734375;0.0046402919106185;0.0655601024627685;0.0115037905052304
1768216548843255000;29.398255126953124;-1.0100555419921875;0.0485382080078125;0.0673980712890625;0.0033254891168326;0.0648141503334045;0.0042951460927724
1768216548853256000;29.408255859375;-1.0038604736328125;0.0496673583984375;0.0705718994140625;0.0015741945244371;0.0622426010668277;-0.009288040921092
1768216548863256800;29.4182568359375;-0.99981689453125;0.0500030517578125;0.076446533203125;0.002773682354018;0.0512378886342048;-0.0241873618215322
1768216548873257000;29.42825708007813;-1.000213623046875;0.051055908203125;0.07928466796875;0.0018972359830513;0.0326202623546123;-0.030321154743433
1768216548883258000;29.438258056640624;-1.0025787353515625;0.049163818359375;0.078582763671875;-0.0087839039042592;0.0281104631721973;-0.0161536689847707
1768216548893259000;29.44825903320313;-0.9996185302734376;0.0495452880859375;0.0713958740234375;-0.0051950281485915;0.0193606484681367;-0.0141168842092156
1768216548903260000;29.458260009765624;-0.9851531982421876;0.044464111328125;0.085418701171875;-0.0043976777233183;0.0154258282855153;-0.0112318815663456
1768216548913260000;29.468260009765626;-0.991943359375;0.0439910888671875;0.083465576171875;-0.0008138620178215;0.0284665282815694;-0.0143331326544284
1768216548923261000;29.478260986328124;-0.997039794921875;0.0467376708984375;0.0798187255859375;0.0007715177489444;0.0369947701692581;-0.0157307591289281
1768216548933262000;29.488261962890626;-0.9877166748046876;0.0500640869140625;0.069366455078125;0.003343598684296;0.031713455915451;-0.0240347627550363
1768216548943262200;29.49826220703125;-0.9859161376953124;0.050872802734375;0.0637359619140625;0.002690591616556;0.0215604193508625;-0.0251580830663442
1768216548953263000;29.50826318359375;-0.9924468994140624;0.0529022216796875;0.0572357177734375;0.0003733751946128;0.0068030450493097;-0.0200267042964696
1768216548963264000;29.518263916015623;-0.99493408203125;0.0547027587890625;0.05621337890625;0.0016652746126055;-0.0083484770730137;-0.0089942943304777
