timestamp;seconds_elapsed;acc_z;acc_y;acc_x;gyro_z;gyro_y;gyro_x
1768216467978264000;0.05826416015625;0.070159912109375;-0.0644073486328125;0.9910125732421876;-0.0045769084244966;-0.024835841730237;0.0067151607945561
1768216467988265000;0.068264892578125;0.07257080078125;-0.0612640380859375;0.994171142578125;-0.0058791944757103;-0.0248717945069074;0.0045643919147551
1768216467998265900;0.078265869140625;0.0773773193359375;-0.0673828125;0.9974822998046876;-0.0097863180562853;-0.032884445041418;-0.0034432008396834
1768216468008266000;0.088265869140625;0.0775299072265625;-0.071258544921875;0.999542236328125;-0.0094949677586555;-0.0354458764195442;-0.0056496299803256
1768216468018267000;0.098266845703125;0.0700225830078125;-0.072235107421875;1.00140380859375;-0.0105354655534029;-0.0352016612887382;-0.0080685792490839
1768216468028267000;0.10826708984375;0.069915771484375;-0.0732574462890625;1.0022125244140625;-0.0116795590147376;-0.0304037127643823;-0.0071029169484972
1768216468038268200;0.11826806640625;0.0676116943359375;-0.07012939453125;1.0052490234375;-0.0116262957453727;-0.0257293321192264;-0.0044951494783163
1768216468048269000;0.12826904296875;0.07098388671875;-0.0666656494140625;1.0075836181640625;-0.0106236161664128;-0.0273099169135093;0.0034285534638911
1768216468058269000;0.13826904296875;0.0766754150390625;-0.06268310546875;1.0042266845703125;-0.0024791366886347;-0.0420196205377578;0.0093431677669286
1768216468068270000;0.14827001953125;0.076995849609375;-0.058441162109375;0.99920654296875;-0.0030996531713753;-0.0491816624999046;0.0101008368656039
1768216468078270000;0.15827001953125;0.07586669921875;-0.059661865234375;1.0003509521484375;0.0018945727497339;-0.0561871044337749;0.0041718417778611
1768216468088270800;0.168270751953125;0.075408935546875;-0.0588531494140625;1.000640869140625;0.0041057956404984;-0.0521598719060421;-0.0066357986070215
1768216468098271200;0.178271240234375;0.0746002197265625;-0.059967041015625;1.00067138671875;0.0060954429209232;-0.0567144118249416;-0.0158862881362438
1768216468108272000;0.188272216796875;0.07720947265625;-0.0621795654296875;1.004302978515625;0.0082432823255658;-0.0693156942725181;-0.0251562185585498
1768216468118273000;0.19827294921875;0.075958251953125;-0.0663909912109375;1.0052337646484375;0.0082062641158699;-0.0762156769633293;-0.0371367149055004
1768216468128273000;0.20827294921875;0.06915283203125;-0.071075439453125;0.99908447265625;0.0095439702272415;-0.0807627588510513;-0.0377835966646671
1768216468138274000;0.218274169921875;0.0608062744140625;-0.0730133056640625;0.99554443359375;0.0101511711254715;-0.0724108144640922;-0.0352317579090595
1768216468148274000;0.22827392578125;0.06005859375;-0.0717315673828125;0.9944610595703124;0.0093405051156878;-0.0663459971547126;-0.0284614693373441
1768216468158275000;0.238275146484375;0.0656585693359375;-0.070526123046875;0.9952239990234376;0.0042208437807857;-0.0657819435000419;-0.0221979804337024
1768216468168275200;0.248275146484375;0.064605712890625;-0.06927490234375;0.993499755859375;-0.0039934101514518;-0.0663563832640647;-0.0170367732644081
1768216468178276000;0.258276123046875;0.0645751953125;-0.0690765380859375;0.990997314453125;-0.0079902820289134;-0.0571335926651954;-0.0217891857028007
1768216468188277000;0.268277099609375;0.062591552734375;-0.0683441162109375;0.9885406494140624;-0.0154719008132815;-0.0434342920780181;-0.0227753538638353
1768216468198277000;0.278277099609375;0.0533294677734375;-0.066131591796875;0.9891357421875;-0.0173038896173238;-0.0255423784255981;-0.0125943552702665
1768216468208278000;0.288278076171875;0.058441162109375;-0.0638427734375;0.9879913330078124;-0.0154812214896082;-0.0161811001598835;-0.0066618975251913
1768216468218278000;0.29827783203125;0.0658111572265625;-0.0637969970703125;0.987548828125;-0.0121530694887042;-0.0178335923701524;-0.0033225596416741
1768216468228279000;0.308279052734375;0.0667266845703125;-0.0610198974609375;0.99359130859375;-0.0115804895758628;-0.0283349677920341;0.0004625910660251
1768216468238279200;0.318279052734375;0.069732666015625;-0.0596466064453125;0.99859619140625;-0.0080243702977895;-0.030975492671132;-0.0001009338011499
1768216468248280000;0.328280029296875;0.063385009765625;-0.059234619140625;1.001373291015625;-0.0061519020237028;-0.0287418998777866;-0.0006516755092889
1768216468258281000;0.338281005859375;0.0635833740234375;-0.059814453125;0.9998626708984376;-0.0025963156949728;-0.0297203455120325;0.0016050871927291
1768216468268281000;0.348281005859375;0.0611572265625;-0.0640411376953125;0.9958648681640624;0.0035273567773401;-0.0296716094017028;0.0031542479991912
1768216468278282000;0.358281982421875;0.05950927734375;-0.06524658203125;0.9944610595703124;0.0061838598921895;-0.0202006101608276;0.0014096111990511
1768216468288281900;0.36828173828125;0.0624237060546875;-0.065643310546875;0.997100830078125;0.004864530172199;-0.0193169731646776;-0.0003376888344064
1768216468298283000;0.378282958984375;0.0621185302734375;-0.0699615478515625;0.9979248046875;0.0020738034509122;-0.0183656904846429;-0.0022804648615419
1768216468308283100;0.388283203125;0.0635986328125;-0.07061767578125;0.9991912841796876;-0.0018114821286872;-0.0153097137808799;-0.0029073730111122
1768216468318284000;0.398283935546875;0.0626983642578125;-0.0699005126953125;0.9951629638671876;-0.0036450685001909;-0.0128247188404202;-0.0052272523753345
1768216468328285000;0.408284912109375;0.059844970703125;-0.067718505859375;0.993438720703125;-0.0049675945192575;-0.0052363071590662;-0.004063184838742
1768216468338284800;0.418284912109375;0.058807373046875;-0.0652008056640625;0.99615478515625;-0.0094507597386837;0.0024770060554146;-0.0003888215287588
1768216468348285700;0.42828564453125;0.057525634765625;-0.0626373291015625;0.99627685546875;-0.010734936222434;0.0056834518909454;0.0012791162589564
1768216468358285600;0.43828564453125;0.061492919921875;-0.06256103515625;0.99700927734375;-0.0089197251945734;0.0009755159262567;0.0031526500824838
1768216468368287000;0.448286865234375;0.0633392333984375;-0.061676025390625;0.9949798583984376;-0.0093732615932822;-0.0013456953456625;0.0040418794378638
1768216468378287900;0.458287841796875;0.0621185302734375;-0.062103271484375;0.9952239990234376;-0.0131376395002007;-0.0019558256026357;0.0095122782513499
1768216468388287700;0.468287841796875;0.062835693359375;-0.060302734375;0.99761962890625;-0.0134606817737221;-0.0051007522270083;0.0096161421388387
1768216468398288600;0.47828857421875;0.0671539306640625;-0.06256103515625;1.0013885498046875;-0.013154418207705;-0.0087125310674309;0.0058384481817483
1768216468408288800;0.488288818359375;0.06390380859375;-0.0651702880859375;1.001495361328125;-0.014642858877778;-0.0116297584027051;0.0047561391256749
1768216468418289700;0.49828955078125;0.0606842041015625;-0.063629150390625;0.999237060546875;-0.0128750521689653;-0.0112289525568485;0.0091370390728116
1768216468428289500;0.50828955078125;0.06182861328125;-0.0631103515625;0.9992523193359376;-0.0126984845846891;-0.0121227093040943;0.0096688726916909
1768216468438291000;0.518291015625;0.0614776611328125;-0.0637664794921875;0.9994354248046876;-0.0099282646551728;-0.0062259379774332;0.0095293233171105
1768216468448291800;0.528291748046875;0.06634521484375;-0.065399169921875;0.998687744140625;-0.009428123012185;-0.0095695368945598;0.0122068654745817
1768216468458291700;0.538291748046875;0.0664520263671875;-0.06536865234375;0.9982757568359376;-0.0071252873167395;-0.0131653370335698;0.009091499261558
1768216468468292600;0.548292724609375;0.066558837890625;-0.0641326904296875;0.9986572265625;-0.0093303844332695;-0.0203841011971235;0.006572681479156
1768216468478292700;0.558292724609375;0.0627899169921875;-0.06744384765625;0.9984588623046876;-0.0076296902261674;-0.024118386209011;0.0083894897252321
1768216468488294000;0.5682939453125;0.058319091796875;-0.0632476806640625;0.995391845703125;-0.0065814699046313;-0.0201777070760726;0.0092190643772482
1768216468498294800;0.578294677734375;0.057708740234375;-0.06329345703125;0.994842529296875;-0.0071407337673008;-0.0188314784318208;0.0090558128431439
1768216468508295000;0.588294921875;0.057708740234375;-0.0611114501953125;0.997161865234375;-0.0040727723389863;-0.0152109107002615;0.0049305763095617
1768216468518295800;0.5982958984375;0.059844970703125;-0.0610809326171875;0.996917724609375;-0.0051532168872654;-0.0121642546728253;0.0023702133912593
1768216468528295700;0.608295654296875;0.058685302734375;-0.0652313232421875;0.9983367919921876;-0.0042357575148344;-0.0144668240100145;-0.0012724583502858
1768216468538296600;0.618296630859375;0.0617828369140625;-0.06732177734375;1.0045013427734375;-0.0092813828960061;-0.025777269154787;0.0031539816409349
1768216468548296700;0.628296630859375;0.05780029296875;-0.0667724609375;0.9989776611328124;-0.0150465937331318;-0.0423703603446483;0.0151145039126276
1768216468558297900;0.6382978515625;0.0667877197265625;-0.0654449462890625;0.99871826171875;-0.0117922108620405;-0.0309286210685968;0.0032341429032385
1768216468568298800;0.648298828125;0.0657958984375;-0.0650177001953125;0.9988861083984376;-0.0116505306214094;-0.0261437203735113;-0.0023126890882849
1768216468578299000;0.658298828125;0.0591278076171875;-0.0629119873046875;0.9986114501953124;-0.011992746964097;-0.0326157324016094;0.0031388015486299
1768216468588299800;0.6682998046875;0.0565338134765625;-0.058319091796875;0.9973602294921876;-0.0112428003922104;-0.0331877805292606;0.0103293368592858
1768216468598299600;0.678299560546875;0.057037353515625;-0.0587005615234375;0.99676513671875;-0.006957774516195;-0.0347744934260845;0.0146897304803133
1768216468608300800;0.68830078125;0.0578460693359375;-0.0587310791015625;0.99725341796875;-0.0066746803931891;-0.0281003434211015;0.0111999241635203
1768216468618300700;0.69830078125;0.0537109375;-0.061065673828125;0.9968414306640624;-0.0070635019801557;-0.0152489943429827;0.0095698032528162
1768216468628301800;0.7083017578125;0.0485687255859375;-0.0619354248046875;0.9957427978515624;-0.0105442535132169;-0.0011757856700569;0.0131735922768712
1768216468638302700;0.718302734375;0.0505523681640625;-0.0620269775390625;0.99468994140625;-0.0120715769007802;0.0029350698459893;0.0134838512167334
1768216468648302800;0.728302734375;0.0554656982421875;-0.0623626708984375;0.9942779541015624;-0.0137309925630688;-0.0011835087789222;0.0084869619458913
1768216468658303700;0.7383037109375;0.054840087890625;-0.06298828125;0.9956512451171876;-0.0163704510778188;-0.0007526093395426;0.0062395199202001
1768216468668303600;0.7483037109375;0.0523681640625;-0.061798095703125;0.9964599609375;-0.019270634278655;-0.000191481274669;0.0069583072327077
1768216468678304800;0.7583046875;0.0548095703125;-0.063232421875;0.999664306640625;-0.0191952660679817;0.0033872744534164;0.0081159835681319
1768216468688306000;0.768305908203125;0.0564422607421875;-0.062835693359375;1.00152587890625;-0.0184208191931247;0.006141782272607;0.009173790924251
1768216468698305800;0.778305908203125;0.0592041015625;-0.0590362548828125;1.0014495849609375;-0.0154628455638885;0.0027569043450057;0.0053484262898564
1768216468708306700;0.788306640625;0.056884765625;-0.0593414306640625;1.0003204345703125;-0.0162886921316385;0.0015773903578519;0.0088416943326592
1768216468718306800;0.798306884765625;0.0534820556640625;-0.05926513671875;1.000152587890625;-0.0183025747537612;0.0012948289513587;0.0139978406950831
1768216468728307700;0.8083076171875;0.0561676025390625;-0.058197021484375;0.9997406005859376;-0.0158940106630325;0.0042416164651513;0.0090140011161565
1768216468738307800;0.818307861328125;0.0602569580078125;-0.0599212646484375;1.0020751953125;-0.0152801526710391;0.000266049784841;0.0008444883860647
1768216468748308700;0.828308837890625;0.05908203125;-0.061492919921875;1.001708984375;-0.015442606061697;-0.0066373962908983;-0.0037891454994678
1768216468758310000;0.838309814453125;0.057586669921875;-0.060028076171875;0.9994354248046876;-0.0137152792885899;-0.0076299565844237;0.0001499359641456
1768216468768309800;0.848309814453125;0.05584716796875;-0.0601959228515625;0.9979705810546876;-0.0146849360316991;-0.006874683778733;0.0036892769858241
1768216468778310700;0.858310546875;0.055877685546875;-0.0584869384765625;0.9972381591796876;-0.0119661148637533;-0.006418484263122;0.000770452490542
1768216468788310800;0.868310791015625;0.0561370849609375;-0.05804443359375;1.000213623046875;-0.0099154813215136;-0.0064794709905982;-0.0096691390499472
1768216468798311700;0.878311767578125;0.058563232421875;-0.0598907470703125;1.0024871826171875;-0.0074453991837799;-0.0110252201557159;-0.0151368752121925
1768216468808312600;0.8883125;0.0552215576171875;-0.0603179931640625;1.000396728515625;-0.0082888221368193;-0.0070429956540465;-0.0126271117478609
1768216468818313000;0.89831298828125;0.052032470703125;-0.061798095703125;0.9958953857421876;-0.0065609635785222;-0.0015723302494734;-0.0074693677015602
1768216468828313900;0.90831396484375;0.0557098388671875;-0.0597686767578125;0.9951019287109376;-0.007431817241013;-0.0071220914833247;-0.0051718587055802
1768216468838313700;0.918313720703125;0.0512237548828125;-0.057098388671875;0.993988037109375;-0.0100915161892771;-0.0038775624707341;-0.004554271697998
1768216468848315000;0.92831494140625;0.0453338623046875;-0.0556182861328125;0.993743896484375;-0.0109128346666693;0.0001193096177303;0.000704938720446
1768216468858314800;0.938314697265625;0.046234130859375;-0.0559539794921875;0.9953155517578124;-0.011461978778243;0.0039462721906602;0.0020176109392195
1768216468868315600;0.948315673828125;0.053558349609375;-0.054901123046875;0.99615478515625;-0.0093804523348808;0.0064621604979038;0.0021462414879351
1768216468878316800;0.95831689453125;0.05462646484375;-0.0543365478515625;0.9978790283203124;-0.0063220779411494;0.0065620290115475;0.0032320122700184
1768216468888317000;0.96831689453125;0.053863525390625;-0.0561676025390625;0.9974212646484376;-0.0056317867711186;0.0091402353718876;0.0042104576714336
1768216468898317800;0.97831787109375;0.0573272705078125;-0.0561676025390625;1.001922607421875;-0.0019952403381466;0.0069180936552584;-0.0006101301987655
1768216468908317700;0.988317626953125;0.058441162109375;-0.058074951171875;1.0032806396484375;-0.0014402375090867;0.0003723099071066;0.0001115864506573
1768216468918318800;0.99831884765625;0.054534912109375;-0.0592498779296875;0.9999237060546876;-0.0020256002899259;-0.0001845570659497;-0.0032013859599828
1768216468928319700;1.00831982421875;0.055267333984375;-0.0588226318359375;0.998748779296875;-0.0024136228021234;0.0007760451408103;-0.0088835060596466
1768216468938319600;1.018319580078125;0.0560760498046875;-0.0615386962890625;0.996856689453125;-0.0054573495872318;0.0004892227007076;-0.0111325457692146
1768216468948320800;1.02832080078125;0.05340576171875;-0.061279296875;0.9967498779296876;-0.0044647897593677;0.0030075078830122;-0.0103956488892436
1768216468958321000;1.03832080078125;0.050506591796875;-0.06134033203125;0.9945831298828124;-0.0055604139342904;0.0064962487667799;-0.0061063622124493
1768216468968321800;1.04832177734375;0.04962158203125;-0.0604400634765625;0.9961090087890624;-0.0057585532777011;0.0097365165129303;-0.0075620459392666
1768216468978321700;1.05832177734375;0.05303955078125;-0.0602874755859375;0.999359130859375;-0.0046930224634706;0.0095303878188133;-0.0144580351188778
1768216468988322800;1.06832275390625;0.0550689697265625;-0.0593109130859375;0.9984283447265624;-0.005355617031455;0.0087396958842873;-0.0164836347103118
1768216468998323700;1.07832373046875;0.0507965087890625;-0.05908203125;0.997802734375;-0.0067311394959688;0.0098560927435755;-0.0104771424084901
1768216469008323600;1.088323486328125;0.0504150390625;-0.0579833984375;1.0011138916015625;-0.0084126591682434;0.0093271890655159;-0.0069388663396239
1768216469018324700;1.09832470703125;0.0537567138671875;-0.057281494140625;1.0002288818359375;-0.0100190779194235;0.0030847394373267;-0.0084502100944519
1768216469028324900;1.108324951171875;0.058258056640625;-0.0560302734375;1.0019989013671875;-0.012991165742278;-0.0053713293746113;-0.0110390689224004
1768216469038325800;1.11832568359375;0.0578460693359375;-0.0546875;1.003997802734375;-0.0138961086049675;-0.0125128626823425;-0.010831874795258
1768216469048326700;1.12832666015625;0.0557708740234375;-0.0509490966796875;1.0004119873046875;-0.0146657619625329;-0.0147943925112485;-0.0049106026999652
1768216469058326800;1.138326904296875;0.048980712890625;-0.054962158203125;0.9966278076171876;-0.0219340603798627;-0.0175712704658508;0.0011006845161318
1768216469068327700;1.14832763671875;0.0423583984375;-0.0554351806640625;0.9926605224609376;-0.0296508371829986;-0.0182671546936035;0.0153083829209208
1768216469078327600;1.15832763671875;0.0438079833984375;-0.0522003173828125;0.998046875;-0.0315635204315185;0.0093492930755019;0.0178482383489608
1768216469088329000;1.168328857421875;0.044647216796875;-0.0514373779296875;0.9987640380859376;-0.0359761118888855;0.0147768156602978;0.0269384067505598
1768216469098328800;1.178328857421875;0.0608367919921875;-0.0525665283203125;1.0066680908203125;-0.0308138392865657;0.0182525068521499;0.0117746340110898
1768216469108329700;1.188329833984375;0.067047119140625;-0.0573272705078125;1.0090484619140625;-0.0214091520756483;0.0141411190852522;-0.0022413162514567
1768216469118330600;1.19833056640625;0.060028076171875;-0.059234619140625;1.009796142578125;-0.0182064343243837;0.0094121443107724;-0.0067495154216885
1768216469128330800;1.208330810546875;0.053131103515625;-0.0638427734375;1.001983642578125;-0.0128002176061272;0.0062805325724184;-0.0109820775687694
1768216469138331600;1.21833154296875;0.0555419921875;-0.06011962890625;0.9974212646484376;-0.0079897493124008;0.0021076255943626;-0.0163992140442132
1768216469148331800;1.228331787109375;0.051483154296875;-0.0581512451171875;0.9936370849609376;-0.0050634681247174;-0.0026439863722771;-0.0174157414585351
1768216469158333000;1.2383330078125;0.051971435546875;-0.055694580078125;0.994964599609375;-0.0008820389630272;-0.0001842907513491;-0.0148103712126612
1768216469168333800;1.248333740234375;0.0545654296875;-0.052734375;0.9988555908203124;-1.03863285403e-05;0.0026802052743732;-0.0130388364195823
1768216469178333700;1.258333740234375;0.05169677734375;-0.05010986328125;0.9963226318359376;0.0023190807551145;0.0043782368302345;-0.0160362236201763
1768216469188334600;1.26833447265625;0.05218505859375;-0.0502777099609375;0.996368408203125;0.0009225190151482;0.0062930495478212;-0.0159427467733621
1768216469198334700;1.278334716796875;0.0544586181640625;-0.0512847900390625;0.9989471435546876;-0.0008476841612718;0.01119140163064;-0.0101770041510462
1768216469208336000;1.2883359375;0.0566558837890625;-0.05255126953125;1.0015716552734375;-0.0021670141723006;0.0065654912032186;-0.0092377066612243
1768216469218335700;1.298335693359375;0.05548095703125;-0.0510406494140625;1.0020904541015625;-0.0064166202209889;0.0045404233969748;-0.0076113143004477
1768216469228337000;1.3083369140625;0.051025390625;-0.052398681640625;0.997711181640625;-0.0063375243917107;-0.0018125474452972;-0.0114015247672796
1768216469238337800;1.318337890625;0.0505218505859375;-0.053375244140625;0.9978485107421876;-0.0063902549445629;-0.0055335159413516;-0.0130865070968866
1768216469248337700;1.328337646484375;0.048309326171875;-0.051788330078125;0.995635986328125;-0.0097186733037233;-0.0128193916752934;-0.0120718432590365
1768216469258338800;1.3383388671875;0.0489654541015625;-0.0543060302734375;0.9968414306640624;-0.0086616650223732;-0.0177193414419889;-0.0097327884286642
1768216469268338700;1.348338623046875;0.0515289306640625;-0.05377197265625;0.999908447265625;-0.0054632085375487;-0.0146955894306302;-0.0027664916124194
1768216469278339800;1.35833984375;0.0509490966796875;-0.052825927734375;0.9991607666015624;-0.0047745150513947;-0.0156545937061309;5.21979563927e-05
1768216469288340000;1.368340087890625;0.0535125732421875;-0.053619384765625;1.002227783203125;-0.0030021814163774;-0.0127610685303807;0.0029814087320119
1768216469298340900;1.3783408203125;0.05450439453125;-0.052947998046875;1.0019683837890625;-0.0053372411057353;-0.0090387687087059;0.0030226877424865
1768216469308341800;1.388341796875;0.054931640625;-0.0535430908203125;0.99798583984375;-0.0071125044487416;-0.0052059474401175;0.0005656554130837
1768216469318341600;1.398341552734375;0.05767822265625;-0.056640625;0.99951171875;-0.0068629658780992;-0.0070408652536571;-0.0054360441863536
1768216469328342800;1.4083427734375;0.053253173828125;-0.05609130859375;0.9978790283203124;-0.0062941149808466;-0.0078523308038711;-0.0097999004647135
1768216469338342700;1.4183427734375;0.0516510009765625;-0.0564117431640625;0.99969482421875;-0.004293015692383;-0.0058626825921237;-0.0092784529551863
1768216469348343600;1.428343505859375;0.0495452880859375;-0.0562744140625;0.996826171875;-0.0017190704820677;0.0026072347536683;-0.010986871086061
1768216469358344400;1.438344482421875;0.049530029296875;-0.054962158203125;0.9964752197265624;-0.000393881520722;0.010735735297203;-0.0111168334260582
1768216469368344600;1.448344482421875;0.05523681640625;-0.0552978515625;0.99932861328125;0.0004969458677805;0.0117333550006151;-0.0121365580707788
1768216469378345500;1.458345458984375;0.05657958984375;-0.05462646484375;0.998382568359375;0.0007182545377872;0.0091349091380834;-0.0161597952246665
1768216469388345600;1.468345703125;0.0571441650390625;-0.0541534423828125;0.9965972900390624;-0.0025803367607295;0.0121019361540675;-0.0205018129199743
1768216469398346800;1.4783466796875;0.0558013916015625;-0.053955078125;0.9975738525390624;-0.0041766352951526;0.0110313454642891;-0.0169909670948982
1768216469408347600;1.48834765625;0.063446044921875;-0.05615234375;1.0018463134765625;-0.0036309538409113;0.0004394215648062;-0.0186226870864629
1768216469418347500;1.498347412109375;0.0678253173828125;-0.060333251953125;1.0054931640625;-0.0050895670428872;-0.0107133639976382;-0.017290573567152
1768216469428348400;1.508348388671875;0.0619049072265625;-0.0619049072265625;1.005706787109375;-0.0046701193787157;-0.0168458260595798;-0.0153254270553588
1768216469438348500;1.5183486328125;0.053558349609375;-0.0599212646484375;1.0035552978515625;-0.0032069785520434;-0.0142543036490678;-0.0141291348263621
1768216469448349700;1.528349609375;0.046905517578125;-0.0604400634765625;0.99774169921875;-0.0030807447619736;-0.0038767636287957;-0.0120755713433027
1768216469458349800;1.538349853515625;0.0490570068359375;-0.057464599609375;0.9935302734375;-0.0026604980230331;0.0044192494824528;-0.0135275265201926
1768216469468350700;1.548350830078125;0.051544189453125;-0.0551910400390625;0.990478515625;-0.0066491141915321;0.0087511474266648;-0.0156492665410041
1768216469478351600;1.5583515625;0.0496673583984375;-0.0567169189453125;0.9923858642578124;-0.0080989394336938;0.0145363323390483;-0.013612481765449
1768216469488351500;1.5683515625;0.051849365234375;-0.0565643310546875;0.9940643310546876;-0.0072099757380783;0.0094952341169118;-0.0089306440204381
1768216469498352600;1.5783525390625;0.053192138671875;-0.0544281005859375;0.999847412109375;-0.0058419099077582;0.0025001754984259;-0.0012255867477506
1768216469508352500;1.5883525390625;0.0521392822265625;-0.051177978515625;1.000579833984375;-0.004815527703613;-0.0022610237356275;0.0024335966445505
1768216469518353700;1.598353759765625;0.051788330078125;-0.05035400390625;1.00164794921875;-0.0020546286832541;0.002060487633571;2.79631913144e-05
1768216469528354600;1.6083544921875;0.0489959716796875;-0.051025390625;1.0006866455078125;-0.0013403689954429;0.0023821976501494;0.0039934101514518
1768216469538354700;1.618354736328125;0.051422119140625;-0.0508575439453125;1.0004119873046875;0.0018106831703335;0.0008141283178701;0.0087535437196493
1768216469548355600;1.62835546875;0.052490234375;-0.0498809814453125;0.9996490478515624;0.0026551715563982;0.0016466324450448;0.0132518894970417
1768216469558355500;1.63835546875;0.05755615234375;-0.05126953125;1.0003509521484375;0.0057577542029321;-0.0007621967233717;0.0112425340339541
1768216469568356600;1.648356689453125;0.0556488037109375;-0.056243896484375;0.999053955078125;0.0061678811907768;0.0011973571963608;0.0054986285977065
1768216469578356500;1.6583564453125;0.05078125;-0.0598297119140625;0.996734619140625;0.0051510860212147;0.0081175817176699;0.0047814394347369
1768216469588357600;1.668357666015625;0.0460662841796875;-0.060089111328125;0.994384765625;0.0045926212333142;0.0101298661902546;-2.58326617768e-05
1768216469598358500;1.678358642578125;0.046966552734375;-0.0598297119140625;0.994598388671875;0.0044299019500613;0.0205942243337631;0.00012463593157
1768216469608358700;1.688358642578125;0.0470428466796875;-0.0579681396484375;0.9961700439453124;0.0031465247739106;0.0223252791911363;-0.0001379517489112
1768216469618359600;1.698359619140625;0.054473876953125;-0.0592193603515625;0.9986114501953124;0.0007374293054454;0.0274774301797151;0.0052064796909689
1768216469628359700;1.708359619140625;0.0518035888671875;-0.0579986572265625;1.003692626953125;0.0037382792215794;0.0344631671905517;0.0036309538409113
1768216469638360600;1.718360595703125;0.0548858642578125;-0.0559234619140625;1.0040283203125;0.0052357744425535;0.0347531884908676;0.0008458199445158
1768216469648361700;1.72836181640625;0.0546875;-0.0578460693359375;1.0027008056640625;0.0005547364708036;0.0294260662049055;-0.0021033645607531
1768216469658361600;1.738361572265625;0.05718994140625;-0.056365966796875;1.0059814453125;-0.0016383767360821;0.0139538990333676;0.002789394930005
1768216469668362500;1.748362548828125;0.059539794921875;-0.0535125732421875;0.9996795654296876;-0.0038501319941133;0.0061505706980824;0.0060903830453753
1768216469678362600;1.758362548828125;0.065093994140625;-0.053436279296875;0.999114990234375;-0.001463406952098;-0.0062584285624325;0.0013646037550643
1768216469688363500;1.768363525390625;0.0548095703125;-0.04901123046875;0.9945526123046876;-0.0055992961861193;0.0078648468479514;0.0097234677523374
1768216469698364400;1.778364501953125;0.05816650390625;-0.0546417236328125;0.9988861083984376;-0.0046088667586445;0.0088480859994888;0.0053769219666719
1768216469708364500;1.788364501953125;0.055877685546875;-0.055023193359375;0.9969482421875;-0.0050040795467793;0.0106060393154621;-0.0003382214636076
1768216469718365700;1.79836572265625;0.05438232421875;-0.0581207275390625;0.9949951171875;-0.0014626081101596;0.0088773807510733;-0.0032160333357751
1768216469728365600;1.808365478515625;0.050018310546875;-0.059112548828125;0.9944305419921876;-0.0024458470288664;0.0118220383301377;-0.0047159255482256
1768216469738366700;1.81836669921875;0.0499267578125;-0.0573883056640625;0.9962615966796876;-0.0011257182341068;0.0077002639882266;-0.0025150892324745
1768216469748366600;1.82836669921875;0.0604095458984375;-0.0568695068359375;0.9976348876953124;-0.0009129316313192;-0.0046480149030685;-0.004235225263983
1768216469758367500;1.838367431640625;0.0569305419921875;-0.0561981201171875;1.0034332275390625;0.001340635237284;-0.0139216743409633;-0.0006183860241435
1768216469768368600;1.84836865234375;0.053192138671875;-0.0565032958984375;1.0033111572265625;0.0015707324491813;-0.0144668240100145;0.0010543455136939
1768216469778368800;1.85836865234375;0.054351806640625;-0.0533599853515625;1.00146484375;0.000286556140054;-0.0131075466051697;0.0024415859952569
1768216469788369700;1.86836962890625;0.0514068603515625;-0.05462646484375;1.000823974609375;-4.02137338824e-05;-0.0070584421046078;0.0083476779982447
1768216469798369500;1.87836962890625;0.0535430908203125;-0.0524444580078125;0.9998931884765624;-0.0001677791442489;-0.0087559409439563;0.0088078724220395
1768216469808370700;1.88837060546875;0.0534820556640625;-0.0523834228515625;0.99786376953125;0.0001187769812531;-0.009908290579915;0.0078629832714796
1768216469818371600;1.89837158203125;0.0533447265625;-0.053253173828125;0.995086669921875;-0.0033180324826389;-0.0111866081133484;0.0027920580469071
1768216469828371500;1.908371337890625;0.053070068359375;-0.0542449951171875;0.995269775390625;-0.0024929849896579;-0.0139515018090605;0.0042733084410429
1768216469838372600;1.91837255859375;0.0526580810546875;-0.05450439453125;0.9980010986328124;-0.0018722022650763;-0.0100459763780236;0.0034541198983788
1768216469848372700;1.928372802734375;0.0510406494140625;-0.0552520751953125;0.9977569580078124;0.0012831110507249;-0.011624963954091;0.0058893142268061
1768216469858373600;1.93837353515625;0.049224853515625;-0.0541229248046875;0.9949493408203124;0.0029507824219763;-0.0146383307874202;0.0026636936236172
1768216469868373800;1.948373779296875;0.0500335693359375;-0.05462646484375;0.9996185302734376;0.0030815436039119;-0.0129802469164133;0.0017688715597614
1768216469878374700;1.958374755859375;0.0506591796875;-0.0550994873046875;1.004638671875;0.0005267732776701;-0.00682701356709;0.0048509477637708
1768216469888375600;1.96837548828125;0.05474853515625;-0.0556640625;1.0076141357421875;0.0005776396137662;-0.0107546430081129;0.008371646516025
1768216469898375400;1.97837548828125;0.0519256591796875;-0.0544891357421875;1.001922607421875;-0.0019648801535367;-0.0111376056447625;0.0084321005269885
1768216469908376600;1.98837646484375;0.048858642578125;-0.054595947265625;0.9975433349609376;-0.0012905678013339;-0.0143911894410848;0.00580515852198
1768216469918376700;1.998376708984375;0.0471038818359375;-0.055755615234375;0.9972991943359376;-0.0020833909511566;-0.0138329910114407;0.0050938283093273
1768216469928377600;2.008377685546875;0.0463714599609375;-0.0551605224609375;0.997955322265625;-0.0050349724479019;-0.0161757748574018;0.0016495619202032
1768216469938378500;2.01837841796875;0.0470123291015625;-0.05535888671875;0.998199462890625;-0.0057159424759447;-0.0121658528223633;0.0076054553501307
1768216469948378600;2.028378662109375;0.04656982421875;-0.054901123046875;0.9996795654296876;-0.0065154237672686;-0.0086273103952407;0.0065116952173411
1768216469958379500;2.038379638671875;0.0513763427734375;-0.0539398193359375;1.000213623046875;-0.0051207263022661;-0.0096939066424965;0.0009097357979044
1768216469968379400;2.04837939453125;0.0537872314453125;-0.0549468994140625;1.00054931640625;-0.0064640245400369;-0.0129118040204048;-0.0009262474486604
1768216469978380800;2.058380859375;0.051055908203125;-0.0535736083984375;0.9991302490234376;-0.0060373861342668;-0.0137752005830407;-0.0030961909797042
1768216469988381700;2.068381591796875;0.050140380859375;-0.055450439453125;0.99951171875;-0.0047396277077496;-0.0162956155836582;-0.0015558187151327
1768216469998381600;2.078381591796875;0.0510711669921875;-0.0569000244140625;0.9998321533203124;-0.0039177760481834;-0.0147379329428076;-0.0020642161834985
1768216470008382500;2.088382568359375;0.0479736328125;-0.0557861328125;0.997955322265625;-0.0039185751229524;-0.0136641468852758;-0.0021148161031305
1768216470018382600;2.098382568359375;0.044891357421875;-0.05694580078125;0.9994049072265624;-0.0012452941155061;-0.0093080140650272;0.0023430490400642
1768216470028383500;2.108383544921875;0.046905517578125;-0.055389404296875;1.001007080078125;0.0005443501286208;-0.0068152956664562;0.0029089709278196
1768216470038383400;2.11838330078125;0.046356201171875;-0.055145263671875;0.9984893798828124;-0.0002548645134083;-0.00604351144284;0.0027044401504099
1768216470048384800;2.128384765625;0.0481719970703125;-0.055328369140625;0.9978179931640624;-0.0005850964807905;-0.0075380774214863;0.0001853560097515
1768216470058385700;2.1383857421875;0.0509490966796875;-0.054534912109375;0.9992523193359376;-0.0037851508241146;-0.010940265841782;0.0010271812789142
1768216470068385500;2.148385498046875;0.04986572265625;-0.0549163818359375;1.0003509521484375;-0.004636563360691;-0.0167448911815881;0.0024311996530741
1768216470078386400;2.158386474609375;0.0513153076171875;-0.0530853271484375;1.0015869140625;-0.0047153928317129;-0.0168293137103319;0.0025350630749017
1768216470088386600;2.168386474609375;0.050384521484375;-0.0528106689453125;0.999176025390625;-0.0045124599710106;-0.0145280761644244;0.0027664916124194
1768216470098387700;2.1783876953125;0.0528106689453125;-0.0538787841796875;0.998687744140625;-0.0055545549839735;-0.0140425823628902;-0.0042381547391414
1768216470108388600;2.188388671875;0.0501556396484375;-0.0556793212890625;0.9974365234375;-0.0011853729374706;-0.0124971494078636;-0.012834838591516
1768216470118388700;2.198388671875;0.046051025390625;-0.0575714111328125;0.9974822998046876;-0.0010498181218281;-0.0117719704285264;-0.0104292053729295
1768216470128389600;2.2083896484375;0.04571533203125;-0.058746337890625;0.998809814453125;-0.000548078562133;-0.0118236364796757;-0.00473323604092
1768216470138389500;2.218389404296875;0.0490264892578125;-0.056976318359375;0.9973297119140624;6.60463920212e-05;-0.0101748732849955;-0.0047460193745791
1768216470148390700;2.228390625;0.051544189453125;-0.056060791015625;0.9981842041015624;-0.0001661812566453;-0.0091596757993102;-0.0058198058977723
1768216470158391800;2.238391845703125;0.0487823486328125;-0.0556182861328125;0.9994049072265624;-0.0047249803319573;-0.0027353328187018;-0.0063835969194769
1768216470168391700;2.2483916015625;0.0470428466796875;-0.054534912109375;1.000335693359375;-0.0063268719241023;0.0022735407110303;-0.0078001325018703
1768216470178392600;2.258392578125;0.0465240478515625;-0.055511474609375;1.0011138916015625;-0.0059574912302196;0.0022754047531634;-0.0065260762348771
1768216470188392700;2.268392822265625;0.0478363037109375;-0.0545501708984375;1.0005950927734375;-0.0049675945192575;0.0031563783995807;-0.001391767989844
1768216470198393600;2.2783935546875;0.0475921630859375;-0.0540313720703125;0.9993896484375;-0.0029838057234883;0.0093444995582103;0.0041915490292012
1768216470208394500;2.28839453125;0.0463104248046875;-0.0512542724609375;0.9967041015625;0.0002514024090487;0.0158713739365339;0.0064299362711608
1768216470218394600;2.29839453125;0.05010986328125;-0.053192138671875;0.9930572509765624;-0.0012005530297756;0.0202229805290699;0.0052046156488358
1768216470228395800;2.308395751953125;0.0543212890625;-0.053802490234375;0.99481201171875;-0.0003443467139732;0.0174082852900028;0.0015044197207316
1768216470238395600;2.318395751953125;0.053253173828125;-0.05450439453125;0.9976806640625;0.0012029499048367;0.0079039959236979;-0.0030495857354253
1768216470248396500;2.328396484375;0.05352783203125;-0.0574798583984375;0.9959564208984376;0.0007001450285315;0.003949468024075;-0.0057276603765785
1768216470258396700;2.338396728515625;0.0457305908203125;-0.0585784912109375;1.00030517578125;-0.0019872507546097;0.0110481232404708;-0.0053572147153317
1768216470268397600;2.3483974609375;0.0424041748046875;-0.05908203125;0.9997711181640624;-0.0055617457255721;0.0192626435309648;-0.0054943677969276
1768216470278398500;2.3583984375;0.0459747314453125;-0.058837890625;1.001373291015625;-0.0071625718846917;0.0252345167100429;-0.0041891522705554
1768216470288398600;2.368398681640625;0.0457916259765625;-0.057220458984375;1.0009765625;-0.0037678403314203;0.0253857839852571;0.0006239786162041
1768216470298399700;2.378399658203125;0.05023193359375;-0.053955078125;1.0009918212890625;-0.0065393918193876;0.0260086972266435;-0.0013696637470275
1768216470308399600;2.388399658203125;0.048492431640625;-0.0553131103515625;0.9990081787109376;-0.0036578518338501;0.0275035295635461;-0.0021968416403979
1768216470318400500;2.398400390625;0.04693603515625;-0.0524444580078125;0.996490478515625;-0.0006442186422646;0.0350993983447551;0.0014370416756719
1768216470328401700;2.408401611328125;0.048492431640625;-0.0517730712890625;0.99761962890625;-0.0007395598222501;0.0338836647570133;-0.0029542446136474
1768216470338402600;2.418402587890625;0.058868408203125;-0.051666259765625;1.0018463134765625;-0.0001949433935806;0.0154876131564378;-0.0100094908848404
1768216470348403500;2.428403564453125;0.058807373046875;-0.054168701171875;1.0027618408203125;0.0016058861510828;0.0032181637361645;-0.0134375113993883
1768216470358403300;2.4384033203125;0.051239013671875;-0.0560760498046875;1.0012359619140625;0.0016386429779231;-0.000997353810817;-0.0130529515445232
1768216470368404500;2.448404541015625;0.0483551025390625;-0.054718017578125;0.999267578125;0.0008447546861134;-0.0024208133108913;-0.0120428139343857
1768216470378405400;2.4584052734375;0.046478271484375;-0.05682373046875;0.998443603515625;-0.0012780509423464;-0.0022418489679694;-0.0099703427404165
1768216470388405200;2.4684052734375;0.04962158203125;-0.0564117431640625;1.0006866455078125;-0.0051761199720203;-0.0020530307665467;-0.0070121032185852
1768216470398406400;2.478406494140625;0.049407958984375;-0.0553436279296875;0.9976043701171876;-0.0033571808598935;0.0014903049450367;-0.0081636542454361
1768216470408406500;2.488406494140625;0.047637939453125;-0.05316162109375;0.9964447021484376;-0.0034575820900499;0.0045398906804621;-0.0106907272711396
1768216470418407400;2.498407470703125;0.044677734375;-0.0536651611328125;0.99456787109375;-0.0037340181879699;0.0121179157868027;-0.0094832498580217
1768216470428407600;2.508407470703125;0.04705810546875;-0.0531158447265625;0.9974517822265624;-0.0011480887187644;0.0137456394731998;-0.0086771110072731
1768216470438408400;2.518408447265625;0.0504302978515625;-0.0518341064453125;0.99822998046875;0.0001099885557778;0.0086848344653844;-0.0078704403713345
1768216470448409300;2.528409423828125;0.0511016845703125;-0.05035400390625;0.998870849609375;2.42347650782e-05;0.0097716702148318;-0.0030908647459
1768216470458409200;2.5384091796875;0.0502777099609375;-0.0506744384765625;0.9994354248046876;-0.0008633967954665;0.0083921533077955;-0.0058317901566624
1768216470468410400;2.548410400390625;0.0519256591796875;-0.0530853271484375;0.999908447265625;-0.0013685984304174;0.0034416031558066;-0.0066935890354216
1768216470478410500;2.558410400390625;0.052276611328125;-0.0539093017578125;1.0002288818359375;-0.0006562029011547;0.0025020397733896;-0.0033814155030995
1768216470488411400;2.568411376953125;0.0505218505859375;-0.0566253662109375;0.998687744140625;-0.0019571571610867;0.0014173343079164;-0.0021228056866675
1768216470498412300;2.578412353515625;0.0503082275390625;-0.057098388671875;0.998046875;-0.0030519824940711;0.0075934710912406;-0.0024410535115748
1768216470508412400;2.588412353515625;0.048919677734375;-0.05499267578125;0.9982452392578124;-0.0036405411083251;0.0078893480822443;0.0013361079618334
1768216470518413300;2.598413330078125;0.0519866943359375;-0.0536346435546875;0.99798583984375;-0.0018237327458336;0.0088784461840987;0.0005123922019265
1768216470528413200;2.6084130859375;0.04962158203125;-0.05364990234375;0.997894287109375;-0.000221042369958;0.0103027047589421;-0.0088270474225282
1768216470538414600;2.61841455078125;0.04998779296875;-0.0550994873046875;0.9988555908203124;-0.0032168321777135;0.0055963667109608;-0.0121437478810548
1768216470548415500;2.62841552734375;0.05157470703125;-0.0570220947265625;1.0013427734375;-0.0009773800848051;-0.0001113201360567;-0.0117743676528334
1768216470558415400;2.638415283203125;0.05047607421875;-0.0564727783203125;1.004852294921875;0.0001251685753231;-0.0037483992055058;-0.0137701407074928
1768216470568416300;2.648416259765625;0.0533294677734375;-0.0566558837890625;1.003662109375;-0.0006082659820094;-0.0080171804875135;-0.0146274119615554
1768216470578416400;2.65841650390625;0.0522003173828125;-0.057037353515625;1.0017242431640625;-0.0010737865231931;-0.0061375210061669;-0.0092568816617131
1768216470588417300;2.668417236328125;0.0493011474609375;-0.0556488037109375;0.998291015625;-0.0034645062405616;3.48874091287e-05;-0.0023025691043585
1768216470598418400;2.67841845703125;0.0495452880859375;-0.053009033203125;0.9996795654296876;-0.002223739400506;0.0011659319279715;0.0046370960772037
1768216470608418600;2.68841845703125;0.0515899658203125;-0.0511627197265625;0.9969635009765624;-0.0015672702575102;-0.0017028251895681;0.0001358212175546
1768216470618419500;2.69841943359375;0.0482940673828125;-0.0516357421875;0.9969024658203124;-0.003163835266605;0.003492469433695;-0.0036674391012638
1768216470628419300;2.70841943359375;0.0470428466796875;-0.051666259765625;0.99908447265625;-0.0041012680158019;0.0076587186194956;-0.0056147426366806
1768216470638420200;2.718420166015625;0.049774169921875;-0.0536346435546875;0.9986419677734376;-0.0024197481106966;0.0052546830847859;-0.0066746803931891
1768216470648420400;2.72842041015625;0.0486907958984375;-0.0553436279296875;0.99658203125;-0.0028096348978579;0.0052397693507373;-0.0066038402728736
1768216470658421200;2.738421142578125;0.0471649169921875;-0.05548095703125;0.9954986572265624;-0.0017294568242505;0.0115519938990473;-0.0071865399368107
1768216470668422400;2.74842236328125;0.049163818359375;-0.0552825927734375;0.9956207275390624;-0.001553688198328;0.0141064980998635;-0.0050203250721096
1768216470678422500;2.758422607421875;0.0530242919921875;-0.0555877685546875;0.9963836669921876;-0.0039478698745369;0.008862467482686;-0.0062158177606761
1768216470688423400;2.76842333984375;0.0550384521484375;-0.0533905029296875;0.9968414306640624;-0.0061369882896542;0.0080296965315938;-0.0020248014479875
1768216470698423300;2.77842333984375;0.0530242919921875;-0.0526885986328125;0.9967041015625;-0.0048775793984532;0.0110433297231793;8.70853691594e-05
1768216470708424400;2.788424560546875;0.0545654296875;-0.05377197265625;1.001953125;-0.0054866443388164;0.01071123406291;-0.005151352379471
1768216470718425600;2.798425537109375;0.0518035888671875;-0.0544586181640625;1.0008544921875;-0.0014013553736731;0.0084795048460364;-0.0049188584089279
1768216470728425500;2.808425537109375;0.0499267578125;-0.0554351806640625;1.0035552978515625;-0.0013377057621255;0.0104885939508676;-0.0036506610922515
1768216470738426400;2.81842626953125;0.053436279296875;-0.0569610595703125;1.0023345947265625;0.0006833671359345;0.0035071168094873;-0.0005163869354873
1768216470748426500;2.828426513671875;0.053131103515625;-0.057952880859375;0.9976043701171876;-0.0017595505341887;0.0030051108915358;0.0014026869321241
1768216470758427400;2.838427490234375;0.0511016845703125;-0.0551910400390625;0.9958953857421876;-0.0042794337496161;0.0056504290550947;0.0001536643976578
1768216470768428300;2.84842822265625;0.0545654296875;-0.0540313720703125;0.9959869384765624;-0.0038229676429182;0.0122793028131127;-0.0060733389109373
1768216470778428400;2.858428466796875;0.0524749755859375;-0.053985595703125;0.9955291748046876;-0.0070525831542909;0.015795474871993;-0.0122188497334718
1768216470788429600;2.8684296875;0.052093505859375;-0.0550689697265625;0.99664306640625;-0.0061114220879971;0.0183318685740232;-0.0158902835100889
1768216470798429400;2.878429443359375;0.0491943359375;-0.0552215576171875;0.9967498779296876;-0.0050299121066927;0.0195523966103792;-0.0144391264766454
1768216470808430300;2.888430419921875;0.0487213134765625;-0.0547943115234375;0.995025634765625;-0.006409962195903;0.0242531411349773;-0.0106334695592522
1768216470818430500;2.898430419921875;0.0481414794921875;-0.0548553466796875;0.99560546875;-0.0051534827798604;0.0240925531834363;-0.0095375785604119
1768216470828431400;2.908431396484375;0.0544281005859375;-0.0550079345703125;0.9989471435546876;-0.006435262504965;0.0207199249416589;-0.0069838734343647
1768216470838432300;2.918432373046875;0.0564117431640625;-0.053009033203125;1.0014190673828125;-0.0035188347101211;0.0155443381518125;-0.005708485841751
1768216470848432400;2.928432373046875;0.0575103759765625;-0.052001953125;0.9993438720703124;-0.0054000918753445;0.0099807288497686;-0.0107727525755763
1768216470858433500;2.93843359375;0.0561676025390625;-0.051849365234375;1.000701904296875;-0.0071740234270691;0.0071750883944332;-0.0176301263272762
1768216470868433400;2.948433349609375;0.0512542724609375;-0.054229736328125;1.0024566650390625;-0.0101983090862631;0.009664611890912;-0.0171153377741575
1768216470878434300;2.958434326171875;0.04705810546875;-0.053741455078125;1.0004119873046875;-0.0084992125630378;0.0118814269080758;-0.0141957141458988
1768216470888435500;2.968435546875;0.0490875244140625;-0.0536041259765625;0.998382568359375;-0.0070736221969127;0.0180711466819047;-0.0118912803009152
1768216470898435300;2.978435302734375;0.0518798828125;-0.053009033203125;0.996185302734375;-0.0087852356955409;0.0267192292958498;-0.0160937495529651
1768216470908436200;2.988436279296875;0.051788330078125;-0.055572509765625;0.996795654296875;-0.0056823869235813;0.0318210460245609;-0.0159155838191509
1768216470918436400;2.998436279296875;0.0520477294921875;-0.0554656982421875;0.99993896484375;-0.0046299053356051;0.0295187439769506;-0.0173353143036365
1768216470928437500;3.0084375;0.053009033203125;-0.0547943115234375;0.99517822265625;-0.0012652678415179;0.0274257659912109;-0.0193507950752973
1768216470938438400;3.0184384765625;0.052459716796875;-0.05828857421875;0.99603271484375;-0.0012551478575915;0.0243966858834028;-0.0194493308663368
1768216470948438500;3.0284384765625;0.0504150390625;-0.057769775390625;0.9982147216796876;-0.0012010856298729;0.0209079440683126;-0.0184418577700853
1768216470958439400;3.038439453125;0.05145263671875;-0.056549072265625;0.9976806640625;-0.0028008464723825;0.0200900882482528;-0.0180775374174118
1768216470968439300;3.048439208984375;0.0523223876953125;-0.05474853515625;1.0004730224609375;-0.0049111354164779;0.0183760784566402;-0.0187625028192996
1768216470978440200;3.058440185546875;0.05499267578125;-0.052490234375;1.002197265625;-0.002331863855943;0.0148351388052105;-0.0249474272131919
1768216470988441300;3.06844140625;0.0558624267578125;-0.0544586181640625;1.0026397705078125;-0.0010508833220228;0.0095231980085372;-0.0308553837239742
1768216470998441500;3.07844140625;0.05438232421875;-0.054595947265625;1.0013580322265625;0.0018540926976129;0.0087833711877465;-0.0330724641680717
1768216471008442400;3.0884423828125;0.052642822265625;-0.0538177490234375;0.997406005859375;-0.0004660531994886;0.0093269227072596;-0.0347712971270084
1768216471018442500;3.0984423828125;0.0530242919921875;-0.0549468994140625;1.0004119873046875;-0.0006865629111416;0.0076533923856914;-0.0334929786622524
1768216471028443400;3.108443359375;0.0522918701171875;-0.055755615234375;1.001983642578125;-0.0001488707057433;0.0066248793154954;-0.0327246561646461
1768216471038444300;3.1184443359375;0.04913330078125;-0.056549072265625;1.0006561279296875;-0.0015893745003268;0.0101389205083251;-0.0278838295489549
1768216471048444400;3.1284443359375;0.0495147705078125;-0.05377197265625;1.00006103515625;-0.0008407599525526;0.0099791307002305;-0.0281727816909551
1768216471058445600;3.138445556640625;0.0535736083984375;-0.0536956787109375;1.0004425048828125;0.0001536643976578;0.0052416333928704;-0.0313158445060253
1768216471068445400;3.148445556640625;0.052947998046875;-0.053741455078125;0.99908447265625;0.0016069513512775;0.0056464341469109;-0.0340586341917514
1768216471078446300;3.1584462890625;0.0518798828125;-0.05523681640625;0.9999847412109376;0.002796585438773;0.0103421192616224;-0.0321139954030513
1768216471088446500;3.168446533203125;0.0509185791015625;-0.0523834228515625;0.998321533203125;0.0028503811918199;0.0162346307188272;-0.0273149777203798
1768216471098447400;3.178447265625;0.055267333984375;-0.0539703369140625;0.9981536865234376;0.0019102854421362;0.0169446282088756;-0.0287605412304401
1768216471108448500;3.188448486328125;0.0554962158203125;-0.05194091796875;0.9983367919921876;0.0035973980557173;0.0113858124241232;-0.0288654696196317
1768216471118448400;3.198448486328125;0.059478759765625;-0.0534820556640625;0.9994049072265624;0.0031236216891556;0.0109040467068552;-0.0358602628111839
1768216471128449500;3.208449462890625;0.0545196533203125;-0.054168701171875;0.998809814453125;-2.183792094e-05;0.0103647569194436;-0.0331952385604381
1768216471138449400;3.218449462890625;0.0529632568359375;-0.0563507080078125;0.999176025390625;0.0006466155173256;0.0127797108143568;-0.0318679176270961
1768216471148450300;3.2284501953125;0.0482025146484375;-0.054962158203125;0.9996337890625;-0.0001912149600684;0.0237186457961797;-0.023928502574563
1768216471158451200;3.238451171875;0.04632568359375;-0.0536041259765625;0.994140625;-0.0027763454709202;0.0270175021141767;-0.0203249789774417
1768216471168451300;3.248451416015625;0.0523681640625;-0.052398681640625;0.9979248046875;-0.0050040795467793;0.0304138325154781;-0.0234669763594865
1768216471178452500;3.258452392578125;0.055267333984375;-0.0546112060546875;0.9978485107421876;-0.0072720274329185;0.0334572941064834;-0.0270065832883119
1768216471188452600;3.26845263671875;0.0527801513671875;-0.0531158447265625;0.9959869384765624;-0.0090414322912693;0.0433525331318378;-0.0236249025911092
1768216471198453500;3.27845361328125;0.05438232421875;-0.0488128662109375;0.995269775390625;-0.0050632017664611;0.0504266880452632;-0.0215324554592371
1768216471208454400;3.288454345703125;0.061065673828125;-0.0512847900390625;0.9981842041015624;-0.0024479776620864;0.0480615347623825;-0.0207023490220308
1768216471218454300;3.298454345703125;0.0618438720703125;-0.052276611328125;0.999053955078125;-0.0037223002873361;0.0440617352724075;-0.0267852749675512
1768216471228455400;3.308455322265625;0.0591888427734375;-0.052520751953125;1.00018310546875;-0.0002732403227128;0.0424177646636962;-0.0289285872131586
1768216471238455300;3.318455322265625;0.058349609375;-0.05517578125;1.00372314453125;8.22916772449e-05;0.0282518770545721;-0.0305336751043796
1768216471248456400;3.32845654296875;0.063201904296875;-0.059326171875;1.001861572265625;0.0040458743460476;0.0179563630372285;-0.0368275232613086
1768216471258457300;3.338457275390625;0.0604095458984375;-0.056640625;1.0045928955078125;0.0071223578415811;0.0154527258127927;-0.0362911634147167
1768216471268457500;3.34845751953125;0.0558319091796875;-0.0591278076171875;1.005035400390625;0.0077340858988463;0.0167110692709684;-0.0362370982766151
1768216471278458400;3.358458251953125;0.0572509765625;-0.055999755859375;1.0067596435546875;0.0066776098683476;0.0120092583820223;-0.0319475457072258
1768216471288458200;3.368458251953125;0.0645904541015625;-0.0552825927734375;1.004547119140625;0.0038458709605038;0.0021651498973369;-0.02955948933959
1768216471298459400;3.37845947265625;0.0597381591796875;-0.055908203125;0.9990386962890624;0.0009376989910379;0.0038362834602594;-0.0276910159736871
1768216471308460500;3.38846044921875;0.0557403564453125;-0.0530242919921875;0.9971923828125;-0.0028826056513935;0.0056427055969834;-0.0249104090034961
1768216471318460400;3.39846044921875;0.056854248046875;-0.0504150390625;0.9971923828125;-0.0021781993564218;0.0033510555513203;-0.0261165555566549
1768216471328461300;3.40846142578125;0.0570526123046875;-0.05072021484375;0.996734619140625;-0.0025936525780707;-0.0016429040115326;-0.0278718452900648
1768216471338461000;3.4184609375;0.055084228515625;-0.05352783203125;0.9973297119140624;-0.0019744676537811;-6.79106087773e-05;-0.0269525218755006
1768216471348461800;3.4284619140625;0.054962158203125;-0.0535888671875;0.99639892578125;-0.002738528419286;0.0007099987124092;-0.0282140616327524
1768216471358462000;3.4384619140625;0.057861328125;-0.05645751953125;0.9981842041015624;-0.0027284084353595;-0.001726527349092;-0.0293368492275476
1768216471368462800;3.448462890625;0.0586395263671875;-0.0559234619140625;0.998779296875;-0.0020200076978653;-0.0080552631989121;-0.0258044321089983
1768216471378464000;3.458464111328125;0.05706787109375;-0.0541229248046875;0.99713134765625;-0.0005861617391929;-0.013520335778594;-0.0198924820870161
1768216471388463900;3.4684638671875;0.059600830078125;-0.0554046630859375;0.9971771240234376;-0.0013233247445896;-0.0197990052402019;-0.015580290928483
1768216471398465000;3.478465087890625;0.0595550537109375;-0.0522003173828125;0.9990081787109376;-0.0048895636573433;-0.0261005759239196;-0.01540984865278
1768216471408465000;3.48846484375;0.063568115234375;-0.054229736328125;0.99945068359375;-0.0010583401890471;-0.0387987941503524;-0.0217756032943725
1768216471418465800;3.4984658203125;0.0616302490234375;-0.0558929443359375;1.0016326904296875;-0.005233644042164;-0.043199136853218;-0.0221473798155784
1768216471428466700;3.508466796875;0.05718994140625;-0.0579986572265625;1.001251220703125;-0.0058589545078575;-0.0431205742061138;-0.0245759170502424
1768216471438466800;3.518466796875;0.0570526123046875;-0.0564727783203125;0.9998321533203124;-0.0086763128638267;-0.0354301631450653;-0.0190525203943252
1768216471448468000;3.528468017578125;0.0543975830078125;-0.0555267333984375;1.0015716552734375;-0.0069135660305619;-0.0287189967930316;-0.0193225648254156
1768216471458467800;3.5384677734375;0.05743408203125;-0.0552825927734375;1.0001068115234375;-0.0063697486184537;-0.0295301955193281;-0.0190993919968605
1768216471468469000;3.548468994140625;0.0557098388671875;-0.051971435546875;0.9995880126953124;-0.0059854546561837;-0.0263770129531621;-0.0147051764652132
1768216471478470000;3.558469970703125;0.0558013916015625;-0.053802490234375;0.9983367919921876;-0.007186806295067;-0.0327560827136039;-0.0147547116503119
1768216471488469800;3.5684697265625;0.05511474609375;-0.0534515380859375;0.9980010986328124;-0.0086193205788731;-0.0287925004959106;-0.0160569977015256
1768216471498470700;3.578470703125;0.0486297607421875;-0.0523681640625;0.99560546875;-0.0079047949984669;-0.0218682810664176;-0.0135027589276432
1768216471508471000;3.588470947265625;0.0477752685546875;-0.0508270263671875;0.9946441650390624;-0.0063140885904431;-0.0064680194482207;-0.0132673354819417
1768216471518472000;3.598471923828125;0.0438385009765625;-0.0532379150390625;0.9931488037109376;-0.0030610372778028;0.0080832261592149;-0.0146465869620442
1768216471528472800;3.608472900390625;0.050384521484375;-0.0539093017578125;0.99212646484375;-0.0031446604989469;0.0102715454995632;-0.0121773043647408
1768216471538473000;3.618472900390625;0.0562744140625;-0.05511474609375;0.9962158203125;-0.0045827673748135;0.0099975066259503;-0.0085162566974759
1768216471548473900;3.628473876953125;0.0578460693359375;-0.0554656982421875;0.9972076416015624;-0.0021832594648003;0.0139411156997084;-0.0044623925350606
1768216471558473700;3.6384736328125;0.0596466064453125;-0.0533905029296875;0.9969024658203124;-0.0054717306047677;0.017190171405673;-0.002780872862786
1768216471568475100;3.64847509765625;0.058319091796875;-0.0535736083984375;0.9979248046875;-0.0118830250576138;0.0170844439417123;-0.0059508332051336
1768216471578475000;3.65847509765625;0.0561981201171875;-0.0527801513671875;1.00115966796875;-0.0133791882544755;0.0159166492521762;-0.0053494917228817
1768216471588476000;3.668475830078125;0.0578460693359375;-0.0532684326171875;1.0024261474609375;-0.0150045156478881;0.0153688360005617;-0.0071686971932649
1768216471598476800;3.678476806640625;0.0616912841796875;-0.05194091796875;0.998199462890625;-0.0155661767348647;0.0147142307832837;-0.0034376082476228
1768216471608477000;3.688476806640625;0.063873291015625;-0.0529632568359375;1.0005645751953125;-0.0119850235059857;0.012008992023766;-0.0043928842060267
1768216471618477800;3.698477783203125;0.0695343017578125;-0.0549468994140625;1.0005645751953125;-0.0113980630412697;0.0059164785780012;-0.0070547135546803
1768216471628477700;3.708477783203125;0.0662384033203125;-0.05615234375;0.9971160888671876;-0.0109368031844496;0.0043856934644281;-0.0097016291692852
1768216471638479000;3.71847900390625;0.0661163330078125;-0.056396484375;0.9931793212890624;-0.0121429488062858;0.0084424866363406;-0.0163443516939878
1768216471648480000;3.72847998046875;0.061981201171875;-0.0573577880859375;0.9911956787109376;-0.0090584764257073;0.0150689641013741;-0.0208181962370872
1768216471658479900;3.73847998046875;0.0655059814453125;-0.0574951171875;0.9890899658203124;-0.0118401478976011;0.0191388074308633;-0.0277405511587858
1768216471668480800;3.748480712890625;0.06719970703125;-0.05712890625;0.9917449951171876;-0.0119725065305829;0.0202706512063741;-0.0304721556603908
1768216471678481000;3.75848095703125;0.0675506591796875;-0.060028076171875;0.991912841796875;-0.0130023509263992;0.0272747632116079;-0.033010147511959
1768216471688481800;3.768481689453125;0.0704498291015625;-0.059967041015625;0.9918212890625;-0.0158822927623987;0.032965138554573;-0.0380989164113998
1768216471698483000;3.77848291015625;0.0723419189453125;-0.0585174560546875;0.9904632568359376;-0.0166088044643402;0.0350408069789409;-0.0443211272358894
1768216471708483000;3.788483154296875;0.0705413818359375;-0.05810546875;0.986083984375;-0.0180189479142427;0.0373154133558273;-0.0458391271531581
1768216471718484000;3.79848388671875;0.07073974609375;-0.057159423828125;0.9878387451171876;-0.0164183881133794;0.04073091968894;-0.0504895374178886
1768216471728483800;3.80848388671875;0.0714111328125;-0.0595245361328125;0.98651123046875;-0.0166141297668218;0.047543816268444;-0.0542888045310974
1768216471738484700;3.818484619140625;0.075897216796875;-0.0614013671875;0.9898681640625;-0.0178322605788707;0.0533766709268093;-0.0588207058608531
1768216471748486000;3.82848583984375;0.0759429931640625;-0.06097412109375;0.9912109375;-0.0165289100259542;0.0579194910824298;-0.0648213401436805
1768216471758485800;3.83848583984375;0.0802764892578125;-0.060760498046875;0.9908599853515624;-0.0128870364278554;0.0570382513105869;-0.0727820619940757
1768216471768487000;3.84848681640625;0.078857421875;-0.060577392578125;0.9912109375;-0.0139144835993647;0.0600212588906288;-0.0789696499705314
1768216471778487000;3.858487060546875;0.0785064697265625;-0.0586090087890625;0.99249267578125;-0.012180233374238;0.0551873557269573;-0.0841745287179946
1768216471788488000;3.868488037109375;0.0793914794921875;-0.0587310791015625;0.9950714111328124;-0.0116428071632981;0.0472892187535762;-0.0883836597204208
1768216471798488800;3.87848876953125;0.0713653564453125;-0.0584564208984375;0.9971466064453124;-0.0092275869101285;0.0517811737954616;-0.0883218720555305
1768216471808489000;3.888489013671875;0.067047119140625;-0.0596771240234375;1.005035400390625;-0.0096915094181895;0.0527321882545948;-0.0886691510677337
1768216471818489900;3.89848974609375;0.0715484619140625;-0.057891845703125;1.00543212890625;-0.004882373381406;0.0566891133785247;-0.0878640785813331
1768216471828489700;3.90848974609375;0.0668182373046875;-0.0534515380859375;1.0001983642578125;-0.006229932885617;0.0552925504744052;-0.0892507806420326
1768216471838491000;3.918490966796875;0.0672607421875;-0.05255126953125;1.00067138671875;-0.0074161044321954;0.0555378273129463;-0.0868398249149322
1768216471848491000;3.928490966796875;0.0618896484375;-0.052001953125;1.0002288818359375;-0.0096819223836064;0.0604383088648319;-0.0828168541193008
1768216471858492000;3.938491943359375;0.0626678466796875;-0.0486907958984375;1.0029296875;-0.0087436903268098;0.0614958517253398;-0.086548738181591
1768216471868492800;3.948492919921875;0.0627288818359375;-0.04998779296875;1.005218505859375;-0.0113522568717598;0.0643172040581703;-0.0913570746779441
1768216471878493000;3.958492919921875;0.0613555908203125;-0.05010986328125;1.0034637451171875;-0.011969044804573;0.0691412538290023;-0.0914992913603782
1768216471888493800;3.968493896484375;0.063720703125;-0.0507354736328125;1.003082275390625;-0.0108095044270157;0.0746755674481391;-0.0877879112958908
1768216471898494000;3.978493896484375;0.072662353515625;-0.04937744140625;1.0059814453125;-0.0087775122374296;0.0697303488850593;-0.0865391492843627
1768216471908494800;3.988494873046875;0.0788116455078125;-0.0491180419921875;1.0059051513671875;-0.0051164650358259;0.0612796023488044;-0.0898971334099769
1768216471918496000;3.99849609375;0.0807037353515625;-0.0515899658203125;1.0015106201171875;-0.0063995760865509;0.0542208924889564;-0.0923166126012802
1768216471928495900;4.008495849609375;0.083282470703125;-0.050689697265625;0.99737548828125;-0.0038144455756992;0.0499025769531726;-0.0958807244896888
1768216471938496800;4.018496826171875;0.090057373046875;-0.05255126953125;0.9933319091796876;-0.0062499064952135;0.0513619892299175;-0.098683163523674
1768216471948497000;4.028496826171875;0.09490966796875;-0.05291748046875;0.994537353515625;-0.0045436192303895;0.0563588812947273;-0.1053376048803329
1768216471958498000;4.038498046875;0.10028076171875;-0.05096435546875;0.9885101318359376;-0.0015947008505463;0.0581626370549202;-0.109884425997734
1768216471968499000;4.0484990234375;0.1105804443359375;-0.048797607421875;0.9888916015625;0.0005118595436215;0.0558590032160282;-0.1179554015398025
1768216471978498800;4.058498779296875;0.1219482421875;-0.0509033203125;0.9891815185546876;0.0028983182273805;0.0651712790131568;-0.1294267028570175
1768216471988500000;4.0685;0.1362762451171875;-0.05047607421875;0.9896240234375;0.002305498579517;0.0658490508794784;-0.1322384625673294
1768216471998499800;4.078499755859375;0.1392974853515625;-0.052490234375;0.980377197265625;0.0008351673022843;0.0681284517049789;-0.1296828985214233
1768216472008500700;4.088500732421875;0.14788818359375;-0.055633544921875;0.9765777587890624;0.0049217878840863;0.0633579343557357;-0.1367237567901611
1768216472018502000;4.098501953125;0.1526031494140625;-0.0568084716796875;0.9715118408203124;0.0009116000146605;0.0589109882712364;-0.1415022760629654
1768216472028502000;4.108501953125;0.150482177734375;-0.0593109130859375;0.963134765625;0.0005006743012927;0.0606625489890575;-0.1430120170116424
1768216472038503000;4.1185029296875;0.1512298583984375;-0.0603179931640625;0.9476470947265624;0.0002940129779744;0.0674368292093277;-0.1435185521841049
1768216472048503000;4.1285029296875;0.1542510986328125;-0.0596923828125;0.940093994140625;-0.0034900726750493;0.0611509718000888;-0.1424583494663238
1768216472058504000;4.13850390625;0.1494903564453125;-0.0605316162109375;0.9380340576171876;0.0043532028794288;0.0700232908129692;-0.1422748565673828
1768216472068504800;4.1485048828125;0.134521484375;-0.0658721923828125;0.94049072265625;0.0126518793404102;0.1063946187496185;-0.140504390001297
1768216472078504700;4.158504638671875;0.12750244140625;-0.0626220703125;0.941864013671875;0.0263021774590015;0.1477638930082321;-0.1375173777341842
1768216472088505900;4.168505859375;0.13153076171875;-0.05694580078125;0.942596435546875;0.0271759610623121;0.1636576354503631;-0.1268138736486435
1768216472098506000;4.178506103515625;0.1431427001953125;-0.0511627197265625;0.9410858154296876;0.0318727120757103;0.1756759583950042;-0.1235805302858352
1768216472108507000;4.1885068359375;0.1526031494140625;-0.0479736328125;0.9474334716796876;0.0361257791519165;0.1992052495479583;-0.1336573958396911
1768216472118507800;4.1985078125;0.155517578125;-0.0519866943359375;0.9542999267578124;0.0338804684579372;0.2189983874559402;-0.1375994086265564
1768216472128508000;4.2085078125;0.151702880859375;-0.05224609375;0.9551239013671876;0.037447240203619;0.2316516041755676;-0.1250457912683487
1768216472138508800;4.2185087890625;0.1452789306640625;-0.05487060546875;0.9510040283203124;0.0506687685847282;0.2554035484790802;-0.1083762720227241
1768216472148508700;4.2285087890625;0.147918701171875;-0.0562286376953125;0.9483642578125;0.0598675943911075;0.2722488343715668;-0.1018747016787529
1768216472158510000;4.238510009765625;0.1522369384765625;-0.055145263671875;0.949188232421875;0.0730766057968139;0.2703990042209625;-0.099148690700531
1768216472168510000;4.248510009765625;0.150665283203125;-0.051116943359375;0.9647216796875;0.0806868597865104;0.2745287716388702;-0.1022350266575813
1768216472178510800;4.2585107421875;0.1469879150390625;-0.0588531494140625;0.9571075439453124;0.078815720975399;0.2896411418914795;-0.1047636941075325
1768216472188511700;4.26851171875;0.1491851806640625;-0.0582122802734375;0.950439453125;0.074455589056015;0.2947043478488922;-0.1109251827001571
1768216472198511900;4.278511962890625;0.161041259765625;-0.068572998046875;0.95526123046875;0.0685372501611709;0.30353644490242;-0.1204097643494606
1768216472208512800;4.2885126953125;0.1715545654296875;-0.0754852294921875;0.947540283203125;0.0687596201896667;0.3094920814037323;-0.1273587495088577
1768216472218513000;4.298512939453125;0.1784515380859375;-0.0801544189453125;0.9391326904296876;0.0695031806826591;0.3254276216030121;-0.1361751556396484
1768216472228514000;4.30851416015625;0.1782684326171875;-0.0841522216796875;0.93646240234375;0.066823236644268;0.3517388701438904;-0.1389967650175094
1768216472238515000;4.318514892578125;0.1739349365234375;-0.085784912109375;0.9340057373046876;0.0669231042265892;0.3740590810775757;-0.1372633129358291
1768216472248514800;4.328514892578125;0.1641387939453125;-0.083892822265625;0.9375;0.0734707564115524;0.3815785050392151;-0.1328584551811218
1768216472258515700;4.338515625;0.1578216552734375;-0.0867156982421875;0.9363861083984376;0.0717029497027397;0.3860142827033996;-0.1271795183420181
1768216472268515800;4.348515869140625;0.1469879150390625;-0.085540771484375;0.9310302734375;0.0693255439400672;0.3993580341339111;-0.1179183796048164
1768216472278517000;4.35851708984375;0.149017333984375;-0.0802764892578125;0.9203033447265624;0.0610463097691535;0.4195703864097595;-0.1134522631764411
1768216472288518000;4.368517822265625;0.1707916259765625;-0.071319580078125;0.934112548828125;0.0686688125133514;0.4371099472045898;-0.1291278898715973
1768216472298518000;4.37851806640625;0.1960906982421875;-0.0713043212890625;0.9461822509765624;0.0849223509430885;0.4378079771995544;-0.1352795213460922
1768216472308519000;4.388518798828125;0.1970672607421875;-0.0652923583984375;0.9549102783203124;0.1051091104745864;0.4531139433383941;-0.1413414180278778
1768216472318518800;4.398518798828125;0.1895599365234375;-0.067291259765625;0.9499664306640624;0.1214409470558166;0.49578657746315;-0.1532478779554367
1768216472328520000;4.40852001953125;0.17620849609375;-0.069671630859375;0.9403228759765624;0.1419113278388977;0.5388283133506775;-0.1579475551843643
1768216472338521000;4.41852099609375;0.171966552734375;-0.070098876953125;0.9354400634765624;0.1556876003742218;0.5540802478790283;-0.1607097834348678
1768216472348521000;4.42852099609375;0.17352294921875;-0.0727691650390625;0.9328460693359376;0.1660757958889007;0.5552179217338562;-0.1608426719903946
1768216472358522000;4.438522216796875;0.18096923828125;-0.0758819580078125;0.9262847900390624;0.1664678007364273;0.5728158354759216;-0.1736290454864502
1768216472368522200;4.448522216796875;0.193389892578125;-0.084564208984375;0.9239959716796876;0.1651167869567871;0.5951363444328308;-0.195962056517601
1768216472378523100;4.458523193359375;0.18731689453125;-0.0887298583984375;0.9339599609375;0.1596367955207824;0.6352986693382263;-0.2081702500581741
1768216472388523000;4.46852294921875;0.173980712890625;-0.090911865234375;0.9253692626953124;0.1556692272424698;0.6563816070556641;-0.1991807520389557
1768216472398524200;4.478524169921875;0.1775360107421875;-0.0883026123046875;0.9049530029296876;0.1552143543958664;0.6807681322097778;-0.1833075135946273
1768216472408525000;4.488525146484375;0.180023193359375;-0.0861358642578125;0.884979248046875;0.1473319232463836;0.6943678259849548;-0.1533189862966537
1768216472418525200;4.498525146484375;0.194244384765625;-0.0808258056640625;0.8863677978515625;0.1571520715951919;0.7070357203483582;-0.129707932472229
1768216472428526000;4.508526123046875;0.2127532958984375;-0.07830810546875;0.9105377197265624;0.1677024513483047;0.706682026386261;-0.1111065447330474
1768216472438526200;4.518526123046875;0.2144622802734375;-0.0769195556640625;0.9160308837890624;0.1858023554086685;0.7099164724349976;-0.1095752269029617
1768216472448527000;4.528527099609375;0.208038330078125;-0.0705413818359375;0.922271728515625;0.2078479975461959;0.7131929397583008;-0.1196206733584404
1768216472458528000;4.538528076171875;0.209716796875;-0.0703125;0.9155731201171876;0.2190729677677154;0.7232620716094971;-0.1334147751331329
1768216472468528000;4.548528076171875;0.226287841796875;-0.075653076171875;0.9478302001953124;0.2396006137132644;0.7217816114425659;-0.1636658906936645
1768216472478529300;4.558529296875;0.2493896484375;-0.080169677734375;0.967041015625;0.2594664692878723;0.7148025631904602;-0.2025712132453918
1768216472488529200;4.568529052734375;0.2673492431640625;-0.093048095703125;0.9496307373046876;0.2613884508609772;0.7285125255584717;-0.2446148097515106
1768216472498530000;4.578530029296875;0.2775726318359375;-0.1017913818359375;0.950958251953125;0.2648772001266479;0.7058122754096985;-0.2664220929145813
1768216472508531200;4.58853125;0.290191650390625;-0.1058807373046875;0.9607086181640624;0.27772057056427;0.6455678343772888;-0.2758675217628479
1768216472518531000;4.598531005859375;0.282135009765625;-0.1092376708984375;0.9732666015625;0.2789895534515381;0.6065109372138977;-0.2390320152044296
1768216472528532000;4.608531982421875;0.2765960693359375;-0.1077423095703125;0.9835205078125;0.2914797961711883;0.5662495493888855;-0.2157512009143829
1768216472538532000;4.618531982421875;0.28204345703125;-0.109954833984375;1.0002899169921875;0.3024341762065887;0.5497989654541016;-0.2139080315828323
1768216472548533200;4.628533203125;0.2799224853515625;-0.117767333984375;1.01434326171875;0.2960873246192932;0.5687289834022522;-0.230032667517662
1768216472558534100;4.6385341796875;0.2813873291015625;-0.1172943115234375;0.993682861328125;0.2899663150310516;0.5695894360542297;-0.2527880370616913
1768216472568534000;4.648533935546875;0.2841949462890625;-0.1141510009765625;0.96392822265625;0.2905266284942627;0.5484803915023804;-0.2712181806564331
1768216472578535200;4.65853515625;0.2765960693359375;-0.1224212646484375;0.946563720703125;0.280190646648407;0.5321206450462341;-0.2641083598136902
1768216472588535000;4.66853515625;0.258514404296875;-0.129058837890625;0.9364013671875;0.2742829620838165;0.5134372115135193;-0.252911627292633
1768216472598536000;4.678535888671875;0.2374725341796875;-0.1305694580078125;0.9161376953125;0.2877455055713653;0.4808156192302704;-0.2354556620121002
1768216472608537000;4.688537109375;0.2160491943359375;-0.1298065185546875;0.902496337890625;0.2946396172046661;0.4408804476261139;-0.2028423249721527
1768216472618537200;4.698537109375;0.19549560546875;-0.136566162109375;0.8874664306640625;0.3013904690742492;0.4189163148403168;-0.1655852347612381
1768216472628538000;4.7085380859375;0.1993408203125;-0.1329498291015625;0.8723602294921875;0.3061117231845855;0.3699394464492798;-0.1341838985681533
1768216472638538200;4.718538330078125;0.235137939453125;-0.1297454833984375;0.87445068359375;0.3178828954696655;0.2958159446716308;-0.1240239441394805
1768216472648539100;4.7285390625;0.2736358642578125;-0.1321868896484375;0.890899658203125;0.3259099423885345;0.1779865175485611;-0.1317399144172668
1768216472658539000;4.7385390625;0.3112030029296875;-0.1438751220703125;0.911529541015625;0.3313174843788147;0.0846373885869979;-0.1551206111907959
1768216472668540000;4.748539794921875;0.301788330078125;-0.1473541259765625;0.9056549072265624;0.3314623534679413;0.1028230488300323;-0.1581398397684097
1768216472678541000;4.758541015625;0.2953643798828125;-0.16943359375;0.9022369384765624;0.3113222122192383;0.0917197987437248;-0.1714244782924652
1768216472688541200;4.768541259765625;0.2714385986328125;-0.1714630126953125;0.9081878662109376;0.309963971376419;0.1080638840794563;-0.1432298570871353
1768216472698542000;4.7785419921875;0.2651824951171875;-0.167449951171875;0.904541015625;0.3129989206790924;0.0880070850253105;-0.1180757731199264
1768216472708542200;4.788542236328125;0.29266357421875;-0.1793670654296875;0.8948211669921875;0.3092768788337707;0.0202930215746164;-0.1321465820074081
1768216472718543000;4.798543212890625;0.3231201171875;-0.18353271484375;0.8853912353515625;0.3006839454174042;-0.0872853696346283;-0.1815681904554367
1768216472728544000;4.8085439453125;0.34112548828125;-0.1940765380859375;0.89459228515625;0.2920707464218139;-0.2203763127326965;-0.2476385533809662
1768216472738543900;4.8185439453125;0.331329345703125;-0.1855621337890625;0.94110107421875;0.3444963991641998;-0.3409778177738189;-0.2984873652458191
1768216472748545300;4.828545166015625;0.317138671875;-0.1923370361328125;0.9820709228515624;0.3921214342117309;-0.4035559892654419;-0.3054025173187256
1768216472758545200;4.838545166015625;0.321868896484375;-0.21783447265625;1.0050811767578125;0.4025498330593109;-0.4140043556690216;-0.2922923266887665
1768216472768546000;4.848546142578125;0.3378448486328125;-0.232696533203125;0.9976348876953124;0.3791494369506836;-0.4012787044048309;-0.2674095928668976
1768216472778547000;4.858546875;0.3291473388671875;-0.2513427734375;0.9737548828125;0.3480056524276733;-0.3536374270915985;-0.2275862842798233
1768216472788547000;4.868547119140625;0.3281097412109375;-0.2505950927734375;0.9514007568359376;0.3142431378364563;-0.299279123544693;-0.2053433060646057
1768216472798548000;4.8785478515625;0.2960205078125;-0.25201416015625;0.922637939453125;0.264607697725296;-0.226052314043045;-0.1910368055105209
1768216472808548000;4.888548095703125;0.270050048828125;-0.2467498779296875;0.8970184326171875;0.2179411202669143;-0.1622190028429031;-0.2145804762840271
1768216472818549200;4.89854931640625;0.2335357666015625;-0.22784423828125;0.88629150390625;0.1763949990272522;-0.1193940415978431;-0.2330401688814163
1768216472828550100;4.908550048828125;0.2070770263671875;-0.2124481201171875;0.88104248046875;0.1821652799844741;-0.1225861012935638;-0.2611429095268249
1768216472838550000;4.918550048828125;0.1978607177734375;-0.20391845703125;0.8734893798828125;0.17939293384552;-0.1407976001501083;-0.2837172150611877
1768216472848551000;4.928551025390625;0.1958160400390625;-0.2066192626953125;0.8823394775390625;0.1857440322637558;-0.1777830421924591;-0.2946673333644867
1768216472858551000;4.938551025390625;0.1949310302734375;-0.2099456787109375;0.9053192138671876;0.2019682824611663;-0.1993937939405441;-0.2990732491016388
1768216472868552200;4.94855224609375;0.2039794921875;-0.2194976806640625;0.936431884765625;0.2131468951702118;-0.170856162905693;-0.2754329144954681
1768216472878553000;4.958552978515625;0.2042083740234375;-0.2313385009765625;0.9523468017578124;0.2110435366630554;-0.1330360770225525;-0.2296097576618194
1768216472888553200;4.96855322265625;0.2235107421875;-0.2309112548828125;0.94525146484375;0.2205092012882232;-0.1221514716744422;-0.2068000435829162
1768216472898554000;4.97855419921875;0.2587890625;-0.2345733642578125;0.941070556640625;0.2212972342967987;-0.1318078339099884;-0.2037848234176635
1768216472908554000;4.988553955078125;0.27264404296875;-0.2377471923828125;0.936614990234375;0.232015922665596;-0.132751926779747;-0.2048993557691574
1768216472918555100;4.99855517578125;0.2774200439453125;-0.2319488525390625;0.945892333984375;0.2392970025539398;-0.1171559169888496;-0.2034447342157364
1768216472928555000;5.008554931640625;0.2844696044921875;-0.2310638427734375;0.9566192626953124;0.2382349371910095;-0.1073658689856529;-0.2047009468078613
1768216472938556200;5.01855615234375;0.2855377197265625;-0.23150634765625;0.95074462890625;0.2327078133821487;-0.1053144410252571;-0.1976829767227172
1768216472948557000;5.02855712890625;0.2819671630859375;-0.24176025390625;0.9200286865234376;0.1796845495700836;-0.1207463890314102;-0.1863091588020324
1768216472958557200;5.03855712890625;0.2800140380859375;-0.2448577880859375;0.9143829345703124;0.1675053685903549;-0.1387906372547149;-0.1863477677106857
1768216472968558000;5.04855810546875;0.289306640625;-0.2565155029296875;0.9173431396484376;0.1555778682231903;-0.2027070373296737;-0.2032993286848068
1768216472978558000;5.058557861328125;0.29095458984375;-0.2695770263671875;0.9329376220703124;0.1474781334400177;-0.2421548515558242;-0.2238490730524063
1768216472988559000;5.06855908203125;0.289306640625;-0.2870635986328125;0.935028076171875;0.1222396269440651;-0.292076051235199;-0.2334625571966171
1768216472998560300;5.078560302734375;0.289520263671875;-0.300872802734375;0.9271392822265624;0.0900995358824729;-0.3428862392902374;-0.2300009727478027
1768216473008560000;5.08856005859375;0.2783050537109375;-0.2957305908203125;0.9338836669921876;0.0417066998779773;-0.4115166962146759;-0.2082208395004272
1768216473018561000;5.09856103515625;0.256500244140625;-0.2841949462890625;0.9384765625;-0.0132417697459459;-0.4814843535423279;-0.1769761145114898
1768216473028561200;5.10856103515625;0.2364501953125;-0.2656097412109375;0.924774169921875;-0.0656658262014389;-0.5485574007034302;-0.1537781059741974
1768216473038562000;5.11856201171875;0.226226806640625;-0.2509918212890625;0.903778076171875;-0.1138378828763961;-0.6224622130393982;-0.1441225558519363
1768216473048563000;5.12856298828125;0.218017578125;-0.241363525390625;0.8886260986328125;-0.152461975812912;-0.7017586827278137;-0.1395070254802703
1768216473058563000;5.13856298828125;0.2182159423828125;-0.235321044921875;0.898895263671875;-0.1632565706968307;-0.7653762698173523;-0.127334788441658
1768216473068564200;5.148564208984375;0.2113494873046875;-0.2320556640625;0.9169158935546876;-0.1780251264572143;-0.8041361570358276;-0.1002480387687683
1768216473078564000;5.158564208984375;0.2042083740234375;-0.240142822265625;0.93695068359375;-0.1882886886596679;-0.803805410861969;-0.0792266428470611
1768216473088565000;5.16856494140625;0.2138824462890625;-0.25286865234375;0.960723876953125;-0.184325098991394;-0.7803741097450256;-0.0642303824424743
1768216473098566100;5.178566162109375;0.2229156494140625;-0.261993408203125;0.9737091064453124;-0.1769529432058334;-0.7438395023345947;-0.0538134314119815
1768216473108566000;5.18856591796875;0.2262115478515625;-0.269622802734375;0.9672393798828124;-0.1718061119318008;-0.696817934513092;-0.0439461506903171
1768216473118567000;5.19856689453125;0.2375030517578125;-0.27178955078125;0.9532012939453124;-0.1773609369993209;-0.668201744556427;-0.0470268987119197
1768216473128567300;5.2085673828125;0.2482757568359375;-0.2734375;0.9348602294921876;-0.1846478730440139;-0.6534960269927979;-0.0532203428447246
1768216473138568200;5.218568115234375;0.252655029296875;-0.2630767822265625;0.9178009033203124;-0.1997874081134796;-0.6655897498130798;-0.0646354481577873
1768216473148568000;5.228568115234375;0.25;-0.2456817626953125;0.913818359375;-0.2260381877422332;-0.6998656988143921;-0.0876198634505271
1768216473158569200;5.2385693359375;0.2333526611328125;-0.2351531982421875;0.9177703857421876;-0.2609232068061828;-0.7445210218429565;-0.12441036850214
1768216473168570000;5.248570068359375;0.208892822265625;-0.2333831787109375;0.918670654296875;-0.3090169727802276;-0.7975176572799683;-0.1785148829221725
1768216473178570000;5.258570068359375;0.1842498779296875;-0.2454833984375;0.9252166748046876;-0.3714968562126159;-0.8436374664306641;-0.2483821213245391
1768216473188571100;5.268571044921875;0.148223876953125;-0.2555084228515625;0.9345703125;-0.4300459325313568;-0.8771403431892395;-0.3020461499691009
1768216473198571300;5.2785712890625;0.1059112548828125;-0.259063720703125;0.9551849365234376;-0.4691003859043121;-0.902516543865204;-0.3332983255386352
1768216473208572200;5.288572265625;0.085235595703125;-0.253662109375;0.986297607421875;-0.5022404789924622;-0.9253240823745728;-0.3522941172122955
1768216473218573000;5.298572998046875;0.0819854736328125;-0.25177001953125;1.0249481201171875;-0.5286962985992432;-0.9363450407981871;-0.3720172345638275
1768216473228573200;5.3085732421875;0.0861053466796875;-0.24835205078125;1.09124755859375;-0.5202152132987976;-0.9686891436576844;-0.3888098001480102
1768216473238574000;5.318573974609375;0.08795166015625;-0.24346923828125;1.1222991943359375;-0.5427229404449463;-0.9666635394096376;-0.3908726871013641
1768216473248574000;5.328573974609375;0.0698699951171875;-0.261016845703125;1.108551025390625;-0.5446771383285522;-0.9390864968299866;-0.3818906247615814
1768216473258575000;5.3385751953125;0.0700836181640625;-0.266143798828125;1.22552490234375;-0.5179867148399353;-0.9452368021011353;-0.3719338774681091
1768216473268576300;5.348576171875;0.047637939453125;-0.2649688720703125;1.260162353515625;-0.5208562612533569;-0.9232977032661438;-0.3514539003372192
1768216473278576000;5.358576171875;0.0070343017578125;-0.2621917724609375;1.25750732421875;-0.5215287208557129;-0.9417763352394104;-0.28765869140625
1768216473288577000;5.368576904296875;0.000152587890625;-0.252716064453125;1.3333892822265625;-0.5023638010025024;-0.967884361743927;-0.2251660078763961
1768216473298577200;5.3785771484375;0.0040283203125;-0.2527923583984375;1.3896942138671875;-0.4843003749847412;-1.0107487440109253;-0.1562303453683853
1768216473308578000;5.388578125;0.00140380859375;-0.2578277587890625;1.39019775390625;-0.4613276720046997;-1.0198612213134766;-0.1085323393344879
1768216473318579200;5.3985791015625;0.003936767578125;-0.2696685791015625;1.3901519775390625;-0.4254293143749237;-1.0162254571914673;-0.0551623217761516
1768216473328579000;5.4085791015625;-0.01251220703125;-0.2672576904296875;1.3373870849609375;-0.3949105739593506;-1.0041054487228394;-0.0080387517809867
1768216473338580200;5.418580322265625;-0.022796630859375;-0.250091552734375;1.276702880859375;-0.3685593903064728;-0.9907736778259276;0.0234059896320104
1768216473348580000;5.428580078125;-0.03851318359375;-0.2281341552734375;1.2035369873046875;-0.3617582023143768;-1.0076144933700562;0.0513041988015174
1768216473358581000;5.4385810546875;-0.0556182861328125;-0.189117431640625;1.13140869140625;-0.3703604936599731;-1.0374886989593506;0.0821992680430412
1768216473368582000;5.448581787109375;-0.075714111328125;-0.153289794921875;1.0687713623046875;-0.3863818049430847;-1.0577958822250366;0.1119784638285636
1768216473378582000;5.45858203125;-0.10809326171875;-0.1236724853515625;1.022735595703125;-0.3944756686687469;-1.0509874820709229;0.1294986009597778
1768216473388583000;5.4685830078125;-0.133331298828125;-0.1069793701171875;0.988311767578125;-0.3943172097206116;-1.0130584239959717;0.1268506199121475
1768216473398583000;5.4785830078125;-0.152984619140625;-0.09930419921875;0.9485321044921876;-0.3918644487857818;-0.9428740739822388;0.1134027242660522
1768216473408584200;5.488584228515625;-0.169525146484375;-0.09326171875;0.91851806640625;-0.3832603096961975;-0.8424779772758484;0.1013340801000595
1768216473418585000;5.498585205078125;-0.174896240234375;-0.09686279296875;0.8961639404296875;-0.3677402138710022;-0.7224999070167542;0.0852504521608352
1768216473428585000;5.5085849609375;-0.1656951904296875;-0.1012115478515625;0.8715057373046875;-0.3467800617218017;-0.6123132109642029;0.068626195192337
1768216473438586000;5.518586181640625;-0.1579742431640625;-0.1049346923828125;0.8485565185546875;-0.3277528285980224;-0.5197529196739197;0.0377106256783008
1768216473448586000;5.5285859375;-0.1475830078125;-0.1129302978515625;0.83551025390625;-0.3035521507263183;-0.4461950659751892;0.0021824603900313
1768216473458587000;5.5385869140625;-0.141815185546875;-0.1183319091796875;0.8333892822265625;-0.2683244049549103;-0.3998688459396362;-0.0302796084433794
1768216473468587000;5.5485869140625;-0.13739013671875;-0.133331298828125;0.8395233154296875;-0.2442550063133239;-0.3785283863544464;-0.0538507141172885
1768216473478588200;5.558588134765625;-0.1475372314453125;-0.1371917724609375;0.85699462890625;-0.232889711856842;-0.3690488636493683;-0.0606926418840885
1768216473488589000;5.568589111328125;-0.15869140625;-0.1377410888671875;0.8841094970703125;-0.2181677520275116;-0.3686850965023041;-0.0654077678918838
1768216473498589000;5.5785888671875;-0.168182373046875;-0.135955810546875;0.9268951416015624;-0.2033374011516571;-0.3652048707008362;-0.0765429809689521
1768216473508590000;5.588590087890625;-0.178070068359375;-0.14404296875;0.958770751953125;-0.2005141973495483;-0.3611717820167541;-0.0804668813943862
1768216473518590000;5.59858984375;-0.181793212890625;-0.146148681640625;0.9786529541015624;-0.2026702910661697;-0.3690749704837799;-0.0793006792664527
1768216473528590800;5.6085908203125;-0.170654296875;-0.1437835693359375;0.9839935302734376;-0.2069278806447982;-0.3769997358322143;-0.0823579877614975
1768216473538592000;5.618592041015625;-0.1557464599609375;-0.1420440673828125;0.98486328125;-0.2131367772817611;-0.4031988680362701;-0.0851865336298942
1768216473548592000;5.628592041015625;-0.1407470703125;-0.139892578125;0.9858551025390624;-0.2253015637397766;-0.4370891749858856;-0.0848967805504798
1768216473558593000;5.638593017578125;-0.1304473876953125;-0.1423797607421875;0.9934234619140624;-0.2278017401695251;-0.4686974287033081;-0.0879154726862907
1768216473568593200;5.64859326171875;-0.128326416015625;-0.14093017578125;1.0048065185546875;-0.2219627499580383;-0.5007137060165405;-0.0936188995838165
1768216473578594000;5.658593994140625;-0.140869140625;-0.133880615234375;1.0148468017578125;-0.2082964777946472;-0.5187105536460876;-0.0859146416187286
1768216473588595000;5.668594970703125;-0.1648712158203125;-0.125152587890625;1.01861572265625;-0.2055401057004928;-0.5378381609916687;-0.077338732779026
1768216473598594800;5.6785947265625;-0.1839141845703125;-0.1141510009765625;1.0186920166015625;-0.210907444357872;-0.5544434785842896;-0.061903316527605
1768216473608596000;5.688595947265625;-0.192047119140625;-0.1074066162109375;1.0208282470703125;-0.2213073521852493;-0.5911093950271606;-0.0518541410565376
1768216473618596000;5.69859619140625;-0.2020111083984375;-0.0963897705078125;1.02313232421875;-0.2236136496067047;-0.6219053864479065;-0.0531819947063922
1768216473628597000;5.708596923828125;-0.214447021484375;-0.0881805419921875;1.02471923828125;-0.2281596660614013;-0.6393908858299255;-0.0394251719117164
1768216473638598000;5.718597900390625;-0.227294921875;-0.0758819580078125;1.0252685546875;-0.233841523528099;-0.6543245315551758;-0.025612685829401
1768216473648598000;5.728597900390625;-0.23931884765625;-0.068511962890625;1.01617431640625;-0.2336194068193435;-0.6377045512199402;-0.0180663522332906
1768216473658599000;5.738598876953125;-0.2523040771484375;-0.0640411376953125;1.00555419921875;-0.2273346185684204;-0.6131712794303894;-0.0184176228940486
1768216473668599000;5.74859912109375;-0.2533111572265625;-0.0589447021484375;0.9944610595703124;-0.2185882627964019;-0.5803033113479614;-0.0228754878044128
1768216473678600200;5.75860009765625;-0.2516937255859375;-0.0522918701171875;0.9647674560546876;-0.2151397317647934;-0.5344026684761047;-0.0201244428753852
1768216473688601000;5.76860107421875;-0.2362213134765625;-0.0439910888671875;0.92950439453125;-0.2095817178487777;-0.5107311606407166;-0.018849054351449
1768216473698601000;5.77860107421875;-0.222747802734375;-0.0420684814453125;0.9151763916015624;-0.2140321284532547;-0.5108046531677246;-0.0388893410563468
1768216473708601900;5.788601806640625;-0.240081787109375;-0.03338623046875;0.912200927734375;-0.2138124257326126;-0.5068796873092651;-0.0554962828755378
1768216473718602000;5.79860205078125;-0.2578277587890625;-0.030914306640625;0.9217071533203124;-0.2118659168481826;-0.4918677508831024;-0.0737972557544708
1768216473728603100;5.80860302734375;-0.2758026123046875;-0.0285797119140625;0.94793701171875;-0.1946464478969574;-0.4731406569480896;-0.0801789909601211
1768216473738603000;5.81860302734375;-0.296478271484375;-0.0323333740234375;0.969268798828125;-0.1719374060630798;-0.4296445846557617;-0.0819337517023086
1768216473748604200;5.828604248046875;-0.302978515625;-0.04052734375;0.968017578125;-0.1558340638875961;-0.3698331713676452;-0.0709969475865364
1768216473758605000;5.83860498046875;-0.3021240234375;-0.0408782958984375;0.9611358642578124;-0.1460802406072616;-0.3186272382736206;-0.0529228709638118
1768216473768605000;5.84860498046875;-0.289215087890625;-0.048858642578125;0.9523162841796876;-0.1429933756589889;-0.2922446429729461;-0.0341411940753459
1768216473778605800;5.858605712890625;-0.2846527099609375;-0.0590057373046875;0.9453582763671876;-0.137215107679367;-0.26722452044487;-0.0293309912085533
1768216473788606000;5.86860595703125;-0.280975341796875;-0.0667724609375;0.9395751953125;-0.1431387811899185;-0.2562142014503479;-0.0352602526545524
1768216473798607000;5.878607177734375;-0.2778167724609375;-0.070556640625;0.9351348876953124;-0.156175747513771;-0.2510633766651153;-0.0518453530967235
1768216473808608000;5.88860791015625;-0.28448486328125;-0.0701446533203125;0.9389495849609376;-0.1658739149570465;-0.2360372990369796;-0.0637595355510711
1768216473818608000;5.898608154296875;-0.2911529541015625;-0.067535400390625;0.950836181640625;-0.1747971028089523;-0.2165248543024063;-0.0705873519182205
1768216473828609000;5.908609130859375;-0.2990264892578125;-0.064544677734375;0.96307373046875;-0.1744415760040283;-0.1936861127614975;-0.0701814815402031
1768216473838609000;5.91860888671875;-0.30303955078125;-0.0619659423828125;0.967559814453125;-0.1739443689584732;-0.1725936084985733;-0.0722358450293541
1768216473848610000;5.928610107421875;-0.301513671875;-0.05303955078125;0.9621124267578124;-0.1776687949895858;-0.1648882925510406;-0.0721088126301765
1768216473858611200;5.938611083984375;-0.306915283203125;-0.0506744384765625;0.95599365234375;-0.1817831099033355;-0.161088228225708;-0.0704118460416793
1768216473868611000;5.948611083984375;-0.3185272216796875;-0.0480804443359375;0.947418212890625;-0.186753898859024;-0.1588253378868103;-0.0659933984279632
1768216473878612000;5.958612060546875;-0.3253021240234375;-0.047454833984375;0.940948486328125;-0.1830425262451172;-0.1420061439275741;-0.0683103501796722
1768216473888612000;5.968612060546875;-0.32684326171875;-0.044403076171875;0.93646240234375;-0.1739954948425293;-0.1180328950285911;-0.0754777118563652
1768216473898613000;5.978613037109375;-0.3183746337890625;-0.0399932861328125;0.9341888427734376;-0.1559597700834274;-0.1169857382774353;-0.0849375277757644
1768216473908614000;5.98861376953125;-0.30877685546875;-0.0414886474609375;0.9418487548828124;-0.1387709379196167;-0.1192592829465866;-0.0982045978307724
1768216473918614000;5.998614013671875;-0.3113861083984375;-0.0357208251953125;0.9525146484375;-0.1145763769745826;-0.1218361556529998;-0.10062887519598
1768216473928615200;6.008615234375;-0.31268310546875;-0.026153564453125;0.9598236083984376;-0.0948830991983413;-0.1336299628019333;-0.1016861498355865
1768216473938615000;6.018614990234375;-0.3164825439453125;-0.0294647216796875;0.968658447265625;-0.0808905884623527;-0.1478637605905532;-0.0972791463136673
1768216473948616000;6.028615966796875;-0.322509765625;-0.033477783203125;0.9756317138671876;-0.06842752546072;-0.1396572291851043;-0.0864946767687797
1768216473958617000;6.0386171875;-0.3234100341796875;-0.0275115966796875;0.9741973876953124;-0.0571474432945251;-0.125374436378479;-0.0823177769780159
1768216473968617000;6.048616943359375;-0.3119049072265625;-0.0297393798828125;0.96221923828125;-0.0416952483355999;-0.1101699098944664;-0.0874622017145156
1768216473978617900;6.058617919921875;-0.3053131103515625;-0.0336761474609375;0.963623046875;-0.0183225478976964;-0.094177097082138;-0.0911440253257751
1768216473988618200;6.0686181640625;-0.3070526123046875;-0.044830322265625;0.9665374755859376;0.0013211942277848;-0.0671585276722908;-0.0858651101589202
1768216473998619100;6.078619140625;-0.311859130859375;-0.0437469482421875;0.9671630859375;0.012867328710854;-0.0409263931214809;-0.0746550634503364
1768216474008619000;6.088618896484375;-0.3077545166015625;-0.0457000732421875;0.9662322998046876;0.0190471950918436;-0.0299168862402439;-0.0653411895036697
1768216474018620000;6.098619873046875;-0.3127288818359375;-0.047760009765625;0.9592437744140624;0.018624285236001;-0.0162138566374778;-0.0581836774945259
1768216474028621000;6.10862109375;-0.318023681640625;-0.0422821044921875;0.948272705078125;0.018154501914978;-0.0138718737289309;-0.0556297078728675
1768216474038621000;6.118620849609375;-0.3195037841796875;-0.0314788818359375;0.9452056884765624;0.0212243292480707;-0.0156684424728155;-0.0600699931383132
1768216474048622000;6.1286220703125;-0.32452392578125;-0.025146484375;0.9398651123046876;0.0214887801557779;-0.0189894028007984;-0.0666498690843582
1768216474058622200;6.138622314453125;-0.3354339599609375;-0.0228729248046875;0.9447174072265624;0.0204192548990249;-0.0178985726088285;-0.0729202777147293
1768216474068623000;6.148623046875;-0.342864990234375;-0.02056884765625;0.95574951171875;0.0232422053813934;-0.0159866902977228;-0.0701934695243835
1768216474078624000;6.1586240234375;-0.345550537109375;-0.0218048095703125;0.9619293212890624;0.0188815463334321;-0.0029313412960618;-0.0583149716258049
1768216474088624000;6.1686240234375;-0.3434295654296875;-0.0219573974609375;0.9663848876953124;0.022382004186511;0.0061993063427507;-0.0381116978824138
1768216474098625000;6.178625;-0.33441162109375;-0.02099609375;0.9661865234375;0.0296580269932746;0.0124734472483396;-0.024851020425558
1768216474108625000;6.188625;-0.3135833740234375;-0.0138702392578125;0.9537200927734376;0.0288167335093021;0.0044991443865001;-0.0270846150815486
1768216474118626000;6.1986259765625;-0.289093017578125;-0.01263427734375;0.938201904296875;0.0248542167246341;-0.0091354418545961;-0.0487022921442985
1768216474128627000;6.208626953125;-0.278564453125;-0.012542724609375;0.937652587890625;0.0252635441720485;-0.0292830541729927;-0.067959077656269
1768216474138627000;6.218626953125;-0.29193115234375;-0.0113677978515625;0.9414825439453124;0.0284910295158624;-0.0384738892316818;-0.0749155208468437
1768216474148628000;6.2286279296875;-0.308319091796875;-0.0093536376953125;0.9464111328125;0.0346629060804843;-0.0350852832198143;-0.0694887936115264
1768216474158628000;6.238628173828125;-0.32281494140625;-0.00604248046875;0.953277587890625;0.0380331352353096;-0.0345385372638702;-0.0559388995170593
1768216474168629000;6.24862890625;-0.325714111328125;-0.0057830810546875;0.961029052734375;0.039852075278759;-0.0287389699369668;-0.0501348078250885
1768216474178630100;6.258630126953125;-0.32403564453125;-0.0091552734375;0.9578399658203124;0.0392965376377105;-0.0125096663832664;-0.0533617585897445
1768216474188630000;6.268630126953125;-0.318878173828125;-0.013397216796875;0.9536895751953124;0.0414595603942871;0.011012171395123;-0.0545886754989624
1768216474198631200;6.278631103515625;-0.3108978271484375;-0.014923095703125;0.95220947265625;0.0462564453482627;0.0313805602490901;-0.0653486475348472
1768216474208631000;6.288631103515625;-0.30755615234375;-0.0164794921875;0.9506988525390624;0.0567205362021923;0.0471701733767986;-0.0697995871305465
1768216474218632000;6.2986318359375;-0.3061676025390625;-0.0198974609375;0.9473724365234376;0.0559423603117466;0.0607238002121448;-0.0720025524497032
1768216474228632000;6.308632080078125;-0.3115997314453125;-0.02496337890625;0.94586181640625;0.0442745201289653;0.0721319839358329;-0.0694991797208786
1768216474238633000;6.318633056640625;-0.316802978515625;-0.0262298583984375;0.9509124755859376;0.0340423882007598;0.0766753330826759;-0.0657052472233772
1768216474248634000;6.328634033203125;-0.3233184814453125;-0.02215576171875;0.9567413330078124;0.0265458561480045;0.0721706002950668;-0.0596404261887073
1768216474258634000;6.338634033203125;-0.3265838623046875;-0.01715087890625;0.9543914794921876;0.0223830696195364;0.0636751130223274;-0.059577576816082
1768216474268635100;6.34863525390625;-0.325958251953125;-0.01519775390625;0.9459381103515624;0.0167041458189487;0.0447040870785713;-0.0603656060993671
1768216474278635000;6.358635009765625;-0.325531005859375;-0.0124664306640625;0.9406890869140624;0.0084941526874899;0.0260409209877252;-0.0583349466323852
1768216474288636000;6.368635986328125;-0.327056884765625;-0.0126190185546875;0.9375152587890624;-0.0013582120882347;0.0128068756312131;-0.0609022341668605
1768216474298636800;6.37863671875;-0.3344573974609375;-0.0146026611328125;0.934661865234375;-0.0065351310186088;0.0031662322580814;-0.0639030858874321
1768216474308637000;6.388636962890625;-0.33941650390625;-0.0182952880859375;0.93408203125;-0.0081537999212741;-0.0049612028524279;-0.0579751506447792
1768216474318638000;6.39863818359375;-0.345184326171875;-0.016021728515625;0.9365997314453124;-0.0074861459434032;-0.0020663465838879;-0.0465291514992713
1768216474328638000;6.408637939453125;-0.3486175537109375;-0.01849365234375;0.94207763671875;-0.010430802591145;0.0053204633295536;-0.0293206050992012
1768216474338638600;6.418638671875;-0.34332275390625;-0.0189971923828125;0.9407806396484376;-0.0119647840037941;0.0086339684203267;-0.0218576285988092
1768216474348639500;6.428639404296875;-0.3372955322265625;-0.0194854736328125;0.937469482421875;-0.0130681311711668;0.0175550244748592;-0.0167259834706783
1768216474358639400;6.438639404296875;-0.3295135498046875;-0.019927978515625;0.943267822265625;-0.0178897846490144;0.0220507066696882;-0.0169443618506193
1768216474368640500;6.448640625;-0.32080078125;-0.0219268798828125;0.948272705078125;-0.0174945704638957;0.0243500806391239;-0.0200344286859035
1768216474378640400;6.458640380859375;-0.3138275146484375;-0.02459716796875;0.9501495361328124;-0.0255895163863897;0.0275717061012983;-0.0219961125403642
1768216474388641500;6.4686416015625;-0.3083343505859375;-0.0243072509765625;0.9519500732421876;-0.0385756231844425;0.0256856549531221;-0.0150982588529586
1768216474398642400;6.478642333984375;-0.305633544921875;-0.0229949951171875;0.9553375244140624;-0.0477078668773174;0.0262515768408775;-0.0125072700902819
1768216474408642600;6.488642578125;-0.3019256591796875;-0.026031494140625;0.9578094482421876;-0.0549884177744388;0.0248456951230764;-0.0177331902086734
1768216474418643500;6.4986435546875;-0.29803466796875;-0.02789306640625;0.9607391357421876;-0.0609035640954971;0.022120214998722;-0.0218011699616909
1768216474428643600;6.5086435546875;-0.30010986328125;-0.0287628173828125;0.9615631103515624;-0.0632615238428115;0.0179201439023017;-0.0203702524304389
1768216474438644500;6.51864453125;-0.3032989501953125;-0.0287933349609375;0.9615631103515624;-0.0591253712773323;0.0160916186869144;-0.017590444535017
1768216474448645600;6.528645751953125;-0.307586669921875;-0.032806396484375;0.9571075439453124;-0.0522501543164253;0.0121211111545562;-0.0108598377555608
1768216474458645500;6.5386455078125;-0.3101348876953125;-0.028961181640625;0.953369140625;-0.0441051423549652;0.0092148035764694;0.0014796522445976
1768216474468646400;6.548646484375;-0.313629150390625;-0.0291748046875;0.95654296875;-0.0357329621911048;0.0135781271383166;0.0092584798112511
1768216474478646500;6.558646484375;-0.3118743896484375;-0.031097412109375;0.959136962890625;-0.028110196813941;0.0232715010643005;0.0167693924158811
1768216474488647400;6.5686474609375;-0.3087005615234375;-0.028533935546875;0.9588165283203124;-0.0228006541728973;0.0323901623487472;0.0276374872773885
1768216474498647600;6.5786474609375;-0.3046875;-0.029998779296875;0.954559326171875;-0.0273738335818052;0.0362980850040912;0.0323851034045219
1768216474508648700;6.588648681640625;-0.30108642578125;-0.0284271240234375;0.9522552490234376;-0.0342828705906868;0.040192425251007;0.0357113927602767
1768216474518649600;6.598649658203125;-0.296417236328125;-0.030731201171875;0.950714111328125;-0.0402174592018127;0.0413959100842475;0.0377841293811798
1768216474528649500;6.6086494140625;-0.2923736572265625;-0.0343170166015625;0.955230712890625;-0.0358549356460571;0.0416339971125125;0.0328197330236434
1768216474538650600;6.618650634765625;-0.2869720458984375;-0.041046142578125;0.9609222412109376;-0.0306489896029233;0.044795699417591;0.031082285568118
1768216474548650500;6.628650390625;-0.2869110107421875;-0.0429534912109375;0.96466064453125;-0.0229591112583875;0.0504202954471111;0.0295158140361309
1768216474558651400;6.6386513671875;-0.2939910888671875;-0.04559326171875;0.96478271484375;-0.0179387871176004;0.0605813227593898;0.0303645636886358
1768216474568652500;6.648652587890625;-0.2972869873046875;-0.046051025390625;0.960968017578125;-0.0160071961581707;0.066665843129158;0.0301254112273454
1768216474578652700;6.658652587890625;-0.29864501953125;-0.0410919189453125;0.95587158203125;-0.0110795488581061;0.065139852464199;0.0303464531898498
1768216474588653600;6.668653564453125;-0.30035400390625;-0.0388641357421875;0.9519500732421876;-0.0100837927311658;0.0585671737790107;0.0341116301715374
1768216474598653400;6.6786533203125;-0.2977294921875;-0.03521728515625;0.9563751220703124;-0.0081950789317488;0.0527367144823074;0.0381535105407238
1768216474608654600;6.688654541015625;-0.2975311279296875;-0.0329437255859375;0.961395263671875;-0.0119916815310716;0.0434156507253646;0.0444167330861091
1768216474618655500;6.698655517578125;-0.2953338623046875;-0.0272674560546875;0.963531494140625;-0.0126260463148355;0.0385199598968029;0.042428683489561
1768216474628655400;6.7086552734375;-0.286346435546875;-0.022735595703125;0.9673919677734376;-0.0095010930672287;0.0361830368638038;0.0362504161894321
1768216474638656500;6.718656494140625;-0.2844085693359375;-0.0271148681640625;0.9698638916015624;-0.0059116850607097;0.0421360023319721;0.0250243935734033
1768216474648656600;6.72865673828125;-0.289154052734375;-0.028228759765625;0.9670562744140624;-0.0063673518598079;0.0461560450494289;0.0202576015144586
1768216474658657500;6.738657470703125;-0.294342041015625;-0.0267791748046875;0.9587860107421876;-0.0091881724074482;0.0555881597101688;0.0183904580771923
1768216474668658400;6.748658447265625;-0.285888671875;-0.028045654296875;0.960296630859375;-0.0078597869724035;0.0514594614505767;0.0121690481901168
1768216474678658600;6.758658447265625;-0.2842254638671875;-0.0250244140625;0.9599456787109376;-0.0054150056093931;0.0425780862569808;0.0106736831367015
1768216474688659500;6.768659423828125;-0.2884521484375;-0.0235595703125;0.9563751220703124;-0.0022082931827753;0.0366714634001255;0.0083295684307813
1768216474698659300;6.778659423828125;-0.2890777587890625;-0.02105712890625;0.957244873046875;0.0004540689697023;0.026927487924695;0.0092507563531398
1768216474708660500;6.788660400390625;-0.2902984619140625;-0.021453857421875;0.9590911865234376;-0.0007142598042264;0.0174064207822084;0.0121306991204619
1768216474718661600;6.79866162109375;-0.2916107177734375;-0.0202178955078125;0.9560699462890624;-0.0002615224220789;0.0122721120715141;0.0144971832633018
1768216474728661500;6.80866162109375;-0.289886474609375;-0.0196685791015625;0.9543609619140624;6.49811336188e-05;0.0092915026471018;0.0180205460637807
1768216474738662400;6.818662353515625;-0.2885894775390625;-0.01788330078125;0.9579010009765624;-0.0010178601369261;0.0026250779628753;0.0187361370772123
1768216474748662500;6.82866259765625;-0.286407470703125;-0.016815185546875;0.9610748291015624;-0.0042573292739689;-0.0027830032631754;0.0126713206991553
1768216474758663400;6.838663330078125;-0.2837371826171875;-0.02099609375;0.960784912109375;-0.0063223442994058;-0.0086225168779492;0.0052802492864429
1768216474768664600;6.84866455078125;-0.282989501953125;-0.0215911865234375;0.9601593017578124;-0.0129245873540639;-0.0147885335609316;0.0047039412893354
1768216474778664700;6.858664794921875;-0.282196044921875;-0.02130126953125;0.95989990234375;-0.0115219000726938;-0.0153608471155166;0.0058453720994293
1768216474788665600;6.86866552734375;-0.2855224609375;-0.0244140625;0.959869384765625;-0.0132441660389304;-0.0160253047943115;0.0065383268520236
1768216474798665500;6.87866552734375;-0.28790283203125;-0.0267486572265625;0.9573516845703124;-0.0148886684328317;-0.0135253965854644;0.0006410228670574
1768216474808666400;6.888666259765625;-0.2871551513671875;-0.0284423828125;0.956512451171875;-0.0120116556063294;-0.0121128559112548;-0.0027031085919588
1768216474818666500;6.89866650390625;-0.2855377197265625;-0.030303955078125;0.963134765625;-0.0082773705944418;-0.0012634035665541;-0.011299792677164
1768216474828667400;6.90866748046875;-0.2896270751953125;-0.0289306640625;0.961822509765625;-0.0050959587097167;0.0038810246624052;-0.0117658460512757
1768216474838668500;6.91866845703125;-0.291778564453125;-0.0306854248046875;0.95916748046875;-0.0045361621305346;-0.0037073865532875;-0.0083604613319039
1768216474848668700;6.928668701171875;-0.296600341796875;-0.0335845947265625;0.957427978515625;-0.0027092336677014;-0.0066978503018617;-0.0022895196452736
1768216474858669600;6.938669677734375;-0.298370361328125;-0.032745361328125;0.956024169921875;0.003622697899118;-0.0081183798611164;-0.0003310309257358
1768216474868669400;6.94866943359375;-0.3006134033203125;-0.0316314697265625;0.956573486328125;0.0068632322363555;-0.0005012069013901;-0.0023166837636381
1768216474878670300;6.95867041015625;-0.299652099609375;-0.03070068359375;0.9559173583984376;0.0060528325848281;0.0139397839084267;-0.0061622885987162
1768216474888671700;6.968671630859375;-0.2942962646484375;-0.0258941650390625;0.956390380859375;0.0075111794285476;0.0157193075865507;-0.0126766469329595
1768216474898671600;6.978671630859375;-0.2943267822265625;-0.02154541015625;0.957916259765625;0.005364938173443;0.0175648797303438;-0.0141251403838396
1768216474908672500;6.988672607421875;-0.2945098876953125;-0.0198974609375;0.9633026123046876;0.0128279142081737;0.0246315766125917;-0.0181776713579893
1768216474918672600;6.998672607421875;-0.2953033447265625;-0.0245819091796875;0.9659423828125;0.0242912247776985;0.0314966738224029;-0.0180967114865779
1768216474928673500;7.008673583984375;-0.2947998046875;-0.02423095703125;0.9629058837890624;0.0383314080536365;0.0344059094786644;-0.0181853957474231
1768216474938674400;7.01867431640625;-0.2927093505859375;-0.0281982421875;0.9622344970703124;0.0452721416950225;0.0246305111795663;-0.0174743309617042
1768216474948674600;7.028674560546875;-0.2849884033203125;-0.0316162109375;0.9617767333984376;0.0498477183282375;0.0064448500052094;-0.0171760581433773
1768216474958675700;7.03867578125;-0.280548095703125;-0.03448486328125;0.9587554931640624;0.0460537783801555;-0.0040546627715229;-0.0205018129199743
1768216474968675600;7.048675537109375;-0.2797393798828125;-0.03497314453125;0.95648193359375;0.0446657389402389;-0.0144681548699736;-0.0252451691776514
1768216474978676500;7.058676513671875;-0.2826995849609375;-0.0325164794921875;0.9573822021484376;0.0439911596477031;-0.0186628997325897;-0.0295781325548887
1768216474988677400;7.068677490234375;-0.2884674072265625;-0.030914306640625;0.95465087890625;0.0411751344799995;-0.0161992106586694;-0.031764056533575
1768216474998677500;7.078677490234375;-0.293121337890625;-0.0254058837890625;0.9551849365234376;0.0395530015230178;-0.0025329324416816;-0.0298998411744833
1768216475008678400;7.088678466796875;-0.2948760986328125;-0.02557373046875;0.9532318115234376;0.0371532291173934;0.0110856741666793;-0.0305043794214725
1768216475018678500;7.098678466796875;-0.2969970703125;-0.023834228515625;0.9517364501953124;0.0371955707669258;0.0297309979796409;-0.0296087581664323
1768216475028679700;7.1086796875;-0.2963714599609375;-0.025543212890625;0.9503631591796876;0.0362948924303054;0.0424649007618427;-0.030966704711318
1768216475038680600;7.1186806640625;-0.29644775390625;-0.0281982421875;0.9512939453125;0.0371889136731624;0.0509617179632186;-0.0299315340816974
1768216475048680400;7.128680419921875;-0.2992706298828125;-0.02935791015625;0.950927734375;0.0368640087544918;0.0536898598074913;-0.0274590551853179
1768216475058681600;7.138681640625;-0.2989959716796875;-0.030120849609375;0.951873779296875;0.0372110195457935;0.0560121349990367;-0.021735655143857
1768216475068681500;7.148681396484375;-0.29656982421875;-0.033050537109375;0.9595489501953124;0.0374480411410331;0.0485845804214477;-0.0177267994731664
1768216475078682400;7.158682373046875;-0.2927703857421875;-0.0324249267578125;0.96282958984375;0.0386515222489833;0.0453200787305831;-0.0192155055701732
1768216475088683500;7.16868359375;-0.291900634765625;-0.0361328125;0.9596099853515624;0.0368064828217029;0.0441371016204357;-0.0188000537455081
1768216475098683600;7.17868359375;-0.29144287109375;-0.0366363525390625;0.95953369140625;0.0379215478897094;0.0432697087526321;-0.0204248484224081
1768216475108684500;7.1886845703125;-0.292510986328125;-0.0348663330078125;0.9584197998046876;0.0391426086425781;0.0454620234668254;-0.0191015228629112
1768216475118684400;7.198684326171875;-0.294342041015625;-0.03558349609375;0.952911376953125;0.0352852866053581;0.0490812584757804;-0.0196325574070215
1768216475128685600;7.208685546875;-0.297576904296875;-0.0368499755859375;0.952789306640625;0.0349294878542423;0.0561687313020229;-0.0154039897024631
1768216475138685400;7.218685546875;-0.2982940673828125;-0.0372772216796875;0.955413818359375;0.0363438911736011;0.0674498826265335;-0.0107501158490777
1768216475148686300;7.228686279296875;-0.297393798828125;-0.0377349853515625;0.9560699462890624;0.0358077995479106;0.0726640820503234;-0.0080986730754375
1768216475158687500;7.2386875;-0.297210693359375;-0.0368194580078125;0.9594573974609376;0.031719047576189;0.0739336088299751;-0.0081308968365192
1768216475168687600;7.2486875;-0.293212890625;-0.0361328125;0.960357666015625;0.0307600423693656;0.0712456852197647;-0.007325823418796
1768216475178688500;7.2586884765625;-0.2907867431640625;-0.0350189208984375;0.956634521484375;0.0301496461033821;0.0702797546982765;-0.0046810382045805
1768216475188688600;7.268688720703125;-0.2891387939453125;-0.0356903076171875;0.95538330078125;0.0305107720196247;0.0724928453564643;-0.0049992860294878
1768216475198689500;7.278689453125;-0.28839111328125;-0.0357666015625;0.9564361572265624;0.0312924087047576;0.0814344063401222;-0.0040791640058159
1768216475208690400;7.2886904296875;-0.2878570556640625;-0.035064697265625;0.9567108154296876;0.030461236834526;0.0863545984029769;-0.0074019897729158
1768216475218690600;7.298690673828125;-0.2861175537109375;-0.03546142578125;0.9561004638671876;0.0263205543160438;0.0885277315974235;-0.0133152725175023
1768216475228691500;7.30869140625;-0.2846221923828125;-0.0383148193359375;0.9540863037109376;0.0208448283374309;0.0917152687907219;-0.0203806385397911
1768216475238691600;7.318691650390625;-0.28594970703125;-0.0396728515625;0.953033447265625;0.0175228007137775;0.0930631011724472;-0.028970930725336
1768216475248692500;7.3286923828125;-0.2855987548828125;-0.041046142578125;0.955474853515625;0.0152692338451743;0.0971105694770813;-0.0353412143886089
1768216475258693400;7.338693359375;-0.2866668701171875;-0.04052734375;0.9551239013671876;0.0128311095759272;0.0975787565112114;-0.0406925678253173
1768216475268693500;7.348693603515625;-0.2878265380859375;-0.038482666015625;0.957183837890625;0.0150777529925107;0.0989817082881927;-0.0437757112085819
1768216475278694700;7.358694580078125;-0.285858154296875;-0.03814697265625;0.9599456787109376;0.0148884020745754;0.101884551346302;-0.0449208691716194
1768216475288694500;7.368694580078125;-0.28399658203125;-0.04010009765625;0.9602203369140624;0.0135485660284757;0.1061890199780464;-0.0477656573057174
1768216475298695700;7.37869580078125;-0.28240966796875;-0.0405426025390625;0.958038330078125;0.0114358803257346;0.1110511571168899;-0.0501984544098377
1768216475308696600;7.388696533203125;-0.2779388427734375;-0.0435028076171875;0.960296630859375;0.0110830115154385;0.1122514382004737;-0.0499076396226882
1768216475318696400;7.398696533203125;-0.2780303955078125;-0.0419921875;0.964385986328125;0.0110728908330202;0.1129928678274154;-0.0476162545382976
1768216475328697300;7.408697265625;-0.273773193359375;-0.0401763916015625;0.9651031494140624;0.011447331868112;0.1135939359664917;-0.0488218665122985
1768216475338698800;7.41869873046875;-0.2694091796875;-0.04132080078125;0.965301513671875;0.0107509149238467;0.1081640198826789;-0.0425653047859668
1768216475348699600;7.42869970703125;-0.2637481689453125;-0.0403900146484375;0.97027587890625;0.0121730426326394;0.1009750813245773;-0.0328990928828716
1768216475358700800;7.43870068359375;-0.262664794921875;-0.0417938232421875;0.9655303955078124;0.0091745899990201;0.1049692928791046;-0.0274974051862955
1768216475368700700;7.44870068359375;-0.258056640625;-0.0423736572265625;0.9643402099609376;0.006844057701528;0.102222241461277;-0.0271605141460895
1768216475378701600;7.45870166015625;-0.25531005859375;-0.043365478515625;0.9666595458984376;0.0066073024645447;0.0997670739889144;-0.0217756032943725
1768216475388701700;7.46870166015625;-0.2581329345703125;-0.03973388671875;0.9660797119140624;0.0061734737828373;0.0940631181001663;-0.0143102295696735
1768216475398702600;7.47870263671875;-0.2583160400390625;-0.03839111328125;0.9662017822265624;0.0047209854237735;0.084134317934513;-0.0109589081257581
1768216475408703500;7.488703369140625;-0.2630462646484375;-0.039215087890625;0.9627532958984376;0.0004380900063551;0.0742928758263588;-0.0086185215041041
1768216475418703600;7.49870361328125;-0.264739990234375;-0.038330078125;0.96514892578125;-0.0008980178972706;0.0618700236082077;-0.0032724924385547
1768216475428704800;7.508704833984375;-0.266143798828125;-0.03680419921875;0.9659576416015624;-0.0078525971621274;0.0496335998177528;-0.0026578346733003
1768216475438704600;7.51870458984375;-0.25970458984375;-0.0377349853515625;0.9708404541015624;-0.0096550239250063;0.040882185101509;-0.0052661346271634
1768216475448705800;7.528705810546875;-0.2584075927734375;-0.039337158203125;0.9711151123046876;-0.0097913779318332;0.0352711714804172;-0.0100470418110489
1768216475458706700;7.538706787109375;-0.2541046142578125;-0.040985107421875;0.9721832275390624;-0.0064413878135383;0.0383074432611465;-0.0122007401660084
1768216475468706600;7.54870654296875;-0.25164794921875;-0.04071044921875;0.9731903076171876;-0.0069516492076218;0.0442907661199569;-0.0164175890386104
1768216475478707500;7.55870751953125;-0.25018310546875;-0.040191650390625;0.975189208984375;-0.0054706656374037;0.0465131737291812;-0.0191228277981281
1768216475488707600;7.56870751953125;-0.255157470703125;-0.0380706787109375;0.9709625244140624;-0.003810983384028;0.0468671061098575;-0.0118308262899518
1768216475498708700;7.578708740234375;-0.2583160400390625;-0.0355682373046875;0.96429443359375;-0.0002484729338902;0.0419442541897296;-0.0055154063738882
1768216475508709600;7.588709716796875;-0.2536163330078125;-0.0348052978515625;0.9634246826171876;0.0025728798937052;0.0327496901154518;-0.0011483550770208
1768216475518709800;7.598709716796875;-0.2518768310546875;-0.0370941162109375;0.963897705078125;0.0018146779621019;0.023592410609126;-0.001341700553894
1768216475528710700;7.608710693359375;-0.2512969970703125;-0.039154052734375;0.9671478271484376;2.37021340581e-05;0.0177126843482255;-0.0037153759039938
1768216475538710500;7.61871044921875;-0.2544097900390625;-0.0395660400390625;0.9677734375;-0.0033617082517594;0.0197191089391708;-0.0040770331397652
1768216475548711400;7.62871142578125;-0.2585601806640625;-0.03985595703125;0.9684600830078124;-0.008020375855267;0.0217375196516513;-0.0038373488932847
1768216475558712800;7.638712890625;-0.259552001953125;-0.0395660400390625;0.9663848876953124;-0.0111698303371667;0.0260766074061393;-0.0006580671179108
1768216475568712700;7.648712646484375;-0.263031005859375;-0.0333404541015625;0.9667510986328124;-0.0117613179609179;0.0252480991184711;0.0030629015527665
1768216475578713600;7.658713623046875;-0.2608795166015625;-0.030670166015625;0.966033935546875;-0.0099703427404165;0.0209204610437154;-0.0010143980616703
1768216475588713700;7.668713623046875;-0.2626190185546875;-0.0297698974609375;0.9641571044921876;-0.0058067562058568;0.0206682607531547;-0.0028290760237723
1768216475598714600;7.678714599609375;-0.262542724609375;-0.0301513671875;0.96575927734375;-0.0042810314334928;0.0189531855285167;-0.0036858150269836
1768216475608715500;7.688715576171875;-0.2590484619140625;-0.0326385498046875;0.96771240234375;-0.00650051003322;0.0185901951044797;-0.0038501319941133
1768216475618715600;7.698715576171875;-0.2571868896484375;-0.034149169921875;0.967742919921875;-0.0071444623172283;0.0203769113868474;-0.005861883983016
1768216475628716800;7.708716796875;-0.25579833984375;-0.0342559814453125;0.9671783447265624;-0.0065223476849496;0.0182386580854654;-0.0056288572959601
1768216475638716700;7.718716552734375;-0.25408935546875;-0.0347137451171875;0.9646148681640624;-0.0077766967006027;0.0080757699906826;-0.0085745798423886
1768216475648717600;7.728717529296875;-0.25714111328125;-0.0362701416015625;0.96484375;-0.0035712989047169;0.00668879551813;-0.0050331079401075
1768216475658718500;7.738718505859375;-0.2588958740234375;-0.0344696044921875;0.9639129638671876;-0.0030868700705468;0.0101082939654588;-0.0039196405559778
1768216475668718600;7.748718505859375;-0.25531005859375;-0.033721923828125;0.9673004150390624;-0.0001166464571724;0.0131485592573881;-0.0063351276330649
1768216475678719700;7.7587197265625;-0.2579803466796875;-0.032958984375;0.96942138671875;-0.0018024274613708;0.0189910009503364;-0.0080794980749487
1768216475688720000;7.768719970703125;-0.258758544921875;-0.033905029296875;0.96820068359375;-0.0013275857781991;0.0215420443564653;-0.0076475334353744
1768216475698720800;7.778720703125;-0.2609710693359375;-0.034423828125;0.967071533203125;-0.0045116613619029;0.0202293712645769;-0.0056496299803256
1768216475708721700;7.7887216796875;-0.2608184814453125;-0.0363006591796875;0.9683685302734376;-0.0061628208495676;0.0187385343015193;0.000582699663937
1768216475718721500;7.798721435546875;-0.2586822509765625;-0.037750244140625;0.968292236328125;-0.0133331157267093;0.0174327865242958;0.0028378644492477
1768216475728722700;7.80872265625;-0.2597198486328125;-0.0389862060546875;0.968780517578125;-0.0159211754798889;0.0145925246179103;0.0036594495177268
1768216475738722600;7.81872265625;-0.2630767822265625;-0.03802490234375;0.9690093994140624;-0.0159589927643537;0.019515911117196;0.0016152071766555
1768216475748723700;7.8287236328125;-0.264617919921875;-0.038421630859375;0.9650421142578124;-0.0115400096401572;0.0265613030642271;4.87358483951e-05
1768216475758724600;7.838724609375;-0.2626800537109375;-0.0357666015625;0.96673583984375;-0.0038661109283566;0.0310042556375265;-0.0040056607685983
1768216475768724700;7.848724853515625;-0.2587127685546875;-0.0375823974609375;0.9692535400390624;-0.0010085391113534;0.0372328571975231;-0.0071939970366656
1768216475778725600;7.8587255859375;-0.253509521484375;-0.039825439453125;0.96875;0.0072299498133361;0.0382861346006393;-0.0079671125859022
1768216475788725500;7.8687255859375;-0.2442626953125;-0.0425262451171875;0.9719696044921876;0.0064677530899643;0.0305805467069149;-0.007047523278743
1768216475798726700;7.8787265625;-0.2430877685546875;-0.0417633056640625;0.9691314697265624;0.0074619110673666;0.0206480212509632;-0.0080968085676431
1768216475808727800;7.888727783203125;-0.2474212646484375;-0.0411529541015625;0.9686279296875;0.0056690708734095;0.0131187317892909;-0.0062040998600423
1768216475818727700;7.898727783203125;-0.2510986328125;-0.0402069091796875;0.9684295654296876;0.0088206557556986;0.0116595858708024;-0.0050951596349477
1768216475828728600;7.908728515625;-0.2570953369140625;-0.04052734375;0.9666290283203124;0.0079303607344627;0.0122761074453592;-0.0097458381205797
1768216475838728700;7.918728759765625;-0.259185791015625;-0.040435791015625;0.9652252197265624;0.0073753581382334;0.0154394097626209;-0.0115424059331417
1768216475848729600;7.9287294921875;-0.2619781494140625;-0.040283203125;0.96600341796875;0.0061052967794239;0.0210757236927747;-0.011716310866177
1768216475858730500;7.93873046875;-0.2616424560546875;-0.039581298828125;0.96795654296875;0.0064294035546481;0.0282809063792228;-0.0107280118390917
1768216475868730600;7.948730712890625;-0.2583465576171875;-0.0384521484375;0.96630859375;0.0085325017571449;0.0320125259459018;-0.0099008334800601
1768216475878731800;7.958731689453125;-0.2552490234375;-0.0401458740234375;0.966339111328125;0.0106869991868734;0.0318854935467243;-0.0136412438005208
1768216475888731600;7.968731689453125;-0.2523040771484375;-0.041290283203125;0.966705322265625;0.0089444927871227;0.0304164960980415;-0.0169875063002109
1768216475898732500;7.978732666015625;-0.250244140625;-0.0424957275390625;0.9663848876953124;0.0051966262981295;0.0240832325071096;-0.0178921818733215
1768216475908733700;7.988733642578125;-0.2489776611328125;-0.038848876953125;0.9658355712890624;0.0040221721865236;0.0232198350131511;-0.0178354568779468
1768216475918733600;7.998733642578125;-0.251251220703125;-0.037841796875;0.9666900634765624;0.0043500075116753;0.0213545579463243;-0.0149922650307416
