timestamp;acc_z;acc_y;acc_x;gyro_z;gyro_y;gyro_x
1767708902719721000;-0.0098419189453125;0.0099334716796875;0.996185302734375;0.008193481713533401;0.022458171471953392;-0.007096791639924049
1767708902729720800;-0.0080413818359375;0.0092010498046875;0.9982147216796875;0.007735684048384428;0.020013654604554176;0.0007701861904934049
1767708902739720700;-0.0090179443359375;0.008270263671875;0.9996795654296875;0.007766043767333031;0.011236408725380898;-0.0032498554792255163
1767708902749721900;-0.0069732666015625;0.0048675537109375;0.9998321533203125;0.012693158350884914;0.009486446157097816;-0.011189005337655544
1767708902759721700;-0.00433349609375;0.0068359375;1.004302978515625;0.016268718987703323;0.005369198974221945;-0.020314592868089676
1767708902769721900;-0.007720947265625;0.005950927734375;1.0072784423828125;0.015983493998646736;0.0024027039762586355;-0.016988305374979973
1767708902779721700;-0.0139007568359375;0.006378173828125;1.0047607421875;0.018142251297831535;0.00010519486386328936;-0.010779676958918571
1767708902789722600;-0.013427734375;0.009735107421875;1.00299072265625;0.01853480190038681;0.002843989757820964;-0.0032256206031888723
1767708902799722800;-0.0093994140625;0.0112152099609375;0.9995574951171875;0.021090904250741005;0.007030212786048651;-0.003913515247404575
1767708902809722600;-0.0064544677734375;0.0088653564453125;1.0016021728515625;0.021258417516946793;0.017121994867920876;0.0017507621087133884
1767708902819722800;-0.0083770751953125;0.00909423828125;1.0015411376953125;0.017528926953673363;0.018504176288843155;0.0034874093253165483
1767708902829722600;-0.0021820068359375;0.0085601806640625;1.001556396484375;0.0137227363884449;0.014515292830765247;-0.004306331276893616
1767708902839723800;-0.00115966796875;0.0094146728515625;1.000030517578125;0.013561614789068699;0.011862251907587051;-0.010100836865603924
1767708902849724000;-0.0074615478515625;0.007781982421875;0.9970245361328125;0.009387110359966755;0.020418722182512283;-0.011254518292844296
1767708902859723800;-0.0131378173828125;0.0084991455078125;0.9947509765625;0.008975119329988956;0.023749537765979767;-0.010967696085572243
1767708902869724000;-0.0074462890625;0.0082244873046875;0.9999237060546875;0.008347677998244762;0.018568623811006546;-0.013003416359424591
1767708902879724800;-0.0027923583984375;0.00567626953125;1.0006103515625;0.008315187878906727;0.01332778949290514;-0.014586399309337139
1767708902889724700;-0.0058441162109375;0.007904052734375;1.002105712890625;0.010010023601353168;0.01004917174577713;-0.011885154992341995
1767708902899724800;-0.0060577392578125;0.0083160400390625;1.0019378662109375;0.01077142171561718;0.009792443364858627;-0.008610532619059086
1767708902909724700;-0.007080078125;0.01092529296875;1.000701904296875;0.011994345113635063;0.01296426821500063;-0.007224090863019228
1767708902919724800;-0.008941650390625;0.0120391845703125;0.9997100830078125;0.01022547297179699;0.01643143780529499;-0.005360144190490246
1767708902929725700;-0.00897216796875;0.0099639892578125;0.999786376953125;0.009063003584742546;0.018622154369950294;-0.006929545197635889
1767708902939725600;-0.0082550048828125;0.0114288330078125;0.999969482421875;0.007982558570802212;0.024748222902417183;-0.004282363224774599
1767708902949725700;-0.01220703125;0.0106353759765625;0.99945068359375;0.00612420542165637;0.030117422342300415;0.0013851100811734796
1767708902959725600;-0.011138916015625;0.007781982421875;0.9959564208984375;0.0037148434203118086;0.03575107455253601;0.007685350254178047
1767708902969726000;-0.0101776123046875;0.0097808837890625;0.9953155517578125;-0.004048271104693413;0.03527223691344261;0.017076721414923668
1767708902979726800;-0.0076751708984375;0.0105438232421875;0.99072265625;-0.011114968918263912;0.043954409658908844;0.019784091040492058
1767708902989726700;-0.00152587890625;0.009429931640625;0.9904937744140625;-0.00920228660106659;0.0547785609960556;0.012809005565941334
1767708902999726800;0.0003509521484375;0.0067596435546875;0.9983673095703125;-0.006704241503030062;0.058765310794115067;0.007841943763196468
1767708903009726700;-0.0009002685546875;0.0055084228515625;1.00604248046875;-0.003915912006050348;0.06102047860622406;0.00364719913341105
1767708903019727600;-0.0054473876953125;0.00555419921875;1.0096435546875;-0.0014112089993432164;0.06054243817925453;0.010497648268938065
1767708903029727700;-0.0093231201171875;0.006561279296875;1.01055908203125;-0.00407437002286315;0.05499933660030365;0.027284618467092514
1767708903039727600;-0.00628662109375;0.008758544921875;1.0093231201171875;-0.00737189594656229;0.053708501160144806;0.02532240003347397
1767708903049727700;0.00518798828125;0.0086669921875;1.00994873046875;-0.004185956437140703;0.03982650861144066;0.008647018112242222
1767708903059727600;0.0044403076171875;0.0093841552734375;1.01031494140625;-0.002752376953139901;0.029988525435328484;0.008892827667295933
1767708903069728500;-0.009765625;0.0131988525390625;1.0066070556640625;-0.0032027175184339285;0.03251133859157562;0.019364643841981888
1767708903079729000;-0.01251220703125;0.01519775390625;1.0034027099609375;-0.0034200313966721296;0.03753379359841347;0.036672525107860565
1767708903089728800;-0.01123046875;0.01702880859375;0.99749755859375;-0.00506799528375268;0.04958060383796692;0.04481274634599686
1767708903099729000;-0.0075836181640625;0.0155181884765625;0.992706298828125;-0.004491953644901514;0.05824173614382744;0.04511101916432381
1767708903109729800;-0.0012359619140625;0.0142669677734375;0.9939422607421875;-0.002079928759485483;0.061229802668094635;0.0356791689991951
1767708903119729700;0.005615234375;0.01092529296875;0.9966888427734375;-0.0019947076216340065;0.06443225592374802;0.024461401626467705
1767708903129729800;0.0072784423828125;0.00653076171875;0.9975128173828125;-0.003553189570084214;0.07286861538887024;0.015677763149142265
1767708903139729700;0.0049896240234375;0.00543212890625;1.0001678466796875;-0.006798517424613237;0.06729541718959808;0.012494486756622791
1767708903149729800;0.0052947998046875;0.0032806396484375;1.0028533935546875;-0.006104231346398592;0.05013613775372505;0.0178743377327919
1767708903159730700;0.004791259765625;0.008758544921875;1.0055694580078125;-0.00105354655534029;0.040660079568624496;0.03209375590085983
1767708903169730600;-0.001220703125;0.016448974609375;1.0109405517578125;0.011806059628725052;0.03961292281746864;0.04343855381011963
1767708903179730700;-0.003814697265625;0.01519775390625;1.011444091796875;0.028870264068245888;0.04692729562520981;0.05372900888323784
1767708903189730600;-0.007232666015625;0.0179901123046875;1.0096435546875;0.031071100383996964;0.04865781590342522;0.05374312400817871
1767708903199731700;-0.00103759765625;-0.0030517578125;1.0046539306640625;0.02617621049284935;0.042560774832963943;0.05396096780896187
1767708903209731800;0.009674072265625;-0.0011444091796875;0.9993133544921875;0.022536734119057655;0.043470777571201324;0.04952014982700348
1767708903219731700;0.0139007568359375;0.009857177734375;0.995819091796875;0.022358302026987076;0.04840455204248428;0.03743205964565277
1767708903229731800;0.0124969482421875;0.0094146728515625;0.99505615234375;0.025047030299901962;0.06144418567419052;0.02514529973268509
1767708903239731700;0.0032958984375;0.0070953369140625;0.9971160888671875;0.027354925870895386;0.08086129277944565;0.02726544253528118
1767708903249732600;-0.0052642822265625;0.0035247802734375;0.997650146484375;0.026161829009652138;0.10477913916110992;0.04820001870393753
1767708903259732700;-0.0106048583984375;0.006622314453125;1.0025482177734375;0.03320722281932831;0.12152297049760818;0.06873725354671478
1767708903269732600;0.0002899169921875;0.008453369140625;1.00494384765625;0.03880571946501732;0.09780432283878326;0.06423171609640121
1767708903279732700;0.024139404296875;0.0058135986328125;1.0023193359375;0.031149929389357567;0.0525958314538002;0.037394244223833084
1767708903289732600;0.038055419921875;0.0023193359375;0.999969482421875;0.016208797693252563;-0.006028864067047834;0.0025574336759746075
1767708903299733800;0.0415191650390625;0.0007171630859375;0.99737548828125;0.01152802538126707;-0.027588218450546265;-0.02268959954380989
1767708903309733600;0.02105712890625;0.0095672607421875;0.998809814453125;0.004340420011430979;-0.012799418531358242;-0.013770140707492828
1767708903319733500;0.001373291015625;0.0111236572265625;0.99786376953125;0.00723607512190938;-0.013354421593248844;0.011289140209555626
1767708903329734000;-0.00146484375;0.0071258544921875;1.00408935546875;-0.0010090717114508152;-0.004978513345122337;0.039265379309654236
1767708903339734800;-0.0057373046875;0.0069732666015625;1.0007781982421875;-0.0020841897930949926;0.0038400120101869106;0.063911072909832
1767708903349734700;-0.001373291015625;0.0050201416015625;1.001861572265625;-0.0006607302348129451;0.00817936658859253;0.07085872441530228
1767708903359734800;0.008056640625;0.0055999755859375;1.005401611328125;0.0013590110465884209;-0.003579022129997611;0.06482453644275665
1767708903369734700;0.0213165283203125;0.0072479248046875;1.0111541748046875;0.008348743431270123;-0.014940333552658558;0.05047063156962395
1767708903379734800;0.0268402099609375;0.005828857421875;1.0121917724609375;0.005449626594781876;-0.013760553672909737;0.03184288367629051
1767708903389736000;0.0259857177734375;0.0026397705078125;1.0046844482421875;0.004736165516078472;-0.019116437062621117;0.00549303600564599
1767708903399735800;0.03192138671875;0.00054931640625;1.002777099609375;-0.0009643306257203221;-0.022555110976099968;-0.008772718720138073
1767708903409736000;0.0232391357421875;-0.0031585693359375;1.0001220703125;-0.0028386632911860943;-0.025624403730034828;-0.0101375887170434
1767708903419735800;0.0171661376953125;-0.00238037109375;1.0007171630859375;-0.008215852081775665;-0.027162645012140274;-0.006922088097780943
1767708903429737000;0.0124359130859375;-0.0030517578125;0.999908447265625;-0.012927516363561153;-0.025109080597758293;-0.00948245171457529
1767708903439736800;0.0108489990234375;-0.0056304931640625;0.9953765869140625;-0.01967996172606945;-0.023419838398694992;-0.011321363970637321
1767708903449737000;0.0032806396484375;-0.0023040771484375;0.990814208984375;-0.019120164215564728;-0.0056954361498355865;-0.0023329290561378
1767708903459736800;-0.0022430419921875;0.00640869140625;0.9873199462890625;-0.016465792432427406;0.021204354241490364;0.006150037981569767
1767708903469736700;-0.0035858154296875;0.0077362060546875;0.9855194091796875;-0.013569071888923645;0.033314015716314316;0.018748387694358826
1767708903479737900;-0.002960205078125;0.007080078125;0.9869842529296875;-0.013917679898440838;0.0341036431491375;0.024688567966222763
1767708903489737700;0.0070648193359375;0.00689697265625;0.9934844970703125;-0.010247311554849148;0.03160399943590164;0.01738112047314644
1767708903499737900;0.01171875;0.0059814453125;1.0034942626953125;-0.00666269613429904;0.03506584092974663;0.006216350477188826
1767708903509738000;0.0055084228515625;0.0081939697265625;1.0103302001953125;-0.0031523837242275476;0.038176149129867554;0.0009334379574283957
1767708903519739000;0.002685546875;0.0084075927734375;1.013702392578125;-0.003913515247404575;0.03558063134551048;-0.010688863694667816
1767708903529739000;0.0081329345703125;0.0094757080078125;1.01470947265625;-0.003457848448306322;0.015115569345653057;-0.01992523856461048
1767708903539739000;0.01226806640625;0.0095367431640625;1.0119781494140625;-0.0062704128213226795;0.0005067995516583323;-0.017102021723985672
1767708903549739000;0.01007080078125;0.00830078125;1.004364013671875;-0.0031129689887166023;-0.015471368096768856;-0.01673317328095436
1767708903559739000;0.0118560791015625;0.0080718994140625;1.00445556640625;-0.0018764632986858487;-0.0249029528349638;-0.011659319512546062
1767708903569739800;0.010284423828125;0.0059051513671875;1.0058441162109375;0.00044661210267804563;-0.03749491274356842;-0.0028455876745283604
1767708903579740000;0.0050048828125;0.003662109375;1.0059051513671875;0.003847202518954873;-0.038115959614515305;0.007737015374004841
1767708903589739800;-0.0027313232421875;0.005126953125;1.0041656494140625;0.007604124024510384;-0.02906334213912487;0.010822554118931293
1767708903599740000;-0.0001373291015625;0.004150390625;1.0034637451171875;0.005679191090166569;-0.02762177400290966;0.0044195158407092094
1767708903609741000;0.0005035400390625;0.0039825439453125;0.99920654296875;0.004734035115689039;-0.03026336431503296;-0.0006093312404118478
1767708903619741000;-0.0026397705078125;0.00628662109375;0.9947967529296875;0.006127400789409876;-0.02629711851477623;-0.006271744146943092
1767708903629741000;-0.004486083984375;0.00616455078125;0.9970550537109375;0.0073111760430037975;-0.025983396917581558;-0.016259929165244102
1767708903639741000;0.0001220703125;0.0019683837890625;0.9994049072265625;0.0036338833160698414;-0.03452042490243912;-0.024276044219732285
1767708903649741000;0.0005950927734375;-0.0004730224609375;1.000213623046875;-0.0024714134633541107;-0.031383223831653595;-0.02388961985707283
1767708903659742000;-0.0029754638671875;-0.0001220703125;0.999237060546875;-0.00640756543725729;-0.03638570383191109;-0.02377430535852909
1767708903669741800;0.0001983642578125;0.00177001953125;1.0043792724609375;-0.010413758456707;-0.04561994969844818;-0.011317369528114796
1767708903679742000;-0.0058441162109375;0.003875732421875;1.007110595703125;-0.016227705404162407;-0.05113109573721886;0.002969424705952406
1767708903689741800;-0.006500244140625;0.00274658203125;1.003570556640625;-0.020373715087771416;-0.06045402213931084;0.00564030883833766
1767708903699742700;-0.00494384765625;0.004852294921875;1.00372314453125;-0.02490348555147648;-0.061951253563165665;0.003742007538676262
1767708903709742800;-0.001251220703125;0.0048828125;1.006927490234375;-0.024106135591864586;-0.060266535729169846;-0.0018293253378942609
1767708903719742700;-0.002899169921875;0.00408935546875;1.0040283203125;-0.025194834917783737;-0.06121169030666351;0.002624545246362686
1767708903729742800;-0.010498046875;0.0055999755859375;1.0020294189453125;-0.02124456875026226;-0.05192551389336586;0.007003581151366234
1767708903739742700;-0.0135040283203125;0.0087127685546875;1.0013427734375;-0.019638948142528534;-0.04758962243795395;0.01429291907697916
1767708903749743900;-0.0155181884765625;0.0086822509765625;0.9990692138671875;-0.02003762312233448;-0.0550970733165741;0.02273700386285782
1767708903759744000;-0.0153961181640625;0.007110595703125;0.9977874755859375;-0.021269602701067924;-0.05829606205224991;0.028735240921378136
1767708903769744000;-0.017486572265625;0.0074462890625;0.9979095458984375;-0.025056084617972374;-0.057854510843753815;0.032585106790065765
1767708903779744000;-0.0203094482421875;0.0096282958984375;0.9991912841796875;-0.03086337447166443;-0.05348586291074753;0.030670294538140297
1767708903789743900;-0.0216064453125;0.010223388671875;0.9957733154296875;-0.037211816757917404;-0.051001399755477905;0.0341811403632164
1767708903799744800;-0.020721435546875;0.0088043212890625;0.99847412109375;-0.03983156755566597;-0.044984519481658936;0.04765327274799347
1767708903809745000;-0.0203094482421875;0.0086517333984375;1.0058746337890625;-0.04181376099586487;-0.04247715324163437;0.07727907598018646
1767708903819744800;-0.0219573974609375;0.0082855224609375;1.0085601806640625;-0.05018700286746025;-0.026566630229353905;0.1128610372543335
1767708903829745000;-0.0179290771484375;0.0121002197265625;1.001983642578125;-0.05540333688259125;-0.01804637908935547;0.1351567506790161
1767708903839745800;0.0004730224609375;0.0122222900390625;0.9989013671875;-0.0581999234855175;-0.011118963360786438;0.13725905120372772
1767708903849745700;0.008453369140625;0.0145416259765625;0.996978759765625;-0.057909637689590454;-0.0049188584089279175;0.12225134670734406
1767708903859745800;0.0125579833984375;0.0149688720703125;0.9972381591796875;-0.06143193691968918;0.021578794345259666;0.12817713618278503
1767708903869746000;-0.0006561279296875;0.009124755859375;0.998687744140625;-0.08738470822572708;0.09167718887329102;0.21411468088626862
1767708903879746000;-0.024810791015625;0.0081329345703125;0.9993438720703125;-0.1075749322772026;0.1313827931880951;0.3307078778743744
1767708903889747000;-0.0028228759765625;0.0229034423828125;1.0068511962890625;-0.11682195961475372;0.09978864341974258;0.33436015248298645
1767708903899746800;0.0330963134765625;0.0253753662109375;1.0125885009765625;-0.10536131262779236;0.09191740304231644;0.2758563458919525
1767708903909747000;0.0279693603515625;0.0255126953125;1.0001373291015625;-0.07672886550426483;0.1007218137383461;0.2107846736907959
1767708903919746800;0.0299530029296875;0.0272216796875;0.9860687255859375;-0.04969644919037819;0.07105420529842377;0.1342286467552185
1767708903929747700;0.0347137451171875;0.0256500244140625;0.979461669921875;-0.0302583035081625;0.013361611403524876;0.06706558912992477
1767708903939747800;0.0259246826171875;0.019927978515625;0.9861602783203125;-0.02961035631597042;-0.032218921929597855;0.03592151403427124
1767708903949747700;0.007598876953125;0.0112457275390625;1.009613037109375;-0.03492283076047897;-0.042518433183431625;0.03952557221055031
1767708903959747800;-0.0020599365234375;0.006866455078125;1.024993896484375;-0.04729507863521576;-0.06006280332803726;0.041007619351148605
1767708903969747700;-0.00469970703125;0.0052642822265625;1.02545166015625;-0.05078861117362976;-0.08032573014497757;0.03900519013404846
1767708903979748900;-0.0088958740234375;0.0053558349609375;1.0214080810546875;-0.048051148653030396;-0.08793704956769943;0.038417164236307144
1767708903989749000;-0.0058135986328125;0.0058135986328125;1.0080413818359375;-0.04116048663854599;-0.10783059149980545;0.020423516631126404
1767708903999748900;0.00653076171875;0.013031005859375;0.99603271484375;-0.03458620607852936;-0.12801282107830048;-0.004945490043610334
1767708904009749000;0.0134429931640625;0.01507568359375;0.99041748046875;-0.026074742898344994;-0.13952088356018066;-0.03416622430086136
1767708904019750000;0.0159759521484375;0.014801025390625;0.9926910400390625;-0.010703776963055134;-0.1334986686706543;-0.053523145616054535
1767708904029749800;0.00628662109375;0.0201416015625;0.993927001953125;0.010636931285262108;-0.12156904488801956;-0.06685865670442581
1767708904039750000;0.004486083984375;0.0223388671875;0.9961395263671875;0.015396267175674438;-0.14328818023204803;-0.08632423728704453
1767708904049749800;0.0138397216796875;0.022064208984375;0.9981231689453125;-0.03819532319903374;-0.27995920181274414;-0.12972231209278107
1767708904059750000;0.014862060546875;0.0291900634765625;1.025543212890625;0.0028812738601118326;-0.18307368457317352;-0.02202753722667694
1767708904069750800;-0.0562896728515625;0.018463134765625;1.0142364501953125;0.013258014805614948;-0.1766757071018219;0.02749420888721943
1767708904079750700;-0.01995849609375;0.025115966796875;0.9871978759765625;0.02454608865082264;-0.18162518739700317;0.014363759197294712
1767708904089750800;-0.01031494140625;0.0216217041015625;0.9968109130859375;0.028842832893133163;-0.17004257440567017;0.026732811704277992
1767708904099750700;-0.0257568359375;0.0234832763671875;0.997650146484375;0.029439382255077362;-0.09436485171318054;0.07798907160758972
1767708904109752000;-0.037689208984375;0.0262908935546875;1.0020751953125;0.02786758355796337;-0.05064213648438454;0.08787818998098373
1767708904119752000;-0.0102996826171875;0.0262451171875;1.001922607421875;0.013848970644176006;-0.05116225406527519;0.070868581533432
1767708904129751800;-0.0108184814453125;0.0206298828125;0.9950714111328125;-0.006570018362253904;-0.05659909546375275;0.06964725255966187
1767708904139752000;-0.0252227783203125;0.0165863037109375;0.9884033203125;-0.028916602954268456;-0.0575900599360466;0.07241294533014297
1767708904149751800;-0.02880859375;0.015350341796875;0.9793243408203125;-0.04813157767057419;-0.06688608974218369;0.06899664551019669
1767708904159753000;-0.018890380859375;0.0120697021484375;0.976165771484375;-0.05774452164769173;-0.09534862637519836;0.07100173830986023
1767708904169752800;-0.007720947265625;0.009307861328125;0.9744720458984375;-0.06772418320178986;-0.10237403959035873;0.07213810831308365
1767708904179752700;-0.0089874267578125;0.0089874267578125;0.994110107421875;-0.06424982845783234;-0.1042632907629013;0.05007515102624893
1767708904189752800;0.00042724609375;0.0109100341796875;1.0118255615234375;-0.05300436168909073;-0.08919592201709747;0.026972495019435883
1767708904199753700;-0.0091552734375;0.01708984375;1.0207366943359375;-0.027409520000219345;-0.05537697300314903;-0.017904166132211685
1767708904209753900;-0.0160369873046875;0.0156707763671875;1.026947021484375;-0.01890072040259838;-0.03941851109266281;-0.03446369990706444
1767708904219753700;-0.0234375;0.0189361572265625;1.017333984375;-0.010075803846120834;-0.024761272594332695;-0.04054263234138489
1767708904229753900;-0.0174102783203125;0.0232696533203125;1.0206298828125;-0.0005233111442066729;0.07980641722679138;-0.09383328258991241
1767708904239754000;0.01373291015625;0.033843994140625;1.0191650390625;-0.0073532541282474995;0.06057706102728844;-0.11507066339254379
1767708904249755000;-0.0170135498046875;0.0208892822265625;0.9923553466796875;-0.020680245012044907;-0.010899253189563751;-0.03971146047115326
1767708904259755000;-0.057037353515625;0.0315399169921875;1.0069580078125;-0.023145532235503197;-0.03141225129365921;0.014148576185107231
1767708904269755000;-0.0349273681640625;0.0328826904296875;1.025360107421875;-0.02160862274467945;-0.03482003137469292;0.031922779977321625
1767708904279754800;-0.0249176025390625;0.0325775146484375;1.017608642578125;-0.013037238270044327;-0.040830519050359726;0.026374615728855133
1767708904289756000;-0.0220947265625;0.0338897705078125;1.0128936767578125;-0.006371612660586834;-0.07295224070549011;0.019962523132562637
1767708904299755800;-0.0249786376953125;0.02471923828125;1.0074310302734375;0.00025486451340839267;-0.1014816164970398;0.022038722410798073
1767708904309756000;-0.0316162109375;0.024871826171875;1.0040740966796875;0.005637645721435547;-0.1104908213019371;0.017716679722070694
1767708904319755800;-0.0311737060546875;0.0230712890625;1.0000457763671875;0.011958392336964607;-0.09426525235176086;0.007279750891029835
1767708904329756000;-0.03118896484375;0.0208282470703125;0.994903564453125;0.0207686610519886;-0.04616323485970497;-0.021155884489417076
1767708904339757000;-0.01861572265625;0.0196380615234375;1.001007080078125;0.036433640867471695;-0.02333834581077099;-0.05642732232809067
1767708904349757400;-0.0117034912109375;0.015869140625;1.0106048583984375;0.04018763452768326;-0.017297230660915375;-0.07937551289796829
1767708904359757300;-0.021575927734375;0.016754150390625;1.0033111572265625;0.0462588407099247;-0.027968784794211388;-0.07261881232261658
1767708904369757400;-0.03460693359375;0.0172271728515625;0.9999542236328125;0.05044160038232803;-0.04193413257598877;-0.07465159893035889
1767708904379758300;-0.0243377685546875;0.02008056640625;1.0043182373046875;0.06016533449292183;-0.05407894775271416;-0.09338533878326416
1767708904389758500;-0.0200042724609375;0.0217742919921875;1.0058441162109375;0.06409935653209686;-0.054485347121953964;-0.10622310638427734
1767708904399758300;-0.0318450927734375;0.02056884765625;0.9986572265625;0.06326552480459213;-0.04641224071383476;-0.08435323089361191
1767708904409758200;-0.03802490234375;0.025146484375;0.997467041015625;0.05859833210706711;-0.04652702063322067;-0.06341252475976944
1767708904419759400;-0.032562255859375;0.0236358642578125;0.995574951171875;0.04813849925994873;-0.04126328229904175;-0.0507822223007679
1767708904429759200;-0.0384521484375;0.02117919921875;0.983917236328125;0.04242974892258644;-0.013982128351926804;-0.05862309783697128
1767708904439759400;-0.040130615234375;0.0189056396484375;0.980499267578125;0.03690448775887489;0.013059609569609165;-0.059726979583501816
1767708904449759200;-0.0438079833984375;0.0211181640625;0.9782867431640625;0.01865810714662075;0.04014608636498451;-0.0379047729074955
1767708904459759400;-0.051116943359375;0.020599365234375;0.9713897705078125;-0.018666628748178482;0.08184453099966049;-0.0060179452411830425
1767708904469760500;-0.055999755859375;0.035186767578125;0.9481658935546875;-0.050089798867702484;0.07958324253559113;0.04011386260390282
1767708904479760400;-0.0565032958984375;0.0053558349609375;0.972869873046875;-0.04048404470086098;0.03514467179775238;0.04244599491357803
1767708904489760500;-0.0303802490234375;-0.0105133056640625;1.0208282470703125;-0.027951207011938095;0.0304401982575655;0.034378211945295334
1767708904499760400;-0.0307769775390625;0.0062713623046875;1.0320892333984375;-0.00535428524017334;0.034685008227825165;0.030822627246379852
1767708904509761300;-0.0240631103515625;0.0135498046875;1.037811279296875;0.007770837750285864;0.02245284430682659;0.014902516268193722
1767708904519761400;-0.011871337890625;0.018402099609375;1.024169921875;0.014767760410904884;-0.004939364735037088;0.0031521173659712076
1767708904529761300;-0.016815185546875;0.021881103515625;1.0150604248046875;0.018172612413764;-0.03699183836579323;-0.003153981640934944
1767708904539761400;-0.02789306640625;0.0181732177734375;1.0084228515625;0.012240687385201454;-0.0676639974117279;0.014611433260142803
1767708904549761300;-0.043731689453125;0.0169830322265625;0.9989776611328125;0.00634817685931921;-0.07339858263731003;0.03196272626519203
1767708904559762200;-0.0400848388671875;0.0198516845703125;0.9970550537109375;0.004201669245958328;-0.06684534251689911;0.03880119323730469
1767708904569762300;-0.03277587890625;0.0157318115234375;0.9928436279296875;0.00418515782803297;-0.07073275744915009;0.031000526621937752
1767708904579762200;-0.0281829833984375;0.010589599609375;0.993011474609375;0.0035923379473388195;-0.08020509034395218;0.024533571675419807
1767708904589762300;-0.0375518798828125;0.0120697021484375;0.992767333984375;0.0041273669339716434;-0.08395428955554962;0.03447648510336876
1767708904599763500;-0.05023193359375;0.0147247314453125;0.989654541015625;0.0029356025625020266;-0.07474055141210556;0.047687094658613205
1767708904609763300;-0.051361083984375;0.0168914794921875;0.9904327392578125;0.004544684197753668;-0.06228361278772354;0.05361369252204895
1767708904619763500;-0.044158935546875;0.019622802734375;0.993988037109375;0.007665376644581556;-0.05733359605073929;0.050149720162153244
1767708904629763300;-0.0400543212890625;0.0200653076171875;0.996337890625;0.008615059778094292;-0.057009223848581314;0.0458092987537384
1767708904639763500;-0.0429534912109375;0.0173797607421875;0.995208740234375;0.006572415120899677;-0.06693588942289352;0.05158383026719093
1767708904649764400;-0.04693603515625;0.0182647705078125;0.9946136474609375;0.002682868391275406;-0.08418039232492447;0.06921315938234329
1767708904659764200;-0.0532684326171875;0.01898193359375;0.997039794921875;-0.006915696896612644;-0.09543997049331665;0.08226823806762695
1767708904669764400;-0.0494232177734375;0.0169830322265625;0.9964599609375;-0.011863583698868752;-0.10794483870267868;0.09045027196407318
1767708904679764200;-0.049774169921875;0.016510009765625;1.00433349609375;-0.014452708885073662;-0.09437496960163116;0.09175548702478409
1767708904689765000;-0.04205322265625;0.01513671875;1.009124755859375;-0.013139237649738789;-0.07444014400243759;0.06999693065881729
1767708904699765200;-0.0326080322265625;0.0150146484375;1.0141448974609375;-0.011867045424878597;-0.060809023678302765;0.04622209072113037
1767708904709765000;-0.0365142822265625;0.0152740478515625;1.00628662109375;-0.014446050859987736;-0.04987035319209099;0.033299632370471954
1767708904719765500;-0.0467987060546875;0.0152740478515625;1.000640869140625;-0.012939234264194965;-0.045215949416160583;0.030769895762205124
1767708904729765400;-0.0510406494140625;0.015228271484375;1.002105712890625;-0.00857271533459425;-0.03972850367426872;0.029352828860282898
1767708904739766300;-0.0555572509765625;0.01470947265625;1.004150390625;-0.004845355171710253;-0.030593594536185265;0.02359187789261341
1767708904749766400;-0.0537109375;0.011077880859375;1.001708984375;-0.005064267199486494;-0.023333817720413208;0.015562980435788631
1767708904759766300;-0.05413818359375;0.01080322265625;0.9981842041015625;-0.001767273643054068;-0.014488928020000458;0.01130724884569645
1767708904769766400;-0.0553741455078125;0.0130157470703125;0.9922027587890625;-0.002126800362020731;-0.012971725314855576;0.007503456436097622
1767708904779767300;-0.0585479736328125;0.016204833984375;0.9894866943359375;-0.0028431906830519438;0.0014474280178546906;0.0059841228649020195
1767708904789767200;-0.0567169189453125;0.0172882080078125;0.990264892578125;0.0005334311863407493;0.012053733691573143;-0.0034298852551728487
1767708904799767300;-0.049652099609375;0.015869140625;0.996429443359375;0.0007819040911272168;0.010369017720222473;-0.014065485447645187
1767708904809767200;-0.0507965087890625;0.014007568359375;1.00323486328125;-0.002743055811151862;0.011620703153312206;-0.021099692210555077
1767708904819767300;-0.0548248291015625;0.0141143798828125;1.0020751953125;-0.005061870440840721;0.01498321071267128;-0.025614816695451736
1767708904829768400;-0.0584564208984375;0.016387939453125;1.000213623046875;-0.0022053637076169252;0.01751427911221981;-0.021747106686234474
1767708904839768300;-0.0562591552734375;0.01739501953125;1.004730224609375;-0.00014381069922819734;0.023211846128106117;-0.027774905785918236
1767708904849768400;-0.05157470703125;0.0167083740234375;1.0041656494140625;0.00119602563790977;0.02449708618223667;-0.022891201078891754
1767708904859768300;-0.0554046630859375;0.0166015625;1.0003509521484375;0.002326803747564554;0.017884191125631332;-0.010979680344462395
1767708904869769200;-0.055938720703125;0.016082763671875;0.9986572265625;0.0028461201582103968;0.005113801918923855;-0.007876299321651459
1767708904879769300;-0.04766845703125;0.01641845703125;0.999786376953125;0.00395665830001235;-0.008309595286846161;-0.011711517348885536
1767708904889769200;-0.045074462890625;0.0176544189453125;0.9996337890625;0.003611512714996934;-0.015906793996691704;-0.009334912523627281
1767708904899769300;-0.0500640869140625;0.0168609619140625;0.9980621337890625;0.004870389122515917;-0.010252105072140694;-0.006711432244628668
1767708904909770200;-0.053375244140625;0.015869140625;0.9993133544921875;0.007218498270958662;-0.00663366774097085;-0.023933028802275658
1767708904919770400;-0.0427093505859375;0.014495849609375;1.0037841796875;0.0100238723680377;-0.011096060276031494;-0.03292838856577873
1767708904929770200;-0.0510711669921875;0.0119781494140625;1.0042572021484375;0.007764712441712618;-0.008886968716979027;-0.02455274760723114
1767708904939770000;-0.0561676025390625;0.010528564453125;1.000274658203125;0.004279966000467539;-0.009660083800554276;-0.013630058616399765
1767708904949770200;-0.0543212890625;0.015899658203125;1.001251220703125;0.004551874939352274;-0.013411945663392544;-0.011799934320151806
1767708904959771400;-0.050994873046875;0.0159912109375;1.001190185546875;0.005678924731910229;-0.008612928912043571;-0.02190343476831913
1767708904969771300;-0.0474700927734375;0.0151214599609375;0.9990386962890625;0.00033156355493701994;-0.008535430766642094;-0.022418489679694176
1767708904979771400;-0.0499725341796875;0.0141143798828125;0.9963531494140625;-0.002977147698402405;-0.012011655606329441;-0.013902232982218266
1767708904989771300;-0.050201416015625;0.01507568359375;0.996917724609375;-0.0041153826750814915;-0.016702547669410706;-0.006894125137478113
1767708904999772400;-0.04986572265625;0.0163116455078125;0.9957275390625;-0.008713330142199993;-0.016163790598511696;-0.003891677362844348
1767708905009772300;-0.04840087890625;0.0157928466796875;0.9980621337890625;-0.014772821217775345;-0.02430027909576893;-0.0041276332922279835
1767708905019772400;-0.049285888671875;0.015228271484375;1.000244140625;-0.016703879460692406;-0.0345209576189518;-0.006052832584828138
1767708905029772300;-0.05230712890625;0.0137176513671875;1.0006866455078125;-0.019466109573841095;-0.032594162970781326;-0.007901865057647228
1767708905039772200;-0.054473876953125;0.0143280029296875;0.9985504150390625;-0.018747854977846146;-0.029258819296956062;-0.006670952308923006
1767708905049773300;-0.0536956787109375;0.0167694091796875;0.999176025390625;-0.019815249368548393;-0.02984018623828888;-0.0022471752017736435
1767708905059773200;-0.0526885986328125;0.01800537109375;0.9991912841796875;-0.0180000402033329;-0.026020148769021034;0.001657551503740251
1767708905069773300;-0.05535888671875;0.0195159912109375;0.998809814453125;-0.015330486930906773;-0.019294336438179016;0.0022120214998722076
1767708905079773400;-0.0541229248046875;0.021484375;0.99847412109375;-0.014196778647601604;-0.015031147748231888;0.004038683604449034
1767708905089774300;-0.0536346435546875;0.021331787109375;0.99932861328125;-0.01577017456293106;-0.009692841209471226;0.00043649208964779973
1767708905099774500;-0.051025390625;0.0187835693359375;1.0030059814453125;-0.018215755000710487;-0.005527124274522066;0.002511360915377736
1767708905109774300;-0.0548858642578125;0.01788330078125;1.0040740966796875;-0.017139306291937828;-0.005854959599673748;0.0033894050866365433
1767708905119774500;-0.0529937744140625;0.01788330078125;1.0045166015625;-0.016682308167219162;-0.0026229473296552896;0.00044581317342817783
1767708905129774300;-0.04913330078125;0.02081298828125;1.0008697509765625;-0.01555232796818018;0.0008849684381857514;0.00015180018090177327
1767708905139775200;-0.0535430908203125;0.0241546630859375;0.9978790283203125;-0.018486598506569862;-0.0011883024126291275;0.002923884429037571
1767708905149775400;-0.0557403564453125;0.0236663818359375;0.9941864013671875;-0.015785887837409973;0.00216594897210598;0.0113413380458951
1767708905159775200;-0.058013916015625;0.0205841064453125;0.9935150146484375;-0.012110458686947823;0.012753346003592014;0.013942713849246502
1767708905169775400;-0.0592498779296875;0.018402099609375;0.9954986572265625;-0.007457383442670107;0.012289423495531082;0.013341904617846012
1767708905179776500;-0.0561676025390625;0.0156097412109375;0.9997100830078125;-0.006579605862498283;0.0062792012467980385;0.010230266489088535
1767708905189776400;-0.0432586669921875;0.014251708984375;1.0042572021484375;-0.004574778024107218;0.009765811264514923;0.006487726699560881
1767708905199776500;-0.0443267822265625;0.016693115234375;1.0050506591796875;-0.0062677497044205666;0.00851705577224493;0.010208428837358952
1767708905209776400;-0.05145263671875;0.0182342529296875;0.9985809326171875;-0.006852047052234411;0.013263873755931854;0.010222277604043484
1767708905219777300;-0.056488037109375;0.0198211669921875;0.998626708984375;-0.008407066576182842;0.016169382259249687;0.005511678289622068
1767708905229777400;-0.06103515625;0.0181884765625;1.00030517578125;-0.00663526589050889;0.010932542383670807;0.007861917838454247
1767708905239777300;-0.0603179931640625;0.0167236328125;0.998291015625;-0.005178783088922501;0.01059192419052124;0.008731972426176071
1767708905249777400;-0.0603485107421875;0.01495361328125;0.9963531494140625;-0.0012072109384462237;0.008450210094451904;0.005446697119623423
1767708905259777300;-0.0569305419921875;0.014617919921875;0.996002197265625;-0.0004756405542138964;0.006022738758474588;0.008096275851130486
1767708905269778200;-0.0590667724609375;0.016815185546875;0.9974212646484375;0.001401089015416801;0.0023606258910149336;0.011363974772393703
1767708905279778300;-0.0579986572265625;0.01934814453125;1.0008697509765625;0.004710865672677755;0.0009752495680004358;0.008400408551096916
1767708905289778200;-0.0551300048828125;0.0193939208984375;1.0030059814453125;0.002183259464800358;0.006070409435778856;-0.001026382320560515
1767708905299778300;-0.0550689697265625;0.0193023681640625;1.00335693359375;0.0038192393258213997;0.003765709698200226;-0.0027654264122247696
1767708905309779500;-0.057281494140625;0.0193328857421875;1.0014801025390625;0.0012740562669932842;0.0004945489927195013;0.0007773766992613673
1767708905319779300;-0.0572357177734375;0.0187225341796875;1.0005340576171875;0.0023031015880405903;-0.007863515987992287;0.004827778320759535
1767708905329779500;-0.0578460693359375;0.01806640625;1.00140380859375;0.003994208760559559;-0.011847072280943394;0.010434797964990139
1767708905339779300;-0.057403564453125;0.017486572265625;1.000762939453125;0.005149488337337971;-0.016993630677461624;0.008460063487291336
1767708905349780500;-0.0534820556640625;0.0175323486328125;1.002899169921875;0.005033374298363924;-0.013728861697018147;0.00624138442799449
1767708905359780600;-0.0548248291015625;0.018096923828125;0.9997100830078125;0.007620369084179401;-0.01366308145225048;0.0014889733865857124
1767708905369780500;-0.0551910400390625;0.0187225341796875;0.999908447265625;0.009688845835626125;-0.015490276739001274;-0.0007590008899569511
1767708905379780600;-0.057098388671875;0.018798828125;0.99969482421875;0.010477940551936626;-0.007093862164765596;-0.008624913170933723
1767708905389780500;-0.05615234375;0.017974853515625;0.999114990234375;0.011924037709832191;-0.009150355122983456;-0.0038895467296242714
1767708905399781400;-0.06024169921875;0.0183868408203125;0.999908447265625;0.010264355689287186;-0.006946056615561247;-0.0028937908355146646
1767708905409781500;-0.059967041015625;0.019439697265625;0.9964447021484375;0.009755425155162811;-0.004257062915712595;-0.0035095135681331158
1767708905419781400;-0.0576934814453125;0.0182037353515625;0.9960174560546875;0.007394000422209501;-0.003942277282476425;-0.005090366117656231
1767708905429781800;-0.0566558837890625;0.01983642578125;0.99664306640625;0.005239236634224653;-0.00920148752629757;-0.00481259822845459
1767708905439782700;-0.0576171875;0.0202789306640625;1.0003509521484375;0.004022704903036356;-0.012919261120259762;0.0022538332268595695
1767708905449782500;-0.0594635009765625;0.0236358642578125;1.00042724609375;0.001859685406088829;-0.009807622991502285;0.0029973878990858793
1767708905459782700;-0.0535736083984375;0.0206298828125;0.9979705810546875;-0.0010724549647420645;-0.009369799867272377;-0.004391552414745092
1767708905469782500;-0.0519866943359375;0.02044677734375;0.999542236328125;-0.001529187080450356;-0.011786085553467274;-0.003640541108325124
1767708905479783400;-0.058837890625;0.02081298828125;1.00189208984375;-0.002377936616539955;-0.01383964903652668;-0.00011478224041638896
1767708905489783600;-0.059478759765625;0.02008056640625;0.9984588623046875;-0.00043223105603829026;-0.012989035807549953;0.002767290687188506
1767708905499783400;-0.0555877685546875;0.019775390625;1.0001220703125;0.005515939090400934;-0.013222594745457172;0.0018628811230883002
1767708905509783600;-0.053558349609375;0.021697998046875;1.0009918212890625;0.005526059307157993;-0.020016318187117577;-0.0006191849242895842
1767708905519783400;-0.0547027587890625;0.020050048828125;0.9990692138671875;0.00612393906340003;-0.01635606959462166;-0.0026072347536683083
1767708905529784600;-0.056488037109375;0.019805908203125;0.99932861328125;0.008156463503837585;-0.01611878164112568;-0.007530886679887772
1767708905539784700;-0.056549072265625;0.0193939208984375;1.0002288818359375;0.00415453128516674;-0.013282516039907932;-0.003674097126349807
1767708905549784600;-0.0623931884765625;0.0189208984375;0.999359130859375;0.0019680759869515896;-0.014319817535579205;-0.0010157296201214194
1767708905559784700;-0.0592041015625;0.01947021484375;0.9990081787109375;0.002400306984782219;-0.00965688843280077;-0.002802977105602622
1767708905569785600;-0.0594940185546875;0.0188446044921875;0.999114990234375;0.0011792477453127503;-0.0018967032665386796;-0.004078897647559643
1767708905579785500;-0.0622406005859375;0.018646240234375;0.998077392578125;-0.0002487392339389771;0.004391286056488752;0.00012303804396651685
1767708905589785600;-0.0615386962890625;0.02008056640625;0.99786376953125;-0.0023166837636381388;0.007859254255890846;-0.000008255799002654385
1767708905599785500;-0.0611572265625;0.02130126953125;0.9986572265625;-0.001005343277938664;0.009463543072342873;-0.001210939371958375
1767708905609786600;-0.0595855712890625;0.019012451171875;1.0012664794921875;-0.0003307645965833217;0.006926882080733776;-0.0016706009628251195
1767708905619786500;-0.0592803955078125;0.0198974609375;1.0013580322265625;-0.0004394215648062527;0.008957276120781898;-0.0016823188634589314
1767708905629786400;-0.061065673828125;0.0205535888671875;1.000579833984375;-0.0018700717482715845;0.006954312324523926;-0.000360059377271682
1767708905639786500;-0.0569915771484375;0.01953125;0.9982452392578125;-0.002587793627753854;0.004349474795162678;0.0004854942671954632
1767708905649786400;-0.0565948486328125;0.0202484130859375;0.994384765625;-0.0035750274546444416;0.005032575689256191;0.005424859002232552
1767708905659787800;-0.058837890625;0.0191650390625;0.9951629638671875;-0.0062483083456754684;0.007065898738801479;0.0057494984939694405
1767708905669787600;-0.0580596923828125;0.0186309814453125;0.9975738525390625;-0.005185973364859819;0.009491506032645702;-0.0013851100811734796
1767708905679787500;-0.0554046630859375;0.017822265625;0.998260498046875;-0.006429403554648161;0.01480531133711338;-0.0038959383964538574
1767708905689787600;-0.0594635009765625;0.0171051025390625;0.9996185302734375;-0.005452822428196669;0.013287842273712158;-0.0020783308427780867
1767708905699788500;-0.058990478515625;0.0181884765625;1.0029449462890625;-0.00495081627741456;0.01341860368847847;-0.00044314999831840396
1767708905709788700;-0.0597381591796875;0.0197296142578125;1.001251220703125;-0.004932973068207502;0.014342454262077808;0.002703907433897257
1767708905719788500;-0.058990478515625;0.020904541015625;1.0011138916015625;-0.006198240909725428;0.017613880336284637;0.0038991342298686504
1767708905729788400;-0.057037353515625;0.021148681640625;1.00140380859375;-0.004773183725774288;0.018855713307857513;0.003698598127812147
1767708905739788500;-0.05584716796875;0.018798828125;0.999267578125;-0.005056277383118868;0.016346748918294907;0.004355067387223244
1767708905749789400;-0.0550994873046875;0.01617431640625;1.0001983642578125;-0.001761148450896144;0.011020692996680737;0.004954544827342033
1767708905759789600;-0.0542144775390625;0.015899658203125;1.0018157958984375;-0.00006684534309897572;0.009689378552138805;0.0059628174640238285
1767708905769789400;-0.0533294677734375;0.016265869140625;1.0001220703125;0.0018077536951750517;0.009246761910617352;-0.001817607437260449
1767708905779789600;-0.0518341064453125;0.015899658203125;0.9983673095703125;0.0020383833907544613;0.011855061165988445;-0.009170861914753914
1767708905789790700;-0.0533599853515625;0.014434814453125;0.9990081787109375;0.0005882922559976578;0.008806008845567703;-0.011259312741458416
1767708905799790600;-0.0542449951171875;0.0139923095703125;0.9976654052734375;0.0035931370221078396;0.009019593708217144;-0.005736448802053928
1767708905809790700;-0.0589752197265625;0.01287841796875;0.996124267578125;0.0030330740846693516;0.008245679549872875;-0.0034256239887326956
1767708905819790600;-0.058258056640625;0.0137786865234375;1.0014495849609375;0.0012069445801898837;0.0022620889358222485;-0.004441353492438793
1767708905829791500;-0.04534912109375;0.0138702392578125;1.00531005859375;-0.004267981741577387;-0.007388674188405275;-0.006177468225359917
1767708905839791600;-0.0441436767578125;0.0165557861328125;1.0042572021484375;-0.005958290304988623;-0.00811971165239811;-0.004117247182875872
1767708905849791500;-0.0530548095703125;0.0198516845703125;0.999542236328125;-0.007906392216682434;-0.005963882897049189;-0.006997722201049328
1767708905859791600;-0.056243896484375;0.0194549560546875;0.9972686767578125;-0.005570800509303808;-0.0034378746058791876;-0.006256830412894487
1767708905869792500;-0.059661865234375;0.0179595947265625;0.9961700439453125;-0.005286907311528921;-0.0017089504981413484;-0.004369448404759169
1767708905879792400;-0.0615386962890625;0.0171661376953125;0.9980316162109375;-0.001704689348116517;0.0007281082216650248;-0.0067511131055653095
1767708905889792800;-0.0596771240234375;0.0167694091796875;0.996612548828125;0.0031902005430310965;0.010580206289887428;-0.005528722424060106
1767708905899792600;-0.0595703125;0.018310546875;0.99334716796875;0.005015797447413206;0.015324627980589867;-0.0028823392931371927
1767708905909792800;-0.056976318359375;0.018707275390625;0.996002197265625;0.00564137427136302;0.017314808443188667;0.0006439523422159255
1767708905919793700;-0.054351806640625;0.0189056396484375;0.996795654296875;0.0001030643325066194;0.022494656965136528;0.001035436987876892
1767708905929793500;-0.0574493408203125;0.0184326171875;0.9963226318359375;-0.001989913871511817;0.02702549286186695;0.0016588830621913075
1767708905939793700;-0.055084228515625;0.0179595947265625;0.9983978271484375;-0.004535097163170576;0.022457905113697052;0.0010692591313272715
1767708905949793500;-0.0545501708984375;0.0167999267578125;1.00164794921875;-0.0067694890312850475;0.02468297630548477;-0.0029763488564640284
1767708905959794400;-0.0557861328125;0.0177154541015625;1.00042724609375;-0.005517537239938974;0.02840767242014408;-0.003510046284645796
1767708905969794600;-0.054443359375;0.0171051025390625;1.000244140625;-0.005571599118411541;0.027574103325605392;0.0034525219816714525
1767708905979794400;-0.0530853271484375;0.0162200927734375;1.0035552978515625;-0.0019076223252341151;0.024393755942583084;0.005085572600364685
1767708905989794600;-0.053375244140625;0.0158538818359375;1.0031280517578125;0.00037630466977134347;0.02323608100414276;0.008008657954633236
1767708905999795700;-0.05279541015625;0.0191497802734375;1.0007171630859375;0.002650644164532423;0.015985624864697456;-0.00008309062832267955
1767708906009795600;-0.045928955078125;0.0173187255859375;1.000213623046875;0.003884486621245742;0.012702745385468006;-0.004059989005327225
1767708906019795700;-0.0489044189453125;0.0159454345703125;0.9962615966796875;0.004068511072546244;0.012605806812644005;-0.010135192424058914
1767708906029795600;-0.0511627197265625;0.0159759521484375;0.9973907470703125;0.005369198974221945;0.010962902568280697;-0.009918943047523499
1767708906039796500;-0.0522918701171875;0.012939453125;1.001007080078125;0.00404614070430398;0.010424677282571793;-0.008377771824598312
1767708906049796600;-0.0539093017578125;0.013275146484375;1.0016326904296875;0.003299922915175557;0.014791728928685188;-0.009190568700432777
1767708906059796500;-0.057403564453125;0.0157623291015625;1.001068115234375;0.0006988134700804949;0.017485782504081726;-0.004804342519491911
1767708906069796600;-0.0572052001953125;0.0183563232421875;1;-0.005113535560667515;0.020728981122374535;0.0018421085551381111
1767708906079796500;-0.0586090087890625;0.0210113525390625;0.9991912841796875;-0.0033041839487850666;0.02648353949189186;0.001517202821560204
1767708906089797400;-0.0550537109375;0.022613525390625;0.9971771240234375;-0.007790278643369675;0.028655612841248512;0.000502804818097502
1767708906099797500;-0.053863525390625;0.021392822265625;0.9992828369140625;-0.004914863966405392;0.034573156386613846;-0.0041526672430336475
1767708906109797400;-0.0552978515625;0.022003173828125;0.9999847412109375;-0.0020391824655234814;0.032218124717473984;0.0011025486746802926
1767708906119797500;-0.0563507080078125;0.02020263671875;1.0009918212890625;0.0007544735562987626;0.0356765054166317;0.00041864890954457223
1767708906129798700;-0.055419921875;0.01849365234375;1.0015716552734375;0.006136455573141575;0.04225717484951019;-0.002133724745362997
1767708906139798500;-0.0531463623046875;0.018096923828125;1.0014190673828125;0.00914689339697361;0.0408552885055542;0.003718838095664978
1767708906149798700;-0.0555419921875;0.0176239013671875;1.0019073486328125;0.010153568349778652;0.04414855316281319;0.006703975144773722
1767708906159798500;-0.0555267333984375;0.0174407958984375;1.000518798828125;0.009518403559923172;0.04415760561823845;0.003757720347493887
1767708906169799700;-0.0516204833984375;0.01641845703125;1.003082275390625;0.007503989152610302;0.043231360614299774;0.000645550258923322
1767708906179799600;-0.05352783203125;0.0145721435546875;0.9983367919921875;0.0031579763162881136;0.040594831109046936;-0.0017560884589329362
1767708906189799400;-0.054290771484375;0.0135345458984375;0.99700927734375;0.0025510420091450214;0.039574574679136276;-0.004741758108139038
1767708906199799600;-0.0530242919921875;0.0137481689453125;0.99993896484375;-0.0009829727932810783;0.037521541118621826;-0.005152151454240084
1767708906209799400;-0.0472259521484375;0.013916015625;0.999847412109375;-0.0031166973058134317;0.034513235092163086;-0.012795424088835716
1767708906219800600;-0.043487548828125;0.013031005859375;0.9996337890625;-0.0032056469935923815;0.032580845057964325;-0.019234415143728256
1767708906229800400;-0.0434112548828125;0.01141357421875;1.0002899169921875;-0.006061088293790817;0.027881965041160583;-0.02479988895356655
1767708906239800600;-0.0475921630859375;0.0121307373046875;0.99884033203125;-0.005465338937938213;0.02592693828046322;-0.021495439112186432
1767708906249800700;-0.0523529052734375;0.0147705078125;0.998504638671875;-0.005139900837093592;0.02376897819340229;-0.02352423407137394
1767708906259801600;-0.051788330078125;0.0177154541015625;0.9998016357421875;-0.005856557283550501;0.026327211409807205;-0.020848821848630905
1767708906269801700;-0.0513763427734375;0.018524169921875;0.999542236328125;-0.0054735951125621796;0.02990676648914814;-0.02202354371547699
1767708906279801600;-0.050323486328125;0.0185089111328125;0.999908447265625;-0.003478354774415493;0.027239343151450157;-0.018849054351449013
1767708906289801500;-0.053375244140625;0.0189361572265625;0.9982757568359375;-0.00035127095179632306;0.024321051314473152;-0.01053120382130146
1767708906299802600;-0.052703857421875;0.0215301513671875;0.99920654296875;-0.000004793690095539205;0.025480326265096664;-0.009743707254529
1767708906309802500;-0.0447540283203125;0.02056884765625;0.997406005859375;0.0006671218434348702;0.020329240709543228;-0.005915679503232241
1767708906319802600;-0.0435791015625;0.0191192626953125;0.997222900390625;-0.0028455876745283604;0.014599449001252651;-0.0013294500531628728
1767708906329802500;-0.0459747314453125;0.01953125;0.996856689453125;-0.006402239203453064;0.013112340122461319;0.00008655273268232122
1767708906339803400;-0.0475921630859375;0.0185546875;0.996917724609375;-0.0073447320610284805;0.02375752665102482;0.003162237349897623
1767708906349803300;-0.050201416015625;0.0186004638671875;0.994384765625;-0.008895223960280418;0.03021169826388359;0.0047148605808615685
1767708906359803100;-0.05023193359375;0.016510009765625;0.9955902099609375;-0.011030014604330063;0.0349997952580452;0.007390804588794708
1767708906369803300;-0.049530029296875;0.016693115234375;0.997894287109375;-0.014096643775701523;0.0391806922852993;0.007539675105363131
1767708906379803100;-0.0445709228515625;0.01727294921875;0.99786376953125;-0.011844408698379993;0.042689938098192215;0.013364807702600956
1767708906389804000;-0.04345703125;0.0147705078125;1.0004730224609375;-0.011481952853500843;0.032534241676330566;0.019599268212914467
1767708906399804200;-0.0432586669921875;0.01727294921875;0.9997406005859375;-0.011419101618230343;0.023984694853425026;0.0333331897854805
1767708906409804000;-0.047119140625;0.0202484130859375;0.99591064453125;-0.011745339259505272;0.021145498380064964;0.04134184867143631
1767708906419804200;-0.0484619140625;0.022003173828125;0.99420166015625;-0.013891047798097134;0.029763488098978996;0.03711434453725815
1767708906429805000;-0.04534912109375;0.0198211669921875;0.9958038330078125;-0.008929046802222729;0.04741385579109192;0.016033561900258064
1767708906439805000;-0.0368804931640625;0.01568603515625;1.003143310546875;-0.006706106010824442;0.06360027939081192;-0.0012061456218361855
1767708906449805000;-0.035919189453125;0.0083770751953125;1.0032958984375;-0.0019630161114037037;0.07026883959770203;-0.011843076907098293
1767708906459805000;-0.0395355224609375;0.0067138671875;1.0082855224609375;-0.0007366303470917046;0.06191796064376831;-0.012774384580552578
1767708906469806000;-0.0372467041015625;0.0085906982421875;1.009979248046875;0.0007313040550798178;0.0548001304268837;-0.012180766090750694
1767708906479806200;-0.041015625;0.0135650634765625;1.00927734375;0.001597630325704813;0.053648848086595535;-0.014673484489321709
1767708906489806000;-0.0458984375;0.0153961181640625;1.0044708251953125;0.0002695118892006576;0.058287009596824646;-0.01618828997015953
1767708906499806200;-0.0512542724609375;0.0178680419921875;1.0017852783203125;-0.0014884406700730324;0.056350890547037125;-0.010524280369281769
1767708906509807000;-0.0547332763671875;0.018707275390625;0.9992523193359375;-0.003916444722563028;0.051297809928655624;-0.0029177593532949686
1767708906519807000;-0.0504608154296875;0.0183258056640625;0.9953155517578125;-0.004119910299777985;0.047869253903627396;-0.00042450788896530867
1767708906529807000;-0.042816162109375;0.01873779296875;0.995941162109375;-0.0019481023773550987;0.0472993366420269;-0.006311425473541021
1767708906539807000;-0.0337677001953125;0.0181732177734375;0.99957275390625;-0.0012242551892995834;0.03425650671124458;-0.0075455340556800365
1767708906549807000;-0.0329132080078125;0.0163726806640625;1.0025634765625;-0.00038216362008824944;0.02840900421142578;-0.0044227116741240025
1767708906559808000;-0.04144287109375;0.020416259765625;1.006134033203125;0.005814213305711746;0.025256887078285217;0.003832821501418948
1767708906569808100;-0.0432586669921875;0.01959228515625;1.009429931640625;0.00720491586253047;0.028379177674651146;0.006669087801128626
1767708906579808000;-0.0420379638671875;0.020050048828125;1.008331298828125;0.006406234111636877;0.02863484062254429;0.005405950825661421
1767708906589807900;-0.040771484375;0.018157958984375;1.0064849853515625;0.005241101142019033;0.017782991752028465;0.010966897010803223
1767708906599809300;-0.0406951904296875;0.0153045654296875;1.0016021728515625;-0.0007590008899569511;0.0070278155617415905;0.015411446802318096
1767708906609809200;-0.03717041015625;0.0164337158203125;0.99615478515625;0.0002878876985050738;-0.002335858531296253;0.019578494131565094
1767708906619809000;-0.0358428955078125;0.0167388916015625;0.999603271484375;0.0037318875547498465;-0.01931537501513958;0.018665030598640442
1767708906629809200;-0.0293731689453125;0.015869140625;1.0062103271484375;0.007253651972860098;-0.03158189356327057;0.01606711745262146
1767708906639810000;-0.0335693359375;0.014373779296875;1.00787353515625;0.005172657780349255;-0.01781068928539753;0.009492305107414722
1767708906649810200;-0.03509521484375;0.0142974853515625;1.0054168701171875;0.008980978280305862;-0.022779613733291626;0.011215636506676674
1767708906659810000;-0.0361785888671875;0.0155487060546875;1.0071868896484375;0.008223574608564377;-0.036724723875522614;0.014057761989533901
1767708906669810200;-0.0390777587890625;0.014007568359375;1.00213623046875;0.007513576187193394;-0.03996392711997032;0.010924020782113075
1767708906679811000;-0.0384521484375;0.014007568359375;0.997467041015625;0.008067513816058636;-0.038491733372211456;0.004000334069132805
1767708906689811000;-0.03778076171875;0.0168914794921875;0.997100830078125;0.004486627411097288;-0.03429299220442772;0.0009472863748669624
1767708906699811300;-0.0352325439453125;0.015777587890625;1.000579833984375;0.002823483431711793;-0.034928955137729645;-0.00484349112957716
1767708906709811200;-0.029083251953125;0.0142822265625;1.001922607421875;0.0020900487434118986;-0.03274036943912506;-0.007664577569812536
1767708906719811300;-0.03973388671875;0.0144195556640625;0.9987640380859375;-0.005166266113519669;-0.1402905285358429;0.09027823060750961
1767708906729812200;-0.0743865966796875;0.02374267578125;1.0044403076171875;-0.00606508320197463;-0.025013741105794907;0.027168504893779755
1767708906739812000;-0.0018310546875;0.0246429443359375;0.99761962890625;0.0019089538836851716;-0.038111165165901184;-0.00620995881035924
1767708906749812200;-0.028900146484375;0.01483154296875;0.9929962158203125;0.00017443705291952938;-0.04975983127951622;0.01067927572876215
1767708906759812000;-0.0440826416015625;0.02294921875;1.0070343017578125;0.002412024885416031;-0.038669098168611526;0.012938168831169605
1767708906769813000;-0.03814697265625;0.0155792236328125;1.0006103515625;0.00818229652941227;-0.02298201434314251;0.002927080262452364
1767708906779813000;-0.0310211181640625;0.0180206298828125;1.002105712890625;0.015410381369292736;-0.005696235224604607;-0.014613031409680843
1767708906789813000;-0.025604248046875;0.014068603515625;1.005035400390625;0.018202705308794975;-0.004365986213088036;-0.01900484971702099
1767708906799813000;-0.0348358154296875;0.01287841796875;0.9991912841796875;0.01781175471842289;-0.014256699942052364;-0.012595154345035553
1767708906809814300;-0.0427703857421875;0.0162506103515625;0.996734619140625;0.021229920908808708;-0.016169115900993347;-0.003307912265881896
1767708906819814100;-0.043609619140625;0.01849365234375;0.9962005615234375;0.0075940038077533245;-0.09178505092859268;0.05390797182917595
1767708906829814300;-0.0745391845703125;0.019256591796875;0.9935302734375;0.010396447964012623;-0.021685054525732994;0.03573083132505417
1767708906839814100;-0.0244598388671875;0.02435302734375;1.001312255859375;0.01629854552447796;-0.0018937737913802266;-0.014023673720657825
1767708906849815000;-0.027740478515625;0.0144500732421875;0.993865966796875;0.00863157119601965;-0.009409480728209019;-0.0065710837952792645
1767708906859815200;-0.04998779296875;0.019561767578125;1.0035400390625;0.009886985644698143;-0.008286692202091217;-0.0012215919559821486
1767708906869815000;-0.043975830078125;0.0147247314453125;0.99932861328125;0.008665925823152065;0.005354018881917;-0.005873868241906166
1767708906879815200;-0.043548583984375;0.0157470703125;0.998382568359375;0.00911253783851862;-0.0030035129748284817;-0.002858903491869569
1767708906889816000;-0.045013427734375;0.0148468017578125;0.998382568359375;0.000480434246128425;-0.060087572783231735;0.0342373326420784
1767708906899816000;-0.0701751708984375;0.0140380859375;0.9921722412109375;0.005148422904312611;-0.03157417103648186;0.047501739114522934
1767708906909816000;-0.0347747802734375;0.0228271484375;1.0048370361328125;0.010878746397793293;0.001886317040771246;-0.0073503246530890465
1767708906919816000;-0.026092529296875;0.008331298828125;0.9967803955078125;0.007996407337486744;-0.004502340219914913;-0.010055297054350376
1767708906929816000;-0.0426177978515625;0.01629638671875;1.002197265625;0.004510862287133932;-0.00842837244272232;-0.004826979245990515
1767708906939817200;-0.045806884765625;0.0115203857421875;0.9980621337890625;0.0034938009921461344;-0.005260542035102844;-0.0023347933311015368
1767708906949817000;-0.05535888671875;0.0144500732421875;0.99261474609375;0.004032026045024395;0.0008652610122226179;0.002089249901473522
1767708906959817200;-0.0537261962890625;0.0139617919921875;0.99884033203125;0.0019566244445741177;0.004220045171678066;0.00794287770986557
1767708906969817000;-0.0503997802734375;0.0140228271484375;1.00238037109375;0.0001174454009742476;0.007926899008452892;0.005875199567526579
1767708906979818000;-0.046356201171875;0.0166473388671875;1.00054931640625;-0.0019462381023913622;0.012645754031836987;0.0019385149935260415
1767708906989818000;-0.0434417724609375;0.0172576904296875;1.00225830078125;0.000639691308606416;0.010747719556093216;-0.0012996225850656629
1767708906999818000;-0.0423583984375;0.01654052734375;1.000762939453125;-0.0011853729374706745;0.004041613079607487;0.0022708773612976074
1767708907009818000;-0.0438690185546875;0.013671875;0.9993438720703125;-0.0049556102603673935;-0.004531634971499443;0.009502957575023174
1767708907019819000;-0.0478973388671875;0.011932373046875;0.997467041015625;-0.007234210614115;-0.007722367998212576;0.016821857541799545
1767708907029819100;-0.047271728515625;0.0120697021484375;0.992919921875;-0.012972258031368256;-0.002368615474551916;0.017179785296320915
1767708907039819000;-0.0489959716796875;0.0153656005859375;0.9927978515625;-0.01122202817350626;0.0023909860756248236;0.009810286574065685
1767708907049819000;-0.04302978515625;0.01495361328125;0.99993896484375;-0.013199691660702229;0.009013468399643898;0.001113201375119388
1767708907059820300;-0.0409088134765625;0.012359619140625;1.000244140625;-0.01179354265332222;0.019328691065311432;-0.003462908323854208
1767708907069820200;-0.048919677734375;0.0109100341796875;0.9970855712890625;-0.010041715577244759;0.031862325966358185;-0.006535930093377829
1767708907079820000;-0.0530548095703125;0.0107421875;0.9982147216796875;-0.008557535707950592;0.020120447501540184;-0.004793157335370779
1767708907089820200;-0.0428924560546875;0.0084991455078125;1.004150390625;-0.00945289060473442;0.0022056300658732653;-0.0022426480427384377
1767708907099821000;-0.0364990234375;0.0106658935546875;1.0052490234375;-0.011204184964299202;-0.010073672980070114;-0.0011065434664487839
1767708907109821200;-0.043060302734375;0.013885498046875;1.0007781982421875;-0.01671799272298813;-0.013187707401812077;0.0002913498319685459
1767708907119821000;-0.04754638671875;0.015594482421875;0.998626708984375;-0.02244698628783226;-0.016922790557146072;0.002671683207154274
1767708907129821200;-0.05078125;0.01800537109375;0.9983978271484375;-0.022368421778082848;-0.018636267632246017;0.0010096043115481734
1767708907139822000;-0.052703857421875;0.0196990966796875;0.998809814453125;-0.02160835638642311;-0.011686217039823532;-0.002858637133613229
1767708907149822000;-0.0540618896484375;0.0179443359375;0.9981689453125;-0.020592892542481422;-0.0002844255941454321;-0.006433397997170687
1767708907159822000;-0.0535125732421875;0.0172271728515625;0.99957275390625;-0.020048808306455612;0.007978564128279686;-0.008282430469989777
1767708907169822200;-0.0520782470703125;0.0178375244140625;1.0020599365234375;-0.013426059857010841;0.014631407335400581;-0.010208428837358952
1767708907179822000;-0.0460968017578125;0.017303466796875;1.00372314453125;-0.012298477813601494;0.013087039813399315;-0.013492106460034847
1767708907189823200;-0.043853759765625;0.0192108154296875;1.0011444091796875;-0.013529391027987003;0.007428088691085577;-0.009559150785207748
1767708907199823000;-0.049041748046875;0.0194244384765625;0.9982757568359375;-0.013439375907182693;0.0017747305100783706;-0.0017422399250790477
1767708907209823200;-0.0530853271484375;0.0198974609375;0.9970550537109375;-0.014547783881425858;-0.0008609999786131084;0.005588643718510866
1767708907219823000;-0.0539093017578125;0.020355224609375;0.9999847412109375;-0.01871350035071373;-0.003054911969229579;0.01672864705324173
1767708907229824000;-0.0555877685546875;0.0204620361328125;1.000518798828125;-0.016708938404917717;-0.006000634748488665;0.026639066636562347
1767708907239824100;-0.0531768798828125;0.020233154296875;1.0019073486328125;-0.021407287567853928;-0.008498147130012512;0.030719297006726265
1767708907249824000;-0.0494537353515625;0.0201568603515625;1.0018157958984375;-0.019306054338812828;-0.012469985522329807;0.027641747146844864
1767708907259824000;-0.0460968017578125;0.0195465087890625;1.002105712890625;-0.013767477124929428;-0.01679549179971218;0.02010020799934864
1767708907269825300;-0.041839599609375;0.0172271728515625;0.9959564208984375;-0.01098713744431734;-0.02461479790508747;0.010960238985717297
1767708907279825200;-0.0427703857421875;0.01483154296875;0.9919586181640625;-0.013013004325330257;-0.03550766035914421;0.01895984262228012
1767708907289825300;-0.051055908203125;0.0182647705078125;0.992645263671875;-0.014088388532400131;-0.038001976907253265;0.030478812754154205
1767708907299825200;-0.05645751953125;0.0159149169921875;0.992950439453125;-0.01254934724420309;-0.03050917387008667;0.026455575600266457
1767708907309826000;-0.056488037109375;0.015472412109375;0.9950408935546875;-0.008324242196977139;-0.00893836747854948;0.007268565706908703
1767708907319826200;-0.04290771484375;0.012176513671875;1.0029144287109375;-0.006406234111636877;0.00580915343016386;-0.015898538753390312
1767708907329826000;-0.0439605712890625;0.0097198486328125;1.0043487548828125;-0.005820871330797672;0.009039035066962242;-0.021285580471158028
1767708907339826200;-0.0529022216796875;0.01470947265625;1.000946044921875;-0.008402273058891296;0.013529124669730663;-0.018637066707015038
1767708907349827600;-0.0579376220703125;0.016082763671875;0.9986572265625;-0.009195628575980663;0.018205102533102036;-0.013550695963203907
1767708907359827500;-0.060943603515625;0.0186309814453125;0.9958038330078125;-0.01098367478698492;0.02292262576520443;-0.008901615627110004
1767708907369827600;-0.05712890625;0.022216796875;0.9956207275390625;-0.0086028091609478;0.021573735401034355;-0.004225371405482292
1767708907379827500;-0.054107666015625;0.021636962890625;0.998931884765625;-0.00899855513125658;0.023983895778656006;0.004002464935183525
1767708907389828600;-0.04962158203125;0.0229949951171875;1.0005950927734375;-0.00355851580388844;0.025913355872035027;0.0009137305896729231
1767708907399828700;-0.0429534912109375;0.0210113525390625;1.0036163330078125;0.00003941478280466981;0.022161494940519333;-0.0068155620247125626
1767708907409828600;-0.04425048828125;0.0197906494140625;1.006011962890625;0.004009921569377184;0.021225659176707268;-0.005412076134234667
1767708907419828700;-0.05426025390625;0.0198211669921875;1.003509521484375;0.006720487028360367;0.021952437236905098;-0.005419532768428326
1767708907429829600;-0.0546875;0.0192718505859375;1.0024566650390625;0.007514108903706074;0.02219238691031933;-0.008742891252040863
1767708907439829500;-0.0516357421875;0.0169830322265625;1.0013275146484375;0.006306897848844528;0.01864772103726864;-0.012508334591984749
1767708907449829600;-0.0501556396484375;0.015289306640625;1.0008697509765625;0.0041555967181921005;0.01450091227889061;-0.012429239228367805
1767708907459829500;-0.052734375;0.0155487060546875;0.999755859375;0.0018399780383333564;0.016039153560996056;-0.014611699618399143
1767708907469829600;-0.0528564453125;0.0133056640625;0.999237060546875;0.0016929714474827051;0.017909491434693336;-0.016589095816016197
1767708907479830500;-0.0539398193359375;0.01483154296875;0.9989166259765625;-0.000046339002437889576;0.02611921913921833;-0.016829313710331917
1767708907489830400;-0.053558349609375;0.016082763671875;0.9983978271484375;0.002400839701294899;0.028072914108633995;-0.018380871042609215
1767708907499830800;-0.0530548095703125;0.015594482421875;1.0005645751953125;0.004904477391391993;0.03068254515528679;-0.016274310648441315
1767708907509830700;-0.0509033203125;0.018463134765625;1.0006866455078125;0.007248591631650925;0.02791125886142254;-0.01787939853966236
1767708907519831600;-0.0473480224609375;0.0187835693359375;1.0058441162109375;0.009097890928387642;0.01906610280275345;-0.01751747541129589
1767708907529831700;-0.0506439208984375;0.0187835693359375;1.0069732666015625;0.007449127733707428;0.015149392187595367;-0.015981363132596016
1767708907539831600;-0.0537872314453125;0.018646240234375;1.003509521484375;0.009781258180737495;0.013193832710385323;-0.016834907233715057
1767708907549831700;-0.052093505859375;0.0179290771484375;1.0021209716796875;0.007405451964586973;0.013309147208929062;-0.013712350279092789
1767708907559832600;-0.05487060546875;0.0179901123046875;1.0005645751953125;0.005148689262568951;0.013164271600544453;-0.010565558448433876
1767708907569832400;-0.0531463623046875;0.0153656005859375;0.997528076171875;0.0025238776579499245;0.01218609232455492;-0.002481533447280526
1767708907579832600;-0.0533599853515625;0.01776123046875;0.9950103759765625;0.0006697850185446441;0.012015383690595627;0.0017387778498232365
1767708907589832400;-0.053375244140625;0.0192718505859375;0.9934234619140625;-0.0005488775204867125;0.012064119800925255;0.0012695288751274347
1767708907599833600;-0.0498809814453125;0.019683837890625;0.997100830078125;0.0034708979073911905;0.014133129268884659;-0.005765477195382118
1767708907609833700;-0.047027587890625;0.017242431640625;1.0013885498046875;0.005894108209758997;0.02461346797645092;-0.013175456784665585
1767708907619833600;-0.04608154296875;0.012542724609375;1.003814697265625;0.007045126520097256;0.028976790606975555;-0.013688914477825165
1767708907629833700;-0.04620361328125;0.0107269287109375;1.0037841796875;0.008798818103969097;0.02558152563869953;-0.012775982730090618
1767708907639834600;-0.044097900390625;0.0116729736328125;0.99957275390625;0.009376191534101963;0.020229903981089592;-0.015981096774339676
1767708907649834800;-0.0431671142578125;0.01385498046875;0.9997406005859375;0.009765544906258583;0.017619207501411438;-0.019937755540013313
1767708907659834600;-0.0462493896484375;0.014404296875;0.999420166015625;0.010958641767501831;0.02105894684791565;-0.01804478093981743
1767708907669834500;-0.0493621826171875;0.0142822265625;0.9977569580078125;0.010957043617963791;0.02659272775053978;-0.020924989134073257
1767708907679835600;-0.0492706298828125;0.011383056640625;0.99969482421875;0.01233629509806633;0.02256709337234497;-0.026911508291959763
1767708907689835500;-0.0408935546875;0.0107574462890625;1.00372314453125;0.010877414606511593;0.011394334957003593;-0.026022013276815414
1767708907699835600;-0.033355712890625;0.010894775390625;1.0022735595703125;0.004569185432046652;0.007748466916382313;-0.021764684468507767
1767708907709835500;-0.0342559814453125;0.01513671875;0.9988250732421875;0.0025563682429492474;0.011152786202728748;-0.015672435984015465
1767708907719836700;-0.0417327880859375;0.0193328857421875;0.996063232421875;-0.0005842975224368274;0.012943761423230171;-0.01269981637597084
1767708907729836800;-0.0467376708984375;0.0202178955078125;0.9935455322265625;-0.0044349622912704945;0.016347015276551247;-0.007685350254178047
1767708907739836700;-0.051544189453125;0.0195770263671875;0.99273681640625;-0.005898635368794203;0.020086092874407768;-0.008755408227443695
1767708907749836800;-0.0431976318359375;0.015625;0.9960784912109375;-0.008154865354299545;0.022236330434679985;-0.012041216716170311
1767708907759837700;-0.0427703857421875;0.0130462646484375;0.9994049072265625;-0.005841909907758236;0.01961684413254261;-0.009123191237449646
1767708907769837600;-0.0411834716796875;0.0144195556640625;1.001190185546875;-0.0065199509263038635;0.018861571326851845;0.0035689021460711956
1767708907779837700;-0.03948974609375;0.0148162841796875;1.0013275146484375;0.00009454221435589716;0.016031164675951004;0.013497965410351753
1767708907789837600;-0.034393310546875;0.015228271484375;0.999786376953125;0.0011744539951905608;-0.009321862831711769;0.024984978139400482
1767708907799838500;-0.027069091796875;0.0193939208984375;1.0004425048828125;-0.0005803027888759971;-0.024232635274529457;0.03610634058713913
1767708907809838600;-0.033447265625;0.0188140869140625;0.998199462890625;-0.0065654912032186985;-0.02257375232875347;0.04147526994347572
1767708907819838500;-0.037353515625;0.0197296142578125;0.996673583984375;-0.011012171395123005;-0.009268066845834255;0.03133155778050423
1767708907829838600;-0.038299560546875;0.0158233642578125;1.0007476806640625;-0.01702984981238842;0.007171093951910734;0.01973988302052021
1767708907839839700;-0.0433197021484375;0.01226806640625;1.0008392333984375;-0.019996611401438713;0.026704847812652588;0.017365140840411186
1767708907849839600;-0.04425048828125;0.0090484619140625;0.9998626708984375;-0.022362830117344856;0.031327828764915466;0.005558549892157316
1767708907859839700;-0.039825439453125;0.0095367431640625;1.001617431640625;-0.019041335210204124;0.03361841291189194;-0.005585447885096073
1767708907869839600;-0.045989990234375;0.01422119140625;0.9991302490234375;-0.021523667499423027;0.04041746258735657;-0.00758042186498642
1767708907879839700;-0.048797607421875;0.0164642333984375;0.9994964599609375;-0.02105175517499447;0.037281591445207596;-0.003450924064964056
1767708907889840600;-0.0479888916015625;0.0183258056640625;0.9989013671875;-0.0199795663356781;0.04249872267246246;-0.006971090566366911
1767708907899840500;-0.0455169677734375;0.019927978515625;0.9932098388671875;-0.018458636477589607;0.05483102425932884;-0.002662894781678915
1767708907909840600;-0.0488128662109375;0.023529052734375;0.99139404296875;-0.0132111432030797;0.05862149968743324;-0.0007555388147011399
1767708907919840500;-0.040374755859375;0.0279388427734375;0.9923553466796875;-0.008670187555253506;0.058823902159929276;0.002977946773171425
1767708907929841400;-0.0380859375;0.027008056640625;0.99603271484375;-0.00580915343016386;0.06569299101829529;0.010122142732143402
1767708907939841500;-0.0402069091796875;0.0258941650390625;0.99639892578125;-0.004653341136872768;0.07422256469726562;0.016817595809698105
1767708907949841400;-0.037261962890625;0.0261077880859375;0.9945831298828125;0.00021784658019896597;0.08176250755786896;0.019703397527337074
1767708907959841500;-0.0394439697265625;0.0242462158203125;0.9957733154296875;0.001740109408274293;0.09059461206197739;0.02454262785613537
1767708907969842700;-0.0399169921875;0.0236663818359375;0.9993896484375;0.003236006945371628;0.09521253407001495;0.02509097196161747
1767708907979842600;-0.0402984619140625;0.0231475830078125;1.0031585693359375;0.002814162289723754;0.08791440725326538;0.03892635926604271
1767708907989842700;-0.0440826416015625;0.0227813720703125;1.0040130615234375;0.0064863949082791805;0.0851559042930603;0.047932371497154236
1767708907999842600;-0.041290283203125;0.0209503173828125;0.9989471435546875;0.0034434671979397535;0.07856857776641846;0.04844236746430397
1767708908009843700;-0.0359954833984375;0.0205841064453125;0.99993896484375;-0.0002492718631401658;0.08137821406126022;0.04168938845396042
1767708908019843600;-0.038604736328125;0.0214080810546875;1.005218505859375;-0.004954278469085693;0.08300087600946426;0.022818762809038162
1767708908029843500;-0.0352020263671875;0.0160980224609375;1.0122833251953125;-0.00638013519346714;0.0745549276471138;0.005323925521224737
1767708908039843600;-0.0389251708984375;0.015869140625;1.0167999267578125;-0.005228051450103521;0.07605428993701935;0.00430153775960207
1767708908049844500;-0.0389251708984375;0.01397705078125;1.02227783203125;0.0013438310706987977;0.06566183269023895;-0.0034794199746102095
1767708908059844600;-0.031219482421875;0.014129638671875;1.0210723876953125;0.009269132278859615;0.04861387610435486;-0.0075785573571920395
1767708908069844700;-0.0326080322265625;0.0178680419921875;1.0158538818359375;0.013286510482430458;0.04062971845269203;0.0051681301556527615
1767708908079844600;-0.0400543212890625;0.023529052734375;1.0074005126953125;0.01624368503689766;0.03370523452758789;0.007994011044502258
1767708908089845800;-0.037933349609375;0.0243988037109375;1.0037689208984375;0.01847381517291069;0.038303978741168976;0.0059718722477555275
1767708908099845600;-0.04339599609375;0.026611328125;0.9985198974609375;0.024690432474017143;0.05299663916230202;-0.006573214195668697
1767708908109845800;-0.0414886474609375;0.0214996337890625;0.9958953857421875;0.025201493874192238;0.06627782434225082;-0.013858291320502758
1767708908119845600;-0.0399017333984375;0.0170135498046875;0.989410400390625;0.02189677581191063;0.07260416448116302;-0.013876667246222496
1767708908129846500;-0.0361785888671875;0.0142822265625;0.9866790771484375;0.013432984240353107;0.06863418966531754;-0.005918875336647034
1767708908139846700;-0.03265380859375;0.010711669921875;0.99066162109375;0.0026261431630700827;0.06624586880207062;0.0035116442013531923
1767708908149846500;-0.0336151123046875;0.0122222900390625;0.9876556396484375;-0.003320429241284728;0.06880249828100204;0.0056954361498355865
1767708908159846700;-0.02862548828125;0.012237548828125;0.989776611328125;-0.009187639690935612;0.06648235768079758;-0.007844074629247189
1767708908169847600;-0.0197601318359375;0.0118408203125;0.997222900390625;-0.015813050791621208;0.06624773144721985;-0.02111673727631569
1767708908179847700;-0.0170440673828125;0.0143280029296875;1.002899169921875;-0.018030932173132896;0.06667622923851013;-0.021879466250538826
1767708908189847800;-0.0233154296875;0.016021728515625;1.0045166015625;-0.01737925596535206;0.06834976375102997;-0.015308382920920849
1767708908199847700;-0.0251007080078125;0.018646240234375;1.002685546875;-0.014737134799361229;0.07285290211439133;-0.004591822158545256
1767708908209848600;-0.02825927734375;0.0210418701171875;0.9964447021484375;-0.014388793148100376;0.08027806133031845;0.006401706486940384
1767708908219848700;-0.030303955078125;0.0203399658203125;0.994415283203125;-0.013104350306093693;0.08271698653697968;0.012572516687214375
1767708908229848600;-0.0303192138671875;0.0201568603515625;0.9959869384765625;-0.011657188646495342;0.0917365774512291;0.015629293397068977
1767708908239848700;-0.02459716796875;0.0191802978515625;1.0009613037109375;-0.0035020567011088133;0.09499628841876984;0.01528920792043209
1767708908249849600;-0.0112762451171875;0.021270751953125;0.99969482421875;0.0011941614793613553;0.10542389750480652;0.0076211681589484215
1767708908259849500;-0.0094757080078125;0.020599365234375;0.998992919921875;0.005046423990279436;0.12221325933933258;-0.0005645901546813548
1767708908269849600;-0.01507568359375;0.01763916015625;0.9971923828125;0.0067812069319188595;0.14362747967243195;-0.0018647453980520368
1767708908279849500;-0.01806640625;0.0178070068359375;0.9974822998046875;0.008236091583967209;0.14533668756484985;0.0016732640797272325
1767708908289850600;-0.01153564453125;0.0167236328125;1.00201416015625;0.01095597818493843;0.13204538822174072;0.00971521157771349
1767708908299850800;0.0007781982421875;0.01458740234375;0.999114990234375;0.00860201008617878;0.11303947120904922;0.020063189789652824
1767708908309850600;0.0127716064453125;0.016448974609375;1.0023345947265625;0.010772486217319965;0.10942183434963226;0.017044497653841972
1767708908319850800;0.020782470703125;0.014862060546875;1.0080108642578125;0.0032352081034332514;0.10073087364435196;0.00950721837580204
1767708908329851600;0.017547607421875;0.01409912109375;1.0108795166015625;-0.002064748667180538;0.09137359261512756;0.008412392809987068
1767708908339851500;0.0056915283203125;0.01708984375;1.0112762451171875;-0.00660384027287364;0.08403844386339188;0.008825182914733887
1767708908349851100;-0.0006561279296875;0.016845703125;1.010284423828125;-0.009911753237247467;0.07420764863491058;0.0049582733772695065
1767708908359851000;-0.0013427734375;0.015289306640625;1.0103759765625;-0.012506204657256603;0.07911559194326401;0.0012865731259807944
1767708908369852200;-0.0058746337890625;0.013763427734375;1.009674072265625;-0.01136690378189087;0.0830666571855545;0.005847502965480089
1767708908379852000;-0.0060882568359375;0.0155487060546875;1.00836181640625;-0.009843575768172741;0.07291149348020554;0.005067463032901287
1767708908389852200;-0.0042572021484375;0.0177459716796875;1.005218505859375;-0.0035390746779739857;0.07312934100627899;0.011956794187426567
1767708908399852000;-0.0059661865234375;0.014801025390625;1.000885009765625;-0.0015361113473773003;0.0726262629032135;0.01877501979470253
1767708908409853000;0.001861572265625;0.016448974609375;0.996551513671875;-0.004332962911576033;0.06413770467042923;0.012664396315813065
1767708908419853000;0.004852294921875;0.01397705078125;0.9914398193359375;-0.01125398650765419;0.06363117694854736;0.0023696806747466326
1767708908429853000;0.0066375732421875;0.0121917724609375;0.993743896484375;-0.018989935517311096;0.06283196061849594;-0.006566556170582771
1767708908439853000;0.00750732421875;0.0131072998046875;0.998504638671875;-0.023239275440573692;0.06071474775671959;-0.011977567337453365
1767708908449854200;0.006500244140625;0.0130615234375;1.0042724609375;-0.03104553371667862;0.06101062148809433;-0.01432221382856369
1767708908459854000;0.004119873046875;0.012664794921875;1.0067596435546875;-0.03151505067944527;0.06558433920145035;-0.022946061566472054
1767708908469854200;0.0073089599609375;0.013946533203125;1.0092926025390625;-0.029404759407043457;0.06435928493738174;-0.03230494260787964
1767708908479854000;0.007354736328125;0.0142364501953125;1.008392333984375;-0.0275016650557518;0.05542410910129547;-0.035772643983364105
1767708908489855000;0.0019683837890625;0.01544189453125;1.0017852783203125;-0.02654186263680458;0.04908791929483414;-0.033968087285757065
1767708908499855000;-0.00262451171875;0.01422119140625;0.999786376953125;-0.018966766074299812;0.05439399927854538;-0.034027475863695145
1767708908509855000;-0.0033416748046875;0.0135345458984375;0.994964599609375;-0.015200524590909481;0.060320064425468445;-0.03599821403622627
1767708908519855000;0.0025787353515625;0.0147247314453125;0.9925994873046875;-0.012949087657034397;0.06205644831061363;-0.04886847361922264
1767708908529855000;0.0068817138671875;0.0201416015625;1.0007476806640625;-0.008732771500945091;0.06376193463802338;-0.057912036776542664
1767708908539856000;0.005859375;0.01947021484375;1.005828857421875;-0.00746271014213562;0.061523813754320145;-0.059973057359457016
1767708908549856000;0.002716064453125;0.0208740234375;1.008026123046875;-0.008647283539175987;0.05741828680038452;-0.04939284920692444
1767708908559856000;0.0019989013671875;0.022369384765625;1.0062255859375;-0.006131129339337349;0.04863065108656883;-0.03723445534706116
1767708908569856300;0.0065155029296875;0.02325439453125;1.003875732421875;-0.005164402071386576;0.03804032504558563;-0.030374683439731598
1767708908579857200;0.006561279296875;0.0227508544921875;1.000457763671875;-0.005459479987621307;0.029817815870046616;-0.020606208592653275
1767708908589857000;0.0052947998046875;0.02313232421875;0.997772216796875;-0.0035270904190838337;0.020054934546351433;-0.013303288258612156
1767708908599857200;0.007049560546875;0.022491455078125;1.0007781982421875;-0.00029587719473056495;0.02263500541448593;-0.003187004942446947
1767708908609857000;0.004241943359375;0.021881103515625;1.0053558349609375;-0.00030173614504747093;0.026279008015990257;-0.005892776418477297
1767708908619858000;0.0070953369140625;0.02105712890625;1.009765625;0.0029909962322562933;0.028610339388251305;-0.017369668930768967
1767708908629858000;0.012908935546875;0.0191802978515625;1.011566162109375;0.0033872744534164667;0.024703215807676315;-0.019543606787919998
1767708908639858000;0.0095977783203125;0.0172576904296875;1.0095977783203125;0.004355067387223244;0.020113257691264153;-0.015459916554391384
1767708908649858000;0.0098114013671875;0.017364501953125;1.00634765625;0.005161472596228123;0.011843076907098293;-0.010095776990056038
1767708908659859200;0.0092620849609375;0.0153656005859375;1.002655029296875;0.0070491209626197815;0.009329586289823055;-0.006365221459418535
1767708908669859000;0.00897216796875;0.017974853515625;1.0016632080078125;0.002645584288984537;0.012665728107094765;-0.007033142261207104
1767708908679859200;0.0147705078125;0.017120361328125;1.002899169921875;0.001847434788942337;0.01786661520600319;-0.01805010624229908
1767708908689859000;0.022186279296875;0.0150146484375;1.004302978515625;0.0014263890916481614;0.024176176637411118;-0.03194648027420044
1767708908699860000;0.01824951171875;0.016265869140625;1.00299072265625;-0.0007986819837242365;0.023359118029475212;-0.030012227594852448
1767708908709860000;0.0060577392578125;0.0187530517578125;0.9991607666015625;0.004225371405482292;0.02479243092238903;-0.02388855442404747
1767708908719860000;0.000701904296875;0.0197601318359375;0.9997100830078125;0.007544735446572304;0.02298547700047493;-0.018987540155649185
1767708908729860000;0.0051116943359375;0.017242431640625;1.0003509521484375;0.014758972451090813;0.015338475815951824;-0.01672731526196003
1767708908739861000;0.0122222900390625;0.0174560546875;1.0004730224609375;0.01068007480353117;0.010578874498605728;-0.013185310177505016
1767708908749861000;0.013702392578125;0.0165557861328125;0.99810791015625;0.008920790627598763;0.004037352278828621;-0.0014594122767448425
1767708908759861000;0.0132293701171875;0.021087646484375;0.9988250732421875;0.0106505136936903;-0.0023731428664177656;0.006600644905120134
1767708908769860900;0.0186309814453125;0.021240234375;1.00335693359375;0.009384979493916035;-0.005471464246511459;0.001614940818399191
1767708908779862300;0.020751953125;0.020172119140625;1.000762939453125;0.00678227236494422;-0.0027955202385783195;-0.006491188891232014
1767708908789862100;0.016326904296875;0.01898193359375;0.997161865234375;0.004704740364104509;-0.0009568737586960196;-0.0011976235546171665
1767708908799862300;0.00885009765625;0.0177154541015625;0.99554443359375;0.0009882990270853043;0.0037209687288850546;0.007419033907353878
1767708908809862100;0.0032196044921875;0.0161895751953125;0.9903564453125;0.0021654162555933;0.008547415025532246;0.00797110702842474
1767708908819863000;0.005889892578125;0.01666259765625;0.986968994140625;-0.0011946940794587135;0.013852432370185852;0.0065404572524130344
1767708908829863200;0.0153656005859375;0.0153656005859375;0.9907684326171875;-0.0010258496040478349;0.017466075718402863;-0.002719353651627898
1767708908839863000;0.018096923828125;0.0139312744140625;0.9961090087890625;-0.0030597057193517685;0.022052837535738945;-0.00458782771602273
1767708908849863200;0.01190185546875;0.014862060546875;0.9997100830078125;-0.002326537622138858;0.017583254724740982;0.006704774219542742
1767708908859864000;0.0074615478515625;0.0180816650390625;1.00390625;-0.0020032296888530254;0.012346947565674782;0.011729360558092594
1767708908869864000;0.00640869140625;0.01800537109375;1.00531005859375;-0.0003701793903019279;0.009498430415987968;0.01182177197188139
1767708908879864000;0.0052337646484375;0.019775390625;1.0055389404296875;0.0019859191961586475;0.006440322380512953;0.012229502201080322
1767708908889864000;0.007568359375;0.0184173583984375;1.006500244140625;0.0037348170299082994;0.006215285509824753;0.008904545567929745
1767708908899865000;0.0061798095703125;0.0146026611328125;1.0072479248046875;0.002766757970675826;0.005215268116444349;0.010601511225104332
1767708908909865200;0.0033111572265625;0.013275146484375;1.0071563720703125;0.00012144014181103557;-0.01275494322180748;0.024225978180766106
1767708908919865000;0.0069580078125;0.013092041015625;1.0088958740234375;-0.0026937874499708414;-0.024336231872439384;0.023971378803253174
1767708908929865200;0.01116943359375;0.01409912109375;1.005035400390625;-0.0007060039788484573;-0.022943399846553802;0.017941715195775032
1767708908939866000;0.00750732421875;0.01715087890625;1.0026702880859375;0.0028573055751621723;-0.01888633891940117;0.010178867727518082
1767708908949866000;0.0085906982421875;0.017913818359375;1.005859375;0.008709069341421127;-0.013286510482430458;-0.0012474246323108673
1767708908959866000;0.0045318603515625;0.01739501953125;1.002899169921875;0.010971425101161003;-0.0003581951605156064;-0.007388141471892595
1767708908969866000;-0.00244140625;0.0175628662109375;1.0017242431640625;0.012588229961693287;0.010041449218988419;-0.006611031014472246
1767708908979867000;-0.003692626953125;0.019500732421875;1.002655029296875;0.014637266285717487;0.009870474226772785;0.0002884203568100929
1767708908989867000;-0.003204345703125;0.0180206298828125;1.0001678466796875;0.013881194405257702;0.009572199545800686;0.010427340865135193
1767708908999867000;-0.0049896240234375;0.01995849609375;0.99725341796875;0.015165637247264385;0.005333246197551489;0.013516074977815151
1767708909009868000;0.001312255859375;0.0217742919921875;0.9932098388671875;0.012775982730090618;0.002049568807706237;0.016762735322117805
1767708909019868200;0.0060577392578125;0.0207672119140625;0.994964599609375;0.01263776421546936;0.002186188939958811;0.018486332148313522
1767708909029868000;0.00262451171875;0.020599365234375;0.998504638671875;0.010718690231442451;-0.0049558766186237335;0.02244299091398716
1767708909039868200;0.0048065185546875;0.0209197998046875;0.9998931884765625;0.009327189065515995;-0.012900352478027344;0.02093404345214367
1767708909049869000;0.0078125;0.018157958984375;0.99908447265625;0.010637464001774788;-0.012172776274383068;0.01378319039940834
1767708909059869000;0.0072174072265625;0.015045166015625;0.998382568359375;0.010002566501498222;-0.01552116870880127;0.012566924095153809
1767708909069869000;0.0047149658203125;0.0152740478515625;1.0036468505859375;0.009777262806892395;-0.02154950052499771;0.006560697220265865
1767708909079869000;0.0096588134765625;0.0124664306640625;1.0033416748046875;0.007134342100471258;-0.024880049750208855;-0.0023521038237959146
1767708909089870000;0.00579833984375;0.0131378173828125;1.0021820068359375;0.0028783443849533796;-0.02544890157878399;-0.0073226275853812695
1767708909099870000;0.001953125;0.0133514404296875;1.003021240234375;0.00023675501870457083;-0.02352902851998806;-0.0019353191601112485
1767708909109870000;-0.00286865234375;0.0167236328125;1.002349853515625;0.001490571303293109;-0.024527447298169136;0.0006301039247773588
1767708909119870000;-0.0015411376953125;0.0192413330078125;0.999969482421875;0.00415346585214138;-0.01685168407857418;-0.012989834882318974
1767708909129871000;0.0043792724609375;0.0163116455078125;0.9990997314453125;0.004502606578171253;-0.01188169326633215;-0.02315911464393139
1767708909139871200;0.0041351318359375;0.014862060546875;1.00140380859375;0.0054632085375487804;-0.009272860363125801;-0.028545623645186424
1767708909149871000;0.0027313232421875;0.0146484375;1.0018157958984375;0.004744155332446098;-0.004257329273968935;-0.030991205945611
1767708909159871000;0.0031280517578125;0.0154876708984375;1.0027008056640625;0.003103115363046527;0.0008029430755414069;-0.027595940977334976
1767708909169872100;0.0023651123046875;0.01788330078125;1.00396728515625;0.0014106763992458582;-0.0035803536884486675;-0.019650399684906006
1767708909179872000;0.0066070556640625;0.01922607421875;1.0062255859375;0.002231196267530322;-0.010786334984004498;-0.011871573515236378
1767708909189872000;0.00518798828125;0.021148681640625;1.00433349609375;0.0028783443849533796;-0.01817367784678936;-0.0036575854755938053
1767708909199872000;0.0036468505859375;0.024078369140625;1.0059051513671875;0.005899700801819563;-0.020909009501338005;0.0070616379380226135
1767708909209873000;0.00518798828125;0.02294921875;1.005859375;0.00863130483776331;-0.02395060658454895;0.016151273623108864
1767708909219873000;0.005767822265625;0.0204010009765625;1.0089263916015625;0.008816927671432495;-0.030705181881785393;0.01372433453798294
1767708909229873200;0.0094451904296875;0.014862060546875;1.007537841796875;0.005297826137393713;-0.033940389752388;0.002189118415117264
1767708909239873300;0.00714111328125;0.0121307373046875;1.0030975341796875;0.0038211036007851362;-0.0323888324201107;-0.007837682962417603
1767708909249874200;0.005401611328125;0.012054443359375;0.9975128173828125;0.0023555660154670477;-0.038486938923597336;-0.007607319392263889
1767708909259874000;0.00970458984375;0.0118865966796875;0.9956512451171875;0.0001448759576305747;-0.044252149760723114;-0.009399360977113247
1767708909269874200;0.0098114013671875;0.0116424560546875;0.9952545166015625;-0.004850947763770819;-0.04441620036959648;-0.006841660942882299
1767708909279874000;0.00335693359375;0.01348876953125;0.9924468994140625;-0.005622199270874262;-0.04640717804431915;0.0008362325606867671
1767708909289875000;0.0033111572265625;0.0145416259765625;0.9940643310546875;-0.005172924138605595;-0.05162404477596283;-0.004222175572067499
1767708909299875000;0.0053863525390625;0.0139007568359375;0.9969024658203125;-0.007202252745628357;-0.04544204846024513;-0.005856025032699108
1767708909309875000;0.0043487548828125;0.0167999267578125;0.9965667724609375;-0.007208644412457943;-0.03647838160395622;-0.014488928020000458
1767708909319875000;0.004791259765625;0.01312255859375;1.000946044921875;-0.00570049649104476;-0.025561818853020668;-0.030162429437041283
1767708909329876000;0.006011962890625;0.0140380859375;1.002166748046875;-0.003962517250329256;-0.013981595635414124;-0.04276876896619797
1767708909339876000;0.005767822265625;0.0127410888671875;1.000152587890625;-0.005590774118900299;-0.0011286477092653513;-0.043483562767505646
1767708909349875700;-0.0016326904296875;0.013397216796875;1.002227783203125;-0.0039292280562222;0.013891580514609814;-0.043419912457466125
1767708909359875600;-0.004119873046875;0.0152435302734375;1.0014801025390625;-0.007976699620485306;0.02183445915579796;-0.033965155482292175
1767708909369876700;-0.005950927734375;0.0179443359375;0.9982757568359375;-0.007764712441712618;0.01455763727426529;-0.0227990560233593
1767708909379876600;-0.0041046142578125;0.0189056396484375;0.9969482421875;-0.012269449420273304;0.004547613672912121;-0.017139306291937828
1767708909389876700;-0.0023040771484375;0.01824951171875;1.000030517578125;-0.01703091524541378;0.0032684975303709507;-0.02003362961113453
1767708909399876900;-0.0029296875;0.0197296142578125;0.998687744140625;-0.017257817089557648;0.0070190271362662315;-0.014986938796937466
1767708909409877800;-0.0030517578125;0.0203399658203125;0.9985504150390625;-0.015166702680289745;0.005190767347812653;-0.013155216351151466
1767708909419878000;0.0011138916015625;0.0207977294921875;1.0034027099609375;-0.013221795670688152;0.003722566645592451;-0.011167965829372406
1767708909429877800;-0.0024871826171875;0.018890380859375;1.0016021728515625;-0.009097091853618622;-0.005046956706792116;-0.001344363670796156
1767708909439877600;-0.0026702880859375;0.01776123046875;1.0040130615234375;-0.004555603489279747;-0.020558005198836327;0.0038099181838333607
1767708909449878800;0.0004119873046875;0.016937255859375;1.003631591796875;-0.0023933828342705965;-0.02118038572371006;0.002808303339406848
1767708909459878700;-0.0001373291015625;0.016387939453125;0.9989776611328125;-0.0011486213188618422;-0.018871426582336426;0.0002956108655780554
1767708909469878800;-0.0010833740234375;0.017242431640625;0.9998626708984375;-0.00014674017438665032;-0.019755061715841293;-0.0013792511308565736
1767708909479878700;-0.000579833984375;0.0166168212890625;1.0019989013671875;0.0016759273130446672;-0.01793106272816658;-0.0005739112384617329
1767708909489879800;-0.0028076171875;0.0163421630859375;1.000244140625;0.0038490667939186096;-0.012819658033549786;-0.0010748518398031592
1767708909499880000;-0.0085601806640625;0.0142364501953125;1.0032958984375;0.0051894355565309525;-0.015168832615017891;0.0013611416798084974
1767708909509879800;-0.0102386474609375;0.010833740234375;1.0069427490234375;0.004734567832201719;-0.021820610389113426;0.006691724993288517
1767708909519880000;-0.0043792724609375;0.0102081298828125;1.008209228515625;0.005155880004167557;-0.0241391584277153;0.007260309532284737
1767708909529880800;-0.0019683837890625;0.01104736328125;1.007568359375;0.0024767396971583366;-0.02341105043888092;0.0005512743373401463
1767708909539880700;0.0005340576171875;0.0147705078125;1.0063934326171875;-0.0025150892324745655;-0.022102639079093933;-0.0020003002136945724
1767708909549880800;-0.0041351318359375;0.016448974609375;1.0040283203125;-0.004165982827544212;-0.02250690758228302;0.0018407768802717328
1767708909559880700;-0.01092529296875;0.016082763671875;1.0025634765625;-0.0035979305393993855;-0.024838769808411598;0.0010700580896809697
1767708909569881600;-0.01104736328125;0.01580810546875;1.00543212890625;-0.0006122607155703008;-0.024729048833251;-0.002752643311396241
1767708909579881700;-0.01043701171875;0.0163726806640625;1.0059967041015625;0.0007515440811403096;-0.01798805594444275;0.0002990729990415275
1767708909589881600;-0.0099334716796875;0.0160675048828125;1.0054168701171875;0.005209143273532391;-0.018435467034578323;0.0005185174522921443
1767708909599881700;-0.0052642822265625;0.0156707763671875;1.00323486328125;0.0046365633606910706;-0.021378258243203163;0.002603239845484495
1767708909609883000;-0.0040740966796875;0.016876220703125;0.9989166259765625;0.007690676487982273;-0.01980353146791458;0.0015190670965239406
1767708909619882800;-0.00311279296875;0.015899658203125;0.9965362548828125;0.005147890187799931;-0.016077237203717232;-0.0005989448982290924
1767708909629883000;-0.002655029296875;0.0172271728515625;0.99224853515625;0.0046967510133981705;-0.01401461847126484;-0.003371029393747449
1767708909639882800;-0.0013580322265625;0.016845703125;0.9916229248046875;0.004276237916201353;-0.009397496469318867;-0.00749067310243845
1767708909649883600;-0.000946044921875;0.016357421875;0.99456787109375;0.006825948134064674;-0.008232097141444683;-0.008801480755209923
1767708909659883800;-0.0027008056640625;0.0176849365234375;0.9989013671875;0.0054666707292199135;-0.009692841209471226;-0.006902647204697132
1767708909669883600;-0.0027313232421875;0.017425537109375;1.0012054443359375;0.004633633885532618;-0.010232397355139256;-0.010509898886084557
1767708909679883800;0.0005035400390625;0.0144500732421875;1.00244140625;0.0020639498252421618;-0.006881874520331621;-0.01558188907802105
1767708909689884700;-0.0035400390625;0.0151824951171875;1.0012969970703125;-0.0028240159153938293;-0.005813414230942726;-0.01811056025326252
1767708909699884500;-0.0030975341796875;0.0159912109375;1.00091552734375;-0.0025092302821576595;-0.0014146711910143495;-0.022047245875000954
1767708909709884700;-0.00396728515625;0.0137176513671875;1.0030059814453125;-0.0007041397620923817;-0.0029736857395619154;-0.020773189142346382
1767708909719884500;-0.00738525390625;0.014617919921875;1.0010833740234375;-0.0009361011325381696;-0.00352868833579123;-0.014749119058251381
1767708909729885700;-0.0080718994140625;0.017181396484375;0.99993896484375;0.0027081684675067663;-0.00407623453065753;-0.013132313266396523
1767708909739885800;-0.0045166015625;0.01641845703125;1.0015106201171875;0.003053047927096486;-0.00920574925839901;-0.01312032900750637
1767708909749885700;-0.006591796875;0.0182037353515625;1.0003662109375;0.00011211907985853031;-0.003954794257879257;-0.013765080831944942
1767708909759885800;-0.010040283203125;0.018463134765625;0.997589111328125;-0.0017771273851394653;0.010352506302297115;-0.02015426941215992
1767708909769886700;-0.00946044921875;0.01861572265625;1.000091552734375;-0.004412857815623283;0.021410483866930008;-0.02965669520199299
1767708909779886800;-0.0070343017578125;0.018310546875;0.9996337890625;-0.006707703694701195;0.024396685883402824;-0.02544250898063183
1767708909789886700;-0.0101318359375;0.0189971923828125;0.9971771240234375;-0.008521316573023796;0.029978938400745392;-0.018514296039938927
1767708909799886600;-0.0084381103515625;0.021942138671875;0.9999847412109375;-0.009488577023148537;0.028623389080166817;-0.015751799568533897
1767708909809887700;-0.0017242431640625;0.022216796875;1.0015411376953125;-0.009516539983451366;0.02147866040468216;-0.021984394639730453
1767708909819887600;0.004608154296875;0.01971435546875;1.0020904541015625;-0.010732538998126984;0.014794126152992249;-0.026993799954652786
1767708909829887700;0.0040130615234375;0.01922607421875;1.0032196044921875;-0.012339490465819836;0.0033726270776242018;-0.03074965626001358
1767708909839889000;-0.0016021728515625;0.0170440673828125;1.0050811767578125;-0.014268950559198856;0.0043960800394415855;-0.028926189988851547
1767708909849888800;-0.00909423828125;0.0186614990234375;1.000946044921875;-0.016259929165244102;0.004378503188490868;-0.02467738278210163
1767708909859889000;-0.00836181640625;0.017974853515625;1.0005950927734375;-0.01966957561671734;0.0023217438720166683;-0.02544836886227131
1767708909869888800;-0.00469970703125;0.015838623046875;1.00177001953125;-0.02149144373834133;0.010313889943063259;-0.02684146724641323
1767708909879889700;-0.010284423828125;0.0149993896484375;0.996978759765625;-0.02159850299358368;0.014695323072373867;-0.029281189665198326
1767708909889889800;-0.0096588134765625;0.0133056640625;0.99774169921875;-0.01852414943277836;0.016349678859114647;-0.026869431138038635
1767708909899889700;-0.0090484619140625;0.010589599609375;0.999542236328125;-0.014781609177589417;0.02082059346139431;-0.020073842257261276
1767708909909889800;-0.00640869140625;0.0108795166015625;0.99951171875;-0.01575659215450287;0.01673237420618534;-0.01624288596212864
1767708909919890700;-0.0027618408203125;0.0127105712890625;1.0015106201171875;-0.01506816502660513;0.013941914774477482;-0.013529923744499683
1767708909929890600;-0.003662109375;0.0141448974609375;1.003387451171875;-0.014027934521436691;0.011234811507165432;-0.011576761491596699
1767708909939890700;-0.005340576171875;0.015899658203125;1.0012664794921875;-0.013108078390359879;0.012737899087369442;-0.012346947565674782
1767708909949890600;-0.0081329345703125;0.0172882080078125;0.9992523193359375;-0.01341940276324749;0.022107433527708054;-0.016042616218328476
1767708909959891700;-0.010406494140625;0.0177459716796875;0.996185302734375;-0.011229218915104866;0.038957785815000534;-0.01703570783138275
1767708909969891800;-0.007720947265625;0.01727294921875;0.9966583251953125;-0.010492055676877499;0.05072496086359024;-0.018250109627842903
1767708909979891700;-0.0030975341796875;0.0171356201171875;1.0031890869140625;-0.008919725194573402;0.05101098492741585;-0.022413164377212524
1767708909989891800;0.0002593994140625;0.018341064453125;1.0113677978515625;-0.006988401059061289;0.040887244045734406;-0.02173032984137535
1767708909999892700;-0.0043182373046875;0.018218994140625;1.010101318359375;-0.008189752697944641;0.038422755897045135;-0.015536881983280182
1767708910009892600;-0.00946044921875;0.0219879150390625;1.004608154296875;-0.0060086240991950035;0.0410504974424839;-0.006678941659629345
1767708910019892700;-0.0104217529296875;0.0234527587890625;1.00091552734375;-0.002959570847451687;0.03771568834781647;-0.01450011320412159
1767708910029892600;-0.0021209716796875;0.02252197265625;0.99981689453125;-0.00048363005043938756;0.023988157510757446;-0.024233967065811157
1767708910039893500;0.0035400390625;0.0165252685546875;1.004669189453125;-0.0037409423384815454;0.00993119366466999;-0.02527925744652748
1767708910049893600;0.0078582763671875;0.0160675048828125;1.0040435791015625;-0.00407516909763217;0.005694104824215174;-0.016822656616568565
1767708910059893800;0.00311279296875;0.018035888671875;0.9999542236328125;-0.003855458227917552;0.0010250506456941366;-0.014099041000008583
1767708910069894000;0.0041656494140625;0.0188446044921875;0.9978179931640625;-0.006074137985706329;-0.00555082643404603;-0.01390090212225914
1767708910079894800;0.0006561279296875;0.0206298828125;0.9952850341796875;-0.006352171767503023;-0.0004346278728917241;-0.015528359450399876
1767708910089894700;-0.006195068359375;0.0199737548828125;0.9976348876953125;-0.006371879018843174;0.00839721318334341;-0.011019893921911716
1767708910099894800;-0.010711669921875;0.019256591796875;1.003143310546875;-0.0055004931055009365;0.010961304418742657;-0.0007603325066156685
1767708910109894700;-0.00537109375;0.0178375244140625;1.008056640625;-0.00589570589363575;0.00746004655957222;-0.0001371527905575931
1767708910119895800;0.00811767578125;0.015899658203125;1.0098114013671875;-0.008413191884756088;-0.002112419344484806;-0.005876797717064619
1767708910129895700;0.0135650634765625;0.015350341796875;1.00640869140625;-0.012254003435373306;-0.002526274649426341;-0.01552356593310833
1767708910139895600;0.00811767578125;0.015380859375;1.0006561279296875;-0.01432301290333271;-0.004526042379438877;-0.02231489308178425
1767708910149895700;0.0031890869140625;0.01934814453125;1.0008392333984375;-0.013796239160001278;-0.007771902717649937;-0.026613501831889153
1767708910159896600;-0.0015411376953125;0.01776123046875;1.002655029296875;-0.016804546117782593;-0.014971492812037468;-0.02274765633046627
1767708910169897000;-0.0023651123046875;0.01678466796875;1.001739501953125;-0.012793026864528656;-0.012616192921996117;-0.016099873930215836
1767708910179896800;-0.0091400146484375;0.018646240234375;1.0020294189453125;-0.017421867698431015;-0.0043902210891246796;-0.016538230702280998
1767708910189897700;-0.0079345703125;0.0174560546875;0.9954071044921875;-0.013456686399877071;0.003923102747648954;-0.013655091635882854
1767708910199897900;-0.008056640625;0.020904541015625;0.99700927734375;-0.011749600060284138;0.01077008992433548;-0.01618562825024128
1767708910209897700;-0.0047454833984375;0.0212860107421875;0.997161865234375;-0.011489409022033215;0.016983777284622192;-0.020927386358380318
1767708910219897900;-0.0028076171875;0.0192413330078125;0.993896484375;-0.01278929878026247;0.014721155166625977;-0.017173660919070244
1767708910229898800;-0.005096435546875;0.0228118896484375;0.993438720703125;-0.010276872664690018;0.011592740193009377;-0.00526666734367609
1767708910239898600;-0.003753662109375;0.02264404296875;0.9947662353515625;-0.009550095535814762;0.01011202298104763;0.004221110139042139
1767708910249898800;-0.0014495849609375;0.022918701171875;1.0004730224609375;-0.008933307603001595;0.009644105099141598;0.0057737333700060844
1767708910259898600;0.0011138916015625;0.0184478759765625;1.006072998046875;-0.008557002991437912;0.004933239426463842;0.003923901356756687
1767708910269899800;-0.000823974609375;0.0187835693359375;1.006134033203125;-0.008517853915691376;0.0018168084789067507;0.007309312000870705
1767708910279900000;-0.00146484375;0.017486572265625;1.000885009765625;-0.011571701616048813;0.0021971079986542463;0.000990962260402739
1767708910289899800;0.0047454833984375;0.017333984375;1.001312255859375;-0.011001517996191978;-0.004712729714810848;-0.009464608505368233
1767708910299900000;0.0084686279296875;0.013427734375;1.0081787109375;-0.01284815464168787;-0.00666429428383708;-0.014372281730175018
1767708910309900800;0.0068817138671875;0.0103607177734375;1.0041961669921875;-0.014145912602543831;-0.0006599313346669078;-0.015112906694412231
1767708910319900700;0.0025482177734375;0.0117034912109375;0.9985809326171875;-0.013465208932757378;0.0016128103015944362;-0.014874286949634552
1767708910329900800;0.0005340576171875;0.0131988525390625;1.0000457763671875;-0.016881512477993965;-0.0010974886827170849;-0.013785586692392826
1767708910339900700;-0.0023345947265625;0.0146636962890625;0.9980316162109375;-0.01960699073970318;0.0020548950415104628;-0.012606872245669365
1767708910349902300;-0.004730224609375;0.0183258056640625;0.997589111328125;-0.017942780628800392;0.0011060107499361038;-0.012031096033751965
1767708910359902500;-0.00244140625;0.0198516845703125;1.00018310546875;-0.021215273067355156;-0.004822984803467989;-0.014719557948410511
1767708910369902300;0.002960205078125;0.0182952880859375;1.0004119873046875;-0.024219851940870285;-0.012074505910277367;-0.0190820824354887
1767708910379902500;0.0009765625;0.0191192626953125;1.00042724609375;-0.022639798000454903;-0.011695804074406624;-0.01581464894115925
1767708910389903600;-0.004486083984375;0.0184478759765625;1.0003814697265625;-0.02383582480251789;-0.01332672405987978;-0.012035624124109745
1767708910399903500;-0.0030517578125;0.018951416015625;1.0022125244140625;-0.023300262168049812;-0.006963899824768305;-0.010863566771149635
1767708910409903600;-0.002349853515625;0.02069091796875;1.001251220703125;-0.01961924135684967;-0.003251453395932913;-0.014252172783017159
1767708910419903500;-0.00390625;0.019805908203125;1.0041046142578125;-0.01739283837378025;0.0009733853512443602;-0.013654293492436409
1767708910429904400;-0.00787353515625;0.02069091796875;1.0014495849609375;-0.014343253336846828;0.0005763080553151667;-0.008115450851619244
1767708910439904500;-0.007537841796875;0.0242767333984375;1.002044677734375;-0.010353571735322475;0.002516420790925622;-0.0028242822736501694
1767708910449904400;-0.0034637451171875;0.0245361328125;1.0033111572265625;-0.008919725194573402;-0.0022069616243243217;-0.0009480853332206607
1767708910459904500;0.0010833740234375;0.0233154296875;1.00433349609375;-0.011296330019831657;0.00039015308720991015;-0.0023872575256973505
1767708910469905400;-0.0006256103515625;0.0194091796875;1.002410888671875;-0.012136823497712612;0.002910302486270666;-0.003638144349679351
1767708910479905300;-0.002166748046875;0.0190277099609375;1.0018463134765625;-0.016040751710534096;0.0005099953268654644;-0.00046099317842163146
1767708910489905700;-0.0032958984375;0.01739501953125;1.0010528564453125;-0.017061540856957436;-0.0009675264009274542;0.00027057717670686543
1767708910499906600;-0.0002899169921875;0.0181884765625;0.9997100830078125;-0.01666739396750927;0.0008237157016992569;-0.004854676313698292
1767708910509906400;0.001251220703125;0.01885986328125;0.998046875;-0.015267369337379932;-0.0026314693968743086;-0.011113104410469532
1767708910519906600;0.0034332275390625;0.018951416015625;0.9994049072265625;-0.014575746841728687;-0.005570800509303808;-0.012634036131203175
1767708910529906400;0.001220703125;0.02020263671875;1.000274658203125;-0.01263989508152008;-0.004780374001711607;-0.00857484620064497
1767708910539907300;-0.0000762939453125;0.023651123046875;0.999298095703125;-0.011419101618230343;-0.007979363203048706;-0.008895756676793098
1767708910549907500;0.001434326171875;0.025543212890625;1.0030364990234375;-0.011070228181779385;-0.0038277613930404186;-0.004987035412341356
1767708910559907300;0.001434326171875;0.0264434814453125;1.00469970703125;-0.008009190671145916;-0.0036456012167036533;-0.004800347611308098
1767708910569907500;0.005828857421875;0.0260467529296875;1.0038909912109375;-0.011451326310634613;-0.009676329791545868;-0.0027134947013109922
1767708910579908400;0.0000152587890625;0.026031494140625;1.0008544921875;-0.011070494540035725;-0.004514058120548725;-0.001555818715132773
1767708910589908500;-0.00274658203125;0.0263671875;0.998809814453125;-0.012655074708163738;0.0024770060554146767;-0.007473895326256752
1767708910599908600;-0.0011444091796875;0.0244903564453125;0.9991302490234375;-0.01489239651709795;0.006281065288931131;-0.011289671994745731
1767708910609908500;-0.005523681640625;0.02557373046875;1.00091552734375;-0.01414431445300579;0.010905911214649677;-0.0012737899087369442
1767708910619909600;-0.012115478515625;0.027862548828125;0.999969482421875;-0.0145299406722188;0.014212758280336857;0.01218609232455492
1767708910629909500;-0.0134429931640625;0.0291290283203125;0.9963531494140625;-0.0143520412966609;0.019356653094291687;0.021748971194028854
1767708910639909600;-0.0072021484375;0.0282440185546875;0.9962615966796875;-0.013338175602257252;0.019352925941348076;0.02665318176150322
1767708910649909500;-0.0019683837890625;0.0261688232421875;0.9984130859375;-0.00923397857695818;0.015560850501060486;0.027417242527008057
1767708910659910400;-0.000335693359375;0.0266876220703125;1.0029449462890625;-0.011963185854256153;0.012980513274669647;0.027295004576444626
1767708910669910500;0.0007171630859375;0.0268402099609375;0.9998779296875;-0.016016250476241112;0.013067332096397877;0.02244911715388298
1767708910679910400;0.0072174072265625;0.02740478515625;0.9991607666015625;-0.00959963072091341;0.010479272343218327;0.006075202953070402
1767708910689910500;0.009429931640625;0.0235595703125;1.0069580078125;-0.006400641519576311;0.01835663616657257;-0.00820866134017706
1767708910699911700;0.007354736328125;0.02044677734375;1.010772705078125;-0.0011353056179359555;0.019887154921889305;-0.013104616664350033
1767708910709911600;0.002227783203125;0.01666259765625;1.013336181640625;0.0019632822368294;0.00974610447883606;-0.00965502392500639
1767708910719911700;0.0035552978515625;0.01416015625;1.00640869140625;-0.007201720029115677;-0.010162089951336384;-0.005910885985940695
1767708910729912600;0.00872802734375;0.0196990966796875;0.996734619140625;-0.00583791546523571;-0.018032530322670937;-0.011596734635531902
1767708910739912400;0.00885009765625;0.025421142578125;1.0038909912109375;-0.003944674041122198;-0.020841898396611214;-0.02100701443850994
1767708910749912600;0.0037841796875;0.026458740234375;1.0042724609375;-0.003989148885011673;-0.019116703420877457;-0.021393172442913055
1767708910759912400;-0.001800537109375;0.02923583984375;0.996795654296875;-0.008714395575225353;-0.02502439357340336;-0.022775886580348015
1767708910769913300;0.0002899169921875;0.0282135009765625;0.9927215576171875;-0.008287491276860237;-0.03295661881566048;-0.02684519626200199
1767708910779913500;0.002655029296875;0.0276947021484375;0.99700927734375;-0.007978830486536026;-0.029860960319638252;-0.0344272144138813
1767708910789913300;-0.0024871826171875;0.0263671875;1.002593994140625;-0.00794554129242897;-0.0232952032238245;-0.03379444777965546
1767708910799913500;-0.0113372802734375;0.027740478515625;0.996612548828125;-0.00999218039214611;-0.015592541545629501;-0.029271336272358894
1767708910809914600;-0.0106048583984375;0.03057861328125;0.994140625;-0.011801266111433506;-0.019359316676855087;-0.024514930322766304
1767708910819914500;-0.005462646484375;0.0307769775390625;0.995513916015625;-0.011114169843494892;-0.01913214847445488;-0.0210709311068058
1767708910829914600;-0.00775146484375;0.03118896484375;1.0032806396484375;-0.012443353421986103;-0.016694026067852974;-0.01420396938920021
1767708910839914500;-0.00543212890625;0.029541015625;1.0026397705078125;-0.014153103344142437;-0.0275083240121603;-0.01629801280796528
1767708910849915400;0.002105712890625;0.0294342041015625;1.0043182373046875;-0.018986741080880165;-0.04483591392636299;-0.023076556622982025
1767708910859915500;0.0053863525390625;0.025970458984375;1.0060577392578125;-0.010702711530029774;-0.04234639182686806;-0.024226244539022446
1767708910869915400;0.00042724609375;0.0260162353515625;1.0084991455078125;-0.008766327053308487;-0.040353816002607346;-0.02623293548822403
1767708910879916500;-0.0023040771484375;0.0279693603515625;1.01129150390625;-0.004445348400622606;-0.032470591366291046;-0.02971528470516205
1767708910889916400;-0.000518798828125;0.0276641845703125;1.0093231201171875;-0.0046160570345819;-0.022895196452736855;-0.031688421964645386
1767708910899916300;-0.0070343017578125;0.0246429443359375;1.0014495849609375;-0.0017172062071040273;-0.008670985698699951;-0.030498255044221878
1767708910909916400;-0.0133514404296875;0.0279541015625;0.996978759765625;0.0014301175251603127;-0.0024972460232675076;-0.024021446704864502
1767708910919917600;-0.0152740478515625;0.0302581787109375;1.0002899169921875;0.002560895634815097;0.007415838539600372;-0.016538230702280998
1767708910929917700;-0.01300048828125;0.0276336669921875;1.000640869140625;0.00007057376933516935;0.008464325219392776;-0.013798370026051998
1767708910939917600;-0.005828857421875;0.0286712646484375;0.99774169921875;0.0026229473296552896;0.00013156015484128147;-0.016024772077798843
1767708910949917400;-0.00091552734375;0.0306396484375;1.0032958984375;0.001674595638178289;-0.0011832424206659198;-0.020191820338368416
1767708910959918600;-0.0032958984375;0.0296173095703125;1.0016632080078125;-0.0011001517996191978;0.00022157499915920198;-0.020981181412935257
1767708910969918500;-0.005279541015625;0.027984619140625;0.9963531494140625;-0.0014120079576969147;-0.002642122097313404;-0.013068930245935917
1767708910979918600;-0.0095672607421875;0.030731201171875;0.9985198974609375;-0.00044022052315995097;-0.0017811221769079566;-0.0028751487843692303
1767708910989918500;-0.010833740234375;0.0301361083984375;0.998779296875;-0.001285241567529738;0.0029087045695632696;-0.000027430558475316502
1767708910999919400;-0.0057525634765625;0.0301666259765625;1.0014801025390625;-0.0005624596378766;0.004973985720425844;0.003919374197721481
1767708911009919500;-0.0061187744140625;0.03192138671875;1.0030975341796875;-0.002007490722462535;0.0008495483780279756;0.010492854751646519
1767708911019919400;-0.0043182373046875;0.0314788818359375;1.00390625;-0.0012359730899333954;0.0006186523241922259;0.012232697568833828
1767708911029919500;-0.0057830810546875;0.028564453125;1.00341796875;-0.002404035534709692;0.005649363622069359;0.009316802956163883
1767708911039920600;-0.0072784423828125;0.0289459228515625;0.9972076416015625;-0.0035230957437306643;0.012524846941232681;0.010663829743862152
1767708911049920500;-0.005401611328125;0.0302886962890625;0.995849609375;-0.0032738239970058203;0.008731439709663391;0.010907774791121483
1767708911059920600;-0.0052337646484375;0.0287322998046875;0.999237060546875;0.00009747169679030776;0.0073042516596615314;0.012998090125620365
1767708911069920500;-0.008514404296875;0.0294952392578125;0.9999847412109375;-0.0004679173871409148;0.007873103022575378;0.018022676929831505
1767708911079921400;-0.0117645263671875;0.0276947021484375;1.0019683837890625;-0.00037710359902121127;0.010937602259218693;0.023624636232852936
1767708911089921500;-0.011505126953125;0.0293121337890625;1.0009613037109375;-0.0030210898257791996;0.01998782344162464;0.023541811853647232
1767708911099921400;-0.007415771484375;0.02874755859375;0.997406005859375;-0.00564030883833766;0.02232714369893074;0.022431273013353348
1767708911109922300;-0.002532958984375;0.027618408203125;1.0004730224609375;-0.005014199763536453;0.00797536876052618;0.01666259951889515
1767708911119922400;0.0024261474609375;0.0290985107421875;1.0008392333984375;-0.005935120861977339;0.0033537186682224274;0.01236558984965086
1767708911129922300;-0.0012969970703125;0.026947021484375;1.004241943359375;-0.0070643010549247265;-0.001350755337625742;0.009767675772309303
1767708911139922400;0.000823974609375;0.0259246826171875;1.006439208984375;-0.006237389519810677;-0.008023039437830448;0.009559150785207748
1767708911149923600;-0.0053253173828125;0.0266265869140625;1.0040740966796875;-0.00669332267716527;-0.007771636825054884;0.014928615652024746
1767708911159923500;-0.010711669921875;0.0253448486328125;0.99859619140625;-0.006474144756793976;0.0007241134881041944;0.013699833303689957
1767708911169923600;-0.00714111328125;0.0284423828125;0.9987945556640625;-0.005608084611594677;-0.001802693703211844;0.006569752003997564
1767708911179923500;-0.0034637451171875;0.023712158203125;1.0005035400390625;-0.008099472150206566;0.002989931032061577;-0.0013291836949065328
1767708911189924400;-0.0034027099609375;0.0228118896484375;0.9984283447265625;-0.00881160143762827;0.0017531589837744832;0.0018881811993196607
1767708911199924500;-0.002655029296875;0.02581787109375;0.999176025390625;-0.008025435730814934;-0.0014479606179520488;-0.000669518718495965
1767708911209924400;-0.0001678466796875;0.025238037109375;0.9998931884765625;-0.00663446681573987;-0.0007097324123606086;-0.007868842221796513
1767708911219924500;-0.003387451171875;0.0269927978515625;1.0030670166015625;-0.002895122393965721;0.0035603800788521767;-0.006262423470616341
1767708911229925400;-0.01068115234375;0.0284881591796875;1.0035400390625;-0.0006109291571192443;0.005538842175155878;0.0006330333999358118
1767708911239925500;-0.01171875;0.0291595458984375;1.0014495849609375;0.0023467775899916887;0.013014068827033043;-0.0007017429452389479
1767708911249925400;-0.0059814453125;0.0278472900390625;1.001708984375;0.004043211229145527;0.016439693048596382;-0.001806155894882977
1767708911259926500;-0.006011962890625;0.0265655517578125;0.99932861328125;0.002793389605358243;0.01679735630750656;0.005227785091847181
1767708911269926700;-0.008148193359375;0.025787353515625;0.9998321533203125;0.005575594026595354;0.01684875413775444;0.01152802538126707
1767708911279926500;-0.0041656494140625;0.02557373046875;1.002166748046875;0.008357532322406769;0.007425159215927124;0.00875274557620287
