timestamp;acc_z;acc_y;acc_x;gyro_z;gyro_y;gyro_x
1767541871450425000;-0.075225830078125;-0.9940338134765625;-0.02606201171875;-0.00424135010689497;-0.01278743427246809;-0.0329933688044548
1767541871460425200;-0.0786590576171875;-0.99285888671875;-0.02587890625;0.003037601476535201;-0.024323714897036552;-0.03833620250225067
1767541871470425000;-0.0818939208984375;-0.993133544921875;-0.0265045166015625;0.010035856626927853;-0.03133581951260567;-0.03996312990784645
1767541871480425200;-0.0827484130859375;-0.995513916015625;-0.0297393798828125;0.017180318012833595;-0.03268923610448837;-0.04199139401316643
1767541871490425300;-0.0810394287109375;-1.0002899169921875;-0.03924560546875;0.019183281809091568;-0.03292439505457878;-0.04463724419474602
1767541871500425200;-0.0844268798828125;-1.0008544921875;-0.0460052490234375;0.014455106109380722;-0.035108186304569244;-0.04913904890418053
1767541871510425300;-0.0892333984375;-1.003814697265625;-0.0490264892578125;0.009170062839984894;-0.029738454148173332;-0.049670882523059845
1767541871520425200;-0.0849609375;-1.011016845703125;-0.0477294921875;0.0011225224006921053;-0.022343123331665993;-0.04916754737496376
1767541871530425300;-0.0853271484375;-1.0124664306640625;-0.042449951171875;-0.01128141675144434;-0.02153485268354416;-0.048722799867391586
1767541871540425200;-0.088043212890625;-1.006683349609375;-0.034332275390625;-0.01528867520391941;-0.020659206435084343;-0.0436880923807621
1767541871550425300;-0.085540771484375;-0.9989776611328125;-0.027191162109375;-0.0217732060700655;-0.019704729318618774;-0.04003769904375076
1767541871560425200;-0.0858001708984375;-0.992950439453125;-0.0240325927734375;-0.016814932227134705;-0.016045279800891876;-0.036138828843832016
1767541871570425300;-0.085113525390625;-0.9899139404296875;-0.024139404296875;-0.009927998296916485;-0.01595153659582138;-0.03165033832192421
1767541871580425200;-0.0853271484375;-0.9913177490234375;-0.028106689453125;0.00336170825175941;-0.015572568401694298;-0.030008764937520027
1767541871590425300;-0.0804595947265625;-0.9992218017578125;-0.034027099609375;0.008362858556210995;-0.009887518361210823;-0.03362533822655678
1767541871600425200;-0.0777587890625;-1.0025177001953125;-0.0311279296875;0.012403139844536781;-0.017054084688425064;-0.04729534313082695
1767541871610425300;-0.0830841064453125;-1.0052032470703125;-0.0343475341796875;0.016881512477993965;-0.01750975102186203;-0.06329961121082306
1767541871620425200;-0.0835113525390625;-1.0135955810546875;-0.0345001220703125;0.01836409419775009;-0.017889251932501793;-0.07116099447011948
1767541871630425000;-0.0849151611328125;-1.008758544921875;-0.031494140625;0.017661817371845245;-0.020320450887084007;-0.07742954045534134
1767541871640425200;-0.0858001708984375;-1.0062255859375;-0.0384979248046875;0.021224329248070717;-0.012813267298042774;-0.08688270300626755
1767541871650425000;-0.08673095703125;-1.0042266845703125;-0.043701171875;0.020378774031996727;-0.0007209177128970623;-0.10041262209415436
1767541871660425200;-0.0962371826171875;-1.0002899169921875;-0.038330078125;0.013770939782261848;-0.007526892237365246;-0.10513360798358917
1767541871670425000;-0.1030426025390625;-0.992919921875;-0.0326690673828125;0.009836118668317795;-0.008552475832402706;-0.10186244547367096
1767541871680425200;-0.1075439453125;-0.9877471923828125;-0.0345611572265625;0.003964914008975029;-0.004315386060625315;-0.0859210342168808
1767541871690425000;-0.1121978759765625;-0.98272705078125;-0.0335845947265625;0.004603007808327675;-0.003409645054489374;-0.06076987460255623
1767541871700425200;-0.1089935302734375;-0.98199462890625;-0.0357513427734375;0.0031531827989965677;0.0004370247188489884;-0.035417113453149796
1767541871710425000;-0.1023406982421875;-0.9850616455078125;-0.0397186279296875;-0.00112465291749686;0.007799333427101374;-0.018040785565972328
1767541871720425200;-0.1000518798828125;-0.9832763671875;-0.0388641357421875;-0.006573214195668697;0.011924570426344872;-0.006947388406842947
1767541871730425000;-0.108184814453125;-0.9891357421875;-0.043487548828125;-0.006366020068526268;0.009380718693137169;0.009664345532655716
1767541871740425500;-0.098358154296875;-0.989654541015625;-0.0426483154296875;-0.008694954216480255;0.01293151080608368;0.01775502786040306
1767541871750425300;-0.091827392578125;-0.9896240234375;-0.036712646484375;-0.011888351291418076;0.0018453042721375823;0.020622720941901207
1767541871760425200;-0.0893096923828125;-0.9962615966796875;-0.0393524169921875;-0.020371051505208015;0.010066748596727848;0.009698700159788132
1767541871770426400;-0.0912933349609375;-0.9974822998046875;-0.0355072021484375;-0.02779301442205906;0.01768498681485653;0.001255414099432528
1767541871780426200;-0.0961456298828125;-1.001007080078125;-0.0373992919921875;-0.028295287862420082;0.010876083746552467;0.010410296730697155
1767541871790426400;-0.0976715087890625;-1.00390625;-0.041168212890625;-0.029876671731472015;0.012970127165317535;0.013859356753528118
1767541871800426200;-0.0996246337890625;-1.003265380859375;-0.040130615234375;-0.035901542752981186;0.02111407369375229;0.015924371778964996
1767541871810426000;-0.097625732421875;-0.9978790283203125;-0.0366058349609375;-0.041783131659030914;0.02406778559088707;0.02430427446961403
1767541871820426200;-0.0934906005859375;-0.995330810546875;-0.0430450439453125;-0.041673678904771805;0.02588273026049137;0.03429991751909256
1767541871830426000;-0.089080810546875;-0.9913787841796875;-0.0427093505859375;-0.04234692454338074;0.03634149581193924;0.03791062906384468
1767541871840426200;-0.0886383056640625;-0.990386962890625;-0.039947509765625;-0.04013676568865776;0.04201802238821983;0.03988909348845482
1767541871850426000;-0.082611083984375;-0.9972991943359375;-0.0413970947265625;-0.037341780960559845;0.051477838307619095;0.03883661329746246
1767541871860426200;-0.0810699462890625;-1.003326416015625;-0.0374603271484375;-0.03609329089522362;0.05688219144940376;0.03714150935411453
1767541871870426000;-0.07989501953125;-1.0046539306640625;-0.03411865234375;-0.03392414376139641;0.06042446196079254;0.034627486020326614
1767541871880426200;-0.0836334228515625;-1.00244140625;-0.03009033203125;-0.029583191499114037;0.06418218463659286;0.03243490681052208
1767541871890426000;-0.084014892578125;-0.9999847412109375;-0.02117919921875;-0.023737819865345955;0.06256644427776337;0.02532293274998665
1767541871900426200;-0.085113525390625;-0.9987640380859375;-0.01995849609375;-0.01938701421022415;0.053696516901254654;0.01683916710317135
1767541871910426000;-0.083465576171875;-1.000885009765625;-0.0288238525390625;-0.013209811411798;0.06061301380395889;0.008726113475859165
1767541871920426200;-0.0789337158203125;-1.0016632080078125;-0.0302276611328125;-0.022914104163646698;0.0627688392996788;0.0014410364674404263
1767541871930426000;-0.080169677734375;-1.001678466796875;-0.0258636474609375;-0.02809954434633255;0.05849926173686981;-0.00615110294893384
1767541871940426200;-0.0819549560546875;-1.0012359619140625;-0.0207977294921875;-0.025380723178386688;0.054128482937812805;-0.0065140919759869576
1767541871950426400;-0.0782928466796875;-1.00408935546875;-0.023223876953125;-0.022770825773477554;0.0499316081404686;-0.009428123012185097
1767541871960426200;-0.07537841796875;-1.00091552734375;-0.0201873779296875;-0.022225676104426384;0.04574298858642578;-0.018678613007068634
1767541871970426400;-0.081817626953125;-0.998931884765625;-0.0191497802734375;-0.021709289401769638;0.03497049957513809;-0.02245497517287731
1767541871980426200;-0.08612060546875;-0.994476318359375;-0.02081298828125;-0.01780296489596367;0.03135845437645912;-0.022756177932024002
1767541871990426400;-0.0828704833984375;-0.99530029296875;-0.0221099853515625;-0.013570670038461685;0.024775920435786247;-0.021986791864037514
1767541872000426200;-0.0852813720703125;-0.994964599609375;-0.0244140625;-0.01937316544353962;0.014061223715543747;-0.029111545532941818
1767541872010426400;-0.0929107666015625;-0.9927215576171875;-0.022796630859375;-0.020739100873470306;0.013225258328020573;-0.03021569363772869
1767541872020426200;-0.094970703125;-0.9936370849609375;-0.0200653076171875;-0.019524166360497475;0.01010802760720253;-0.02058064192533493
1767541872030426400;-0.09283447265625;-0.995574951171875;-0.0246124267578125;-0.019900470972061157;0.009460346773266792;-0.012924587354063988
1767541872040426200;-0.09039306640625;-0.996612548828125;-0.0328216552734375;-0.024654213339090347;0.010211891494691372;-0.005327120888978243
1767541872050426000;-0.0900115966796875;-0.9900970458984375;-0.0280303955078125;-0.025465145707130432;0.008058459497988224;-0.000707868195604533
1767541872060426000;-0.0903167724609375;-0.98834228515625;-0.030609130859375;-0.022128472104668617;-0.0008237157016992569;0.0009456885163672268
1767541872070426000;-0.0894927978515625;-0.99395751953125;-0.02972412109375;-0.024289892986416817;-0.005862948950380087;0.004481034819036722
1767541872080426000;-0.089508056640625;-0.996612548828125;-0.0252227783203125;-0.022345518693327904;-0.010097907856106758;0.009111473336815834
1767541872090425900;-0.085296630859375;-0.99395751953125;-0.0225982666015625;-0.021076789125800133;-0.0021225393284112215;0.012653743848204613
1767541872100426000;-0.0826263427734375;-0.990692138671875;-0.020477294921875;-0.017790447920560837;-0.006452306639403105;0.011029748246073723
1767541872110425900;-0.0854949951171875;-0.998565673828125;-0.0223236083984375;-0.012895292602479458;-0.007710916455835104;0.004441619850695133
1767541872120426200;-0.0919036865234375;-1.0033111572265625;-0.018890380859375;-0.009078715927898884;-0.006967362016439438;-0.0005185174522921443
1767541872130426000;-0.092376708984375;-1.0023040771484375;-0.028961181640625;-0.000532632227987051;-0.00415399856865406;-0.0028360001742839813
1767541872140426200;-0.0896453857421875;-1.0036468505859375;-0.025238037109375;0.0012956279097124934;0.0006836334359832108;-0.012561864219605923
1767541872150426000;-0.0934295654296875;-1.0030975341796875;-0.029937744140625;0.0017113472567871213;0.0023062974214553833;-0.016586700454354286
1767541872160426200;-0.09912109375;-1.001922607421875;-0.0319366455078125;-0.001427987008355558;0.005673864856362343;-0.017980065196752548
1767541872170426000;-0.0985870361328125;-1.001495361328125;-0.0325164794921875;-0.003832022426649928;0.010996724478900433;-0.013775200583040714
1767541872180426200;-0.1011505126953125;-0.996734619140625;-0.0283660888671875;-0.007366303354501724;0.01441169623285532;-0.011522699147462845
1767541872190426000;-0.1024169921875;-0.9918365478515625;-0.0207977294921875;-0.007700530346482992;0.010117082856595516;-0.010150638408958912
1767541872200426000;-0.1007843017578125;-0.99200439453125;-0.0235137939453125;-0.007858987897634506;0.0076027922332286835;-0.008241684176027775
1767541872210426000;-0.0956878662109375;-0.9938812255859375;-0.0240325927734375;-0.005609150044620037;0.013088105246424675;-0.004932706709951162
1767541872220426000;-0.086944580078125;-1.0028533935546875;-0.0305938720703125;-0.009487511590123177;0.018629344180226326;-0.010572216473519802
1767541872230426000;-0.0773468017578125;-1.007080078125;-0.03228759765625;-0.0184615645557642;0.031911592930555344;-0.031751006841659546
1767541872240426000;-0.0829010009765625;-1.00018310546875;-0.0374603271484375;-0.02286376990377903;0.038065094500780106;-0.0571647509932518
1767541872250426000;-0.090576171875;-0.9911956787109375;-0.033294677734375;-0.023058714345097542;0.044686246663331985;-0.05841297656297684
1767541872260426000;-0.09783935546875;-1.00067138671875;-0.0286102294921875;-0.019306587055325508;0.04396612569689751;-0.05224829167127609
1767541872270427000;-0.0934906005859375;-1.0010986328125;-0.0242156982421875;-0.0298503078520298;0.04027498513460159;-0.042884085327386856
1767541872280427000;-0.100616455078125;-0.9845123291015625;-0.014129638671875;-0.03368739038705826;0.02425846830010414;-0.02997600845992565
1767541872290427000;-0.1061859130859375;-0.991485595703125;-0.0226287841796875;-0.020685570314526558;0.023266173899173737;-0.020857078954577446
1767541872300427000;-0.09576416015625;-0.9938201904296875;-0.01458740234375;-0.012065984308719635;0.020139889791607857;-0.014459100551903248
1767541872310427000;-0.0907135009765625;-0.998626708984375;-0.012847900390625;-0.003983822651207447;0.013186375610530376;-0.010160225443542004
1767541872320427300;-0.0948944091796875;-0.996612548828125;-0.016265869140625;-0.004658401478081942;0.009484048932790756;-0.00446825148537755
1767541872330427100;-0.0962677001953125;-0.9945220947265625;-0.0173492431640625;-0.0015102786710485816;0.004244279582053423;0.004259992390871048
1767541872340427300;-0.09112548828125;-0.9964141845703125;-0.0202484130859375;-0.0009065400226972997;0.0011853729374706745;0.0038128476589918137
1767541872350427100;-0.0946044921875;-0.999664306640625;-0.02154541015625;-0.0073561836034059525;-0.0020535634830594063;0.0026040389202535152
1767541872360427300;-0.1029510498046875;-0.997314453125;-0.0151214599609375;-0.00791677925735712;-0.0022602248936891556;0.015342204831540585
1767541872370427100;-0.1009521484375;-0.996734619140625;-0.0126190185546875;-0.005239502992480993;0.0018972359830513597;0.027947744354605675
1767541872380427000;-0.0915374755859375;-0.9977874755859375;-0.0165863037109375;-0.00276063266210258;0.0027861990965902805;0.03720888867974281
1767541872390427100;-0.0777435302734375;-1.001983642578125;-0.0208587646484375;-0.006836600601673126;0.0005898901727050543;0.0275645162910223
1767541872400427000;-0.082061767578125;-0.9997100830078125;-0.014862060546875;-0.014728079549968243;-0.006052299868315458;0.015096927061676979
1767541872410427100;-0.0879974365234375;-0.999603271484375;-0.013671875;-0.014784006401896477;-0.006473079323768616;0.009660616517066956
1767541872420427000;-0.087677001953125;-1.000152587890625;-0.0100250244140625;-0.015267369337379932;-0.0028905950020998716;0.005249356850981712
1767541872430427100;-0.0900726318359375;-1;-0.008880615234375;-0.012751481495797634;-0.009801497682929039;0.005803826730698347
1767541872440427000;-0.09124755859375;-0.9982452392578125;-0.01434326171875;-0.009761017747223377;-0.014788000844419003;0.008489091880619526
1767541872450427100;-0.0917816162109375;-0.9952850341796875;-0.014190673828125;-0.009246495552361012;-0.018931878730654716;0.01624794490635395
1767541872460427000;-0.089080810546875;-0.999786376953125;-0.0160369873046875;-0.007255782373249531;-0.025253424420952797;0.01991378702223301
1767541872470427100;-0.0887603759765625;-0.9983367919921875;-0.0185394287109375;-0.007102916948497295;-0.024865934625267982;0.02280624583363533
1767541872480427000;-0.0910797119140625;-0.996002197265625;-0.021148681640625;-0.0014048174489289522;-0.0224392618983984;0.031502265483140945
1767541872490427100;-0.091949462890625;-0.9952239990234375;-0.023956298828125;0.005681321490556002;-0.023140206933021545;0.039257925003767014
1767541872500427000;-0.088592529296875;-0.9943389892578125;-0.0244598388671875;0.009853961877524853;-0.025836125016212463;0.03396036475896835
1767541872510427000;-0.0823974609375;-0.9993438720703125;-0.0311279296875;0.011932292953133583;-0.017602162435650826;0.011157047003507614
1767541872520427000;-0.0752410888671875;-1.0098419189453125;-0.03546142578125;0.004175570327788591;-0.009845972992479801;-0.018871691077947617
1767541872530427000;-0.0735931396484375;-1.015899658203125;-0.03460693359375;-0.009166600182652473;-0.0036634444259107113;-0.04593367129564285
1767541872540427000;-0.0819854736328125;-1.0103607177734375;-0.028900146484375;-0.02003496140241623;-0.002123604528605938;-0.0675598680973053
1767541872550427000;-0.09075927734375;-1.0004425048828125;-0.0205230712890625;-0.02256443165242672;-0.003924700431525707;-0.07452510297298431
1767541872560427000;-0.0972747802734375;-0.99530029296875;-0.022491455078125;-0.02064562402665615;-0.003456516657024622;-0.07173170894384384
1767541872570427100;-0.1031036376953125;-0.9885711669921875;-0.021514892578125;-0.01414564624428749;0.0037380128633230925;-0.05397002398967743
1767541872580427300;-0.099456787109375;-0.987274169921875;-0.0200042724609375;-0.008409197442233562;0.00407543545588851;-0.036016855388879776
1767541872590427100;-0.0941619873046875;-0.988555908203125;-0.01861572265625;-0.007982026785612106;-0.002572879893705249;-0.030759776011109352
1767541872600427300;-0.0917510986328125;-0.989227294921875;-0.0178375244140625;-0.008378304541110992;-0.004297010600566864;-0.02870248444378376
1767541872610427100;-0.0893096923828125;-0.99609375;-0.017608642578125;-0.006897853687405586;-0.009766077622771263;-0.037820614874362946
1767541872620427000;-0.0907745361328125;-1.0004425048828125;-0.0160980224609375;-0.00947765726596117;-0.01110245194286108;-0.05067569389939308
1767541872630427100;-0.096282958984375;-1.0020599365234375;-0.017181396484375;-0.007388674188405275;-0.011569304391741753;-0.05631493777036667
1767541872640427000;-0.094970703125;-1.0013275146484375;-0.0179443359375;-0.00455826660618186;-0.011393535882234573;-0.05764039233326912
1767541872650427100;-0.0867919921875;-0.999481201171875;-0.0194854736328125;-0.002936135046184063;-0.015247928909957409;-0.06701552122831345
1767541872660427000;-0.0868072509765625;-0.997314453125;-0.0237579345703125;-0.004565723240375519;-0.019121496006846428;-0.08080190420150757
1767541872670427100;-0.0894012451171875;-0.9964141845703125;-0.026031494140625;-0.009430785663425922;-0.020729513838887215;-0.08965025842189789
1767541872680427000;-0.09771728515625;-0.9948883056640625;-0.0244293212890625;-0.011965050362050533;-0.02304992452263832;-0.09183245152235031
1767541872690427100;-0.103179931640625;-0.9942169189453125;-0.019378662109375;-0.014034858904778957;-0.026943733915686607;-0.08763904124498367
1767541872700427000;-0.10308837890625;-0.9925079345703125;-0.0195770263671875;-0.0172056183218956;-0.026035862043499947;-0.08431514352560043
1767541872710428000;-0.1033782958984375;-0.99151611328125;-0.0191497802734375;-0.014780011028051376;-0.02623426727950573;-0.07873502373695374
1767541872720428000;-0.1038055419921875;-0.9929351806640625;-0.02069091796875;-0.013747770339250565;-0.02365845814347267;-0.06786186993122101
1767541872730428000;-0.1046295166015625;-0.99444580078125;-0.027008056640625;-0.010865963064134121;-0.016093483194708824;-0.060449227690696716
1767541872740428000;-0.104248046875;-0.99761962890625;-0.0292205810546875;-0.01512835267931223;-0.015514245256781578;-0.062365639954805374
1767541872750428000;-0.1036834716796875;-0.9951629638671875;-0.0233612060546875;-0.01913720928132534;-0.014901718124747276;-0.06590418517589569
1767541872760428000;-0.104400634765625;-0.9964599609375;-0.022979736328125;-0.01691560074687004;-0.01353391818702221;-0.06254007667303085
1767541872770428200;-0.1029205322265625;-0.996734619140625;-0.0263519287109375;-0.017002418637275696;-0.006299441214650869;-0.05483341962099075
1767541872780428300;-0.0955657958984375;-0.997772216796875;-0.02545166015625;-0.01787247322499752;-0.002356364857405424;-0.04908072575926781
1767541872790428200;-0.09466552734375;-1.0020294189453125;-0.0291595458984375;-0.017847971990704536;0.0003206445835530758;-0.04742903262376785
1767541872800428000;-0.0989532470703125;-1.001220703125;-0.0325775146484375;-0.02213353104889393;0.0028727517928928137;-0.049910567700862885
1767541872810428200;-0.101348876953125;-0.99755859375;-0.030548095703125;-0.02514822967350483;0.00980416126549244;-0.05524913966655731
1767541872820428000;-0.1026153564453125;-0.9974822998046875;-0.025238037109375;-0.028442027047276497;0.010439325124025345;-0.059782374650239944
1767541872830428200;-0.099273681640625;-0.9935760498046875;-0.0192108154296875;-0.02394874207675457;0.010311227291822433;-0.06437686085700989
1767541872840428000;-0.0947723388671875;-0.99493408203125;-0.016815185546875;-0.0190767552703619;0.009494169615209103;-0.07046377658843994
1767541872850428200;-0.0939483642578125;-0.995849609375;-0.0179901123046875;-0.011966647580265999;0.010631605051457882;-0.07576453685760498
1767541872860428000;-0.0988006591796875;-0.992919921875;-0.01678466796875;-0.006069876719266176;0.008953813463449478;-0.07775045186281204
1767541872870428200;-0.1014556884765625;-0.98870849609375;-0.01885986328125;-0.0000021305288555595325;0.01392833236604929;-0.07888069748878479
1767541872880428000;-0.100128173828125;-0.9975128173828125;-0.023223876953125;0.0026786073576658964;0.01732918992638588;-0.07680956274271011
1767541872890428200;-0.101043701171875;-1.0014495849609375;-0.0328369140625;-0.00043755737715400755;0.021879732608795166;-0.08173001557588577
1767541872900428000;-0.1107177734375;-0.9969940185546875;-0.0333099365234375;-0.00558225205168128;0.023607857525348663;-0.08478759229183197
1767541872910428200;-0.111663818359375;-1.0001220703125;-0.0299530029296875;-0.010794857516884804;0.022483205422759056;-0.08249940723180771
1767541872920428000;-0.1113433837890625;-0.9968719482421875;-0.02532958984375;-0.01330009289085865;0.024041952565312386;-0.08199793100357056
1767541872930428000;-0.10736083984375;-0.9908447265625;-0.0261077880859375;-0.008717857301235199;0.0294931773096323;-0.08403284847736359
1767541872940428000;-0.100433349609375;-0.99072265625;-0.0252227783203125;-0.006481068674474955;0.0351976677775383;-0.09175601601600647
1767541872950428000;-0.101348876953125;-0.98858642578125;-0.024658203125;-0.006895989179611206;0.02875601500272751;-0.10220280289649963
1767541872960428000;-0.10809326171875;-0.9897613525390625;-0.0223541259765625;-0.004294613376259804;0.021748704835772514;-0.10722552239894867
1767541872970428000;-0.11334228515625;-0.997772216796875;-0.01678466796875;-0.005588377360254526;0.018789399415254593;-0.10868759453296661
1767541872980428000;-0.1174468994140625;-0.99127197265625;-0.0131072998046875;-0.000949150591623038;0.012022041715681553;-0.10209573805332184
1767541872990428000;-0.1172637939453125;-0.9907989501953125;-0.014190673828125;0.004415520932525396;-0.00047351003740914166;-0.09932685643434525
1767541873000428000;-0.123565673828125;-0.9996185302734375;-0.0157318115234375;0.0018375811632722616;-0.004474110435694456;-0.10234687477350235
1767541873010428000;-0.1329498291015625;-1.0069122314453125;-0.02459716796875;-0.007635016459971666;-0.003600327530875802;-0.10163341462612152
1767541873020428300;-0.13970947265625;-1.0111846923828125;-0.020111083984375;-0.018738534301519394;0.0016383767360821366;-0.09121539443731308
1767541873030428200;-0.13861083984375;-1.013824462890625;-0.0069732666015625;-0.030468693003058434;0.0009861685102805495;-0.07678478956222534
1767541873040428300;-0.1317901611328125;-1.0087432861328125;-0.0040740966796875;-0.03815297782421112;-0.0008287757518701255;-0.06372544914484024
1767541873050427400;-0.12725830078125;-1.0005340576171875;-0.01171875;-0.037520743906497955;0.0036479979753494263;-0.04999738559126854
1767541873060427500;-0.121490478515625;-0.994232177734375;-0.01776123046875;-0.035713255405426025;-0.0014231932582333684;-0.04459303244948387
1767541873070427400;-0.1185760498046875;-0.990325927734375;-0.022613525390625;-0.033016007393598557;-0.009924269281327724;-0.05071377754211426
1767541873080427500;-0.12030029296875;-0.9845733642578125;-0.0213623046875;-0.03296886757016182;-0.019226690754294395;-0.06090516224503517
1767541873090427400;-0.1307830810546875;-0.9768829345703125;-0.016082763671875;-0.02630643919110298;-0.021315941587090492;-0.0628063902258873
1767541873100427300;-0.1328582763671875;-0.9844818115234375;-0.0121307373046875;-0.021923940628767014;-0.024884311482310295;-0.055502671748399734
1767541873110427400;-0.1259613037109375;-0.9889373779296875;-0.01263427734375;-0.02382889948785305;-0.031034082174301147;-0.05215747654438019
1767541873120427300;-0.1287994384765625;-0.9861602783203125;-0.0112152099609375;-0.026141855865716934;-0.03086017817258835;-0.04687829315662384
1767541873130428700;-0.1336212158203125;-0.983123779296875;-0.0081634521484375;-0.02094176784157753;-0.029028454795479774;-0.03892955556511879
1767541873140428500;-0.134490966796875;-0.986297607421875;-0.005767822265625;-0.013420999981462955;-0.02815334126353264;-0.029629530385136604
1767541873150428400;-0.1300811767578125;-0.9893646240234375;-0.006500244140625;-0.006144179031252861;-0.02328295260667801;-0.02219691500067711
1767541873160428500;-0.130218505859375;-0.9863739013671875;-0.0189056396484375;0.003257844829931855;-0.02413542941212654;-0.022426212206482887
1767541873170428400;-0.1294403076171875;-0.9885101318359375;-0.018646240234375;0.005409146659076214;-0.020101273432374;-0.028857214376330376
1767541873180428500;-0.1379241943359375;-0.99151611328125;-0.0329742431640625;0.012400210835039616;-0.021015536040067673;-0.03139627352356911
1767541873190428400;-0.1466064453125;-0.992156982421875;-0.036895751953125;0.02605317160487175;-0.009860886260867119;-0.024685904383659363
1767541873200428500;-0.139129638671875;-0.9971923828125;-0.0308685302734375;0.0314846895635128;-0.005350556690245867;-0.025774871930480003
1767541873210428400;-0.13836669921875;-1.0099639892578125;-0.0399627685546875;0.032708942890167236;-0.0003534014686010778;-0.027585022151470184
1767541873220428500;-0.1422271728515625;-1.006439208984375;-0.0384979248046875;0.024172181263566017;0.022890402004122734;-0.03615906834602356
1767541873230428400;-0.13983154296875;-1.003173828125;-0.01806640625;0.019400596618652344;0.03116138093173504;-0.039435822516679764
1767541873240428500;-0.136932373046875;-0.9986572265625;-0.0201568603515625;0.015138738788664341;0.035112448036670685;-0.03994422033429146
1767541873250428400;-0.1353302001953125;-0.984283447265625;-0.0164642333984375;0.015994945541024208;0.0318780392408371;-0.039086148142814636
1767541873260428500;-0.13330078125;-0.9771575927734375;-0.01336669921875;0.021823806688189507;0.036682114005088806;-0.03873541206121445
1767541873270428400;-0.12103271484375;-0.9844512939453125;-0.0208740234375;0.02568725310266018;0.032635971903800964;-0.03814525529742241
1767541873280428300;-0.084197998046875;-1.0078277587890625;-0.0486297607421875;0.013430055230855942;-0.007950867526233196;-0.05191752687096596
1767541873290428400;-0.12469482421875;-1.001251220703125;-0.0353240966796875;-0.028265459463000298;-0.036979056894779205;-0.09302022308111191
1767541873300428300;-0.1854400634765625;-0.9746551513671875;0.012420654296875;-0.0023880566004663706;0.009784719906747341;-0.06679261475801468
1767541873310428400;-0.1679840087890625;-0.993011474609375;0.005645751953125;0.01696806401014328;0.032825857400894165;-0.020248545333743095
1767541873320428300;-0.146575927734375;-1.0025634765625;-0.0068817138671875;0.009019060991704464;0.04181402549147606;0.0034013893455266953
1767541873330428400;-0.1340789794921875;-1.003631591796875;-0.0123748779296875;-0.006081328261643648;0.047511592507362366;0.011699533089995384
1767541873340428300;-0.1156005859375;-1.0021209716796875;-0.0134124755859375;-0.02112552523612976;0.028424451127648354;0.011900868266820908
1767541873350428400;-0.119781494140625;-0.9971771240234375;-0.0139007568359375;-0.020077304914593697;0.0137227363884449;0.01441142987459898
1767541873360428300;-0.11529541015625;-0.994873046875;-0.0192718505859375;-0.01372300274670124;0.008577775210142136;0.009610815905034542
1767541873370428400;-0.111328125;-0.990814208984375;-0.0160980224609375;-0.008371380157768726;-0.003397660795599222;-0.012959741055965424
1767541873380428500;-0.1177825927734375;-0.9944000244140625;-0.01556396484375;-0.0035167040769010782;-0.008851282298564911;-0.03001941740512848
1767541873390428400;-0.1269073486328125;-1.004302978515625;-0.014251708984375;0.00023435817274730653;-0.012470251880586147;-0.03061969392001629
1767541873400428500;-0.1321258544921875;-1.0147857666015625;-0.0067901611328125;-0.007299724500626326;-0.00983532052487135;-0.02810327336192131
1767541873410428400;-0.1378326416015625;-1.01043701171875;0.0049285888671875;-0.02449841797351837;-0.00112465291749686;-0.029467077925801277
1767541873420428500;-0.1420440673828125;-0.99298095703125;0.0081329345703125;-0.03590287268161774;0.023085078224539757;-0.030308105051517487
1767541873430428400;-0.1299591064453125;-0.9748382568359375;0.01025390625;-0.03104100562632084;0.031557925045490265;-0.029877204447984695
1767541873440428500;-0.1266937255859375;-0.9630126953125;0.0077056884765625;-0.010614560917019844;0.004049869254231453;-0.0189603753387928
1767541873450428400;-0.13275146484375;-0.9700469970703125;-0.00811767578125;0.016387762501835823;-0.019212044775485992;-0.005819539539515972
1767541873460428500;-0.140777587890625;-0.97528076171875;-0.023712158203125;0.03032541461288929;-0.03717506676912308;0.002035187790170312
1767541873470428400;-0.155426025390625;-0.97784423828125;-0.0294647216796875;0.03628210723400116;-0.037286385893821716;0.011784753762185574
1767541873480428500;-0.159149169921875;-0.9812469482421875;-0.0312042236328125;0.02688967064023018;-0.026340793818235397;0.0226786807179451
1767541873490428400;-0.160797119140625;-0.9707489013671875;-0.0161895751953125;0.02936800941824913;-0.014451377093791962;0.04121774435043335
1767541873500428500;-0.15374755859375;-0.9768524169921875;-0.0149383544921875;0.03121783956885338;-0.010222277604043484;0.06728050112724304
1767541873510428400;-0.1398162841796875;-0.9871978759765625;-0.0170135498046875;0.023300262168049812;0.0018200043123215437;0.08035529404878616
1767541873520428500;-0.012969970703125;-1.0435638427734375;-0.1224822998046875;-0.006783337332308292;-0.03572950139641762;0.07025472074747086
1767541873530428400;-0.058319091796875;-1.020355224609375;-0.0714111328125;-0.17317524552345276;-0.1651170551776886;-0.10026934742927551
1767541873540429300;-0.271331787109375;-0.9505462646484375;0.06109619140625;-0.09288093447685242;-0.06536862254142761;-0.019750269129872322
1767541873550429400;-0.1768646240234375;-0.9989013671875;-0.003692626953125;-0.05788886547088623;-0.04926634952425957;0.057793792337179184
1767541873560429300;-0.177490234375;-0.9747161865234375;0.0184478759765625;-0.02509523369371891;0.001484179636463523;0.07463295757770538
1767541873570429400;-0.1538238525390625;-0.97149658203125;0.034881591796875;0.00920441746711731;0.03292146325111389;0.08319448679685593
1767541873580429600;-0.11676025390625;-1.0137481689453125;-0.004638671875;0.01392620149999857;0.013321131467819214;0.07662180811166763
1767541873590429400;-0.10675048828125;-1.02777099609375;-0.0319976806640625;-0.020809141919016838;-0.020687967538833618;0.038715705275535583
1767541873600429600;-0.1284637451171875;-1.040069580078125;-0.044586181640625;-0.05976319685578346;-0.027350397780537605;0.004303668159991503
1767541873610429400;-0.14886474609375;-1.0540924072265625;-0.043975830078125;-0.09782402962446213;-0.012328837998211384;-0.013614345341920853
1767541873620429600;-0.1456298828125;-1.041839599609375;-0.0323944091796875;-0.12350622564554214;-0.020076772198081017;-0.026693928986787796
1767541873630429400;-0.1724853515625;-1.010772705078125;-0.00146484375;-0.12425803393125534;-0.023357519879937172;-0.041367415338754654
1767541873640429600;-0.230224609375;-0.9297637939453125;0.0765533447265625;-0.04117539897561073;0.04496347904205322;-0.011475294828414917
1767541873650429400;-0.184906005859375;-0.93133544921875;0.03253173828125;0.046188268810510635;0.0983492061495781;0.046413570642471313
1767541873660429600;-0.1040802001953125;-0.976318359375;-0.007293701171875;0.07253865152597427;0.09485780447721481;0.04086567461490631
1767541873670429400;-0.09185791015625;-0.98291015625;-0.017547607421875;0.06151822209358215;0.06071634218096733;0.00803129468113184
1767541873680429600;-0.11187744140625;-0.9861907958984375;-0.0257415771484375;0.04593127220869064;0.04599332436919212;-0.008379103615880013
1767541873690429400;-0.1171417236328125;-0.9958038330078125;-0.02557373046875;0.03056003898382187;0.04020121693611145;-0.00586534570902586
1767541873700429300;-0.1182861328125;-0.99896240234375;-0.0287933349609375;0.018810439854860306;0.032037027180194855;0.0007864314829930663
1767541873710429400;-0.113128662109375;-1.01007080078125;-0.0373077392578125;-0.00330338510684669;0.010640127584338188;-0.0034946000669151545
1767541873720429300;-0.125518798828125;-0.99993896484375;-0.03118896484375;-0.01835743524134159;-0.013136574998497963;-0.0005808354471810162
1767541873730429400;-0.1410064697265625;-0.9881134033203125;-0.0084686279296875;-0.029406357556581497;-0.004986502695828676;0.0014061490073800087
1767541873740429300;-0.1585845947265625;-0.961578369140625;0.024169921875;-0.008243282325565815;0.024940770119428635;0.009456885047256947
1767541873750429400;-0.1651458740234375;-0.950836181640625;0.0282745361328125;0.03618437051773071;0.03615241125226021;0.043837230652570724
1767541873760429300;-0.1539459228515625;-0.963897705078125;0.0143280029296875;0.07264544069766998;0.040472593158483505;0.09629857540130615
1767541873770429400;-0.1149749755859375;-0.985687255859375;0.0008392333984375;0.07738373428583145;0.023876836523413658;0.10316819697618484
1767541873780429300;-0.10687255859375;-0.995025634765625;-0.014495849609375;0.06765440851449966;0.006733270362019539;0.08629414439201355
1767541873790429400;-0.0983734130859375;-0.9961700439453125;-0.01776123046875;0.04859629645943642;-0.004825381562113762;0.0635579377412796
1767541873800429300;-0.0971221923828125;-1.0062713623046875;-0.0201873779296875;0.03316913917660713;-0.028983181342482567;0.04180630296468735
1767541873810429400;-0.097900390625;-1.0128326416015625;-0.0250244140625;0.010860903188586235;-0.05795304849743843;0.01002174150198698
1767541873820429300;-0.1222381591796875;-1.0153350830078125;-0.0341033935546875;-0.01372220367193222;-0.07411843538284302;-0.00842704065144062
1767541873830429400;-0.1644439697265625;-0.999420166015625;-0.0355682373046875;-0.027395138517022133;-0.04002225026488304;-0.003977963700890541
1767541873840429600;-0.1746826171875;-0.9937591552734375;-0.009552001953125;-0.010609501041471958;0.009090700186789036;0.016033828258514404
1767541873850429400;-0.1646881103515625;-0.99957275390625;-0.0094757080078125;0.003915112931281328;0.034695129841566086;0.05336495488882065
1767541873860429600;-0.13140869140625;-1.00482177734375;-0.012298583984375;-0.0021438447292894125;0.03188496083021164;0.06645093113183975
1767541873870429400;-0.117218017578125;-1.0030670166015625;-0.0158843994140625;-0.014130466617643833;0.04069123789668083;0.05886171758174896
1767541873880429600;-0.1039276123046875;-0.9979248046875;-0.0139007568359375;-0.027753867208957672;0.028619127348065376;0.038356974720954895
1767541873890429400;-0.09625244140625;-0.989593505859375;-0.004852294921875;-0.025380989536643028;0.0021552962716668844;0.012989035807549953
1767541873900429600;-0.0948333740234375;-0.9811553955078125;0.0018310546875;-0.022213958203792572;-0.031634360551834106;-0.0126406941562891
1767541873910429400;-0.1200408935546875;-0.9811859130859375;-0.0012664794921875;-0.0017662084428593516;-0.058812182396650314;-0.013999438844621181
1767541873920429600;-0.145172119140625;-0.9915618896484375;-0.006378173828125;0.011485947296023369;-0.05884174630045891;0.00304612354375422
1767541873930429400;-0.142608642578125;-0.99432373046875;-0.00823974609375;0.01317945122718811;-0.03893861174583435;0.021273329854011536
1767541873940429600;-0.1415863037109375;-0.9895477294921875;-0.009979248046875;0.0117352195084095;-0.021266672760248184;0.031807996332645416
1767541873950429400;-0.1328125;-0.9813385009765625;-0.0105133056640625;0.013021792285144329;-0.01684183068573475;0.0399135947227478
1767541873960429300;-0.110870361328125;-0.97607421875;-0.0117645263671875;0.01503913663327694;-0.031805865466594696;0.035901542752981186
1767541873970430500;-0.1025238037109375;-0.980499267578125;-0.0191192626953125;0.015091334469616413;-0.05648298189043999;0.02353089302778244
1767541873980430300;-0.0971832275390625;-0.9962615966796875;-0.02587890625;0.008184160105884075;-0.08140111714601517;0.005161738954484463
1767541873990430500;-0.1219329833984375;-1.000396728515625;-0.023651123046875;0.00043516053119674325;-0.09250303357839584;-0.007480286993086338
1767541874000430300;-0.14410400390625;-1.0035247802734375;-0.018646240234375;0.00187992537394166;-0.07049387693405151;0.002935868687927723
1767541874010430200;-0.1472930908203125;-1.0029449462890625;-0.0148468017578125;0.014117416925728321;-0.04261031001806259;0.014113422483205795
1767541874020430300;-0.1324310302734375;-0.994354248046875;-0.01580810546875;0.02219691500067711;-0.011332549154758453;0.00968298688530922
1767541874030430500;-0.10943603515625;-0.9910888671875;-0.016448974609375;0.03140506148338318;-0.019301259890198708;-0.0033949976786971092
1767541874040430600;-0.090057373046875;-0.99822998046875;-0.0219879150390625;0.03050464577972889;-0.043238818645477295;-0.02317296341061592
1767541874050431500;-0.079559326171875;-1.00628662109375;-0.0216217041015625;0.022714633494615555;-0.08401340991258621;-0.05133615806698799
1767541874060431400;-0.0989837646484375;-1.0074462890625;-0.019866943359375;0.018269285559654236;-0.11603286117315292;-0.0734901949763298
1767541874070431500;-0.1248931884765625;-1.005828857421875;-0.0159912109375;0.013995710760354996;-0.10745828598737717;-0.08370794355869293
1767541874080431400;-0.1449127197265625;-0.9964141845703125;-0.0162200927734375;0.01661279797554016;-0.07627985626459122;-0.08173348009586334
1767541874090431500;-0.1531524658203125;-0.9926300048828125;-0.0198211669921875;0.017462879419326782;-0.036127377301454544;-0.07362282276153564
1767541874100431400;-0.1458740234375;-0.984161376953125;-0.0215606689453125;0.020795293152332306;-0.0153177035972476;-0.05743027105927467
1767541874110431500;-0.1336212158203125;-0.98419189453125;-0.0231781005859375;0.02756265178322792;-0.015964850783348083;-0.03321174904704094
1767541874120431400;-0.11993408203125;-0.9839324951171875;-0.0193023681640625;0.027825240045785904;-0.041959699243307114;-0.010576478205621243
1767541874130431500;-0.1092376708984375;-0.988006591796875;-0.0177001953125;0.02792457491159439;-0.06726425886154175;0.007770038675516844
1767541874140431400;-0.1109771728515625;-0.9840850830078125;-0.0172882080078125;0.03328312188386917;-0.07766922563314438;0.022283202037215233
1767541874150431500;-0.106536865234375;-0.986602783203125;-0.0191497802734375;0.03467222675681114;-0.09548630565404892;0.026517095044255257
1767541874160431400;-0.1068572998046875;-0.990325927734375;-0.023712158203125;0.03398459777235985;-0.11575083434581757;0.011071559973061085
1767541874170431500;-0.109619140625;-0.995361328125;-0.0218505859375;0.03606665879487991;-0.13282862305641174;-0.01744929701089859
1767541874180431400;-0.13348388671875;-1.005523681640625;-0.0355072021484375;-0.0036482643336057663;-0.13743749260902405;-0.043172769248485565
1767541874190431200;-0.13861083984375;-0.967437744140625;0.007843017578125;0.04513445496559143;-0.11801132559776306;-0.03813353553414345
1767541874200431400;-0.11383056640625;-0.9957275390625;-0.0287322998046875;0.040710944682359695;-0.12688790261745453;-0.046546462923288345
1767541874210431200;-0.1219329833984375;-0.9866485595703125;-0.020782470703125;0.044260140508413315;-0.11813037097454071;-0.04719121381640434
1767541874220431400;-0.11993408203125;-0.987762451171875;-0.0236053466796875;0.044077180325984955;-0.11264638602733612;-0.04186675697565079
1767541874230431500;-0.1259307861328125;-0.9997711181640625;-0.0315704345703125;0.04737790301442146;-0.09806851297616959;-0.031013309955596924
1767541874240431600;-0.13250732421875;-1.0105743408203125;-0.038543701171875;0.04632382094860077;-0.06914737820625305;-0.025530660524964333
1767541874250431500;-0.1384429931640625;-1.006072998046875;-0.040008544921875;0.03827708214521408;-0.03880465403199196;-0.024412665516138077
1767541874260431600;-0.1468505859375;-1.0040283203125;-0.036468505859375;0.035897545516490936;-0.015183746814727783;-0.02767024375498295
1767541874270431500;-0.15106201171875;-0.998443603515625;-0.0280303955078125;0.03780649974942207;0.0019624833948910236;-0.01859658770263195
1767541874280431600;-0.149932861328125;-0.994537353515625;-0.02386474609375;0.04398183897137642;0.018819494172930717;-0.0021646174136549234
1767541874290431500;-0.1361541748046875;-0.9977874755859375;-0.021575927734375;0.04530995711684227;0.031085748225450516;0.015573366545140743
1767541874300431600;-0.1234283447265625;-0.99627685546875;-0.02362060546875;0.039440881460905075;0.03585440292954445;0.03208816051483154
1767541874310431500;-0.119110107421875;-0.9933319091796875;-0.0296478271484375;0.03483254835009575;0.03753778710961342;0.041486456990242004
1767541874320431400;-0.1250762939453125;-0.99053955078125;-0.037322998046875;0.029407955706119537;0.04505189508199692;0.048837848007678986
1767541874330431500;-0.1285247802734375;-0.9898681640625;-0.0355377197265625;0.026547987014055252;0.0551852248609066;0.06280799210071564
1767541874340431400;-0.1143035888671875;-0.992767333984375;-0.0260772705078125;0.029999444261193275;0.04741545394062996;0.06752737611532211
1767541874350431500;-0.1051177978515625;-0.9992828369140625;-0.0252227783203125;0.033249299973249435;0.004062119405716658;0.066947340965271
1767541874360431400;-0.1053924560546875;-0.995361328125;-0.0280609130859375;0.033970482647418976;-0.017254887148737907;0.06097600236535072
1767541874370431500;-0.1089019775390625;-0.988983154296875;-0.0303955078125;0.035961464047431946;-0.018940668553113937;0.051544416695833206
1767541874380432400;-0.120574951171875;-0.9881591796875;-0.03631591796875;0.034325484186410904;-0.01082947850227356;0.050755590200424194
1767541874390432300;-0.12628173828125;-0.987548828125;-0.0373992919921875;0.03485358878970146;-0.005781190004199743;0.05313991755247116
1767541874400432400;-0.1254730224609375;-0.991729736328125;-0.0343780517578125;0.03278191387653351;-0.012021775357425213;0.05115159973502159
1767541874410432300;-0.12408447265625;-0.9930419921875;-0.03326416015625;0.0305725559592247;-0.013093697838485241;0.04619812220335007
1767541874420432400;-0.119842529296875;-0.9948272705078125;-0.02972412109375;0.028921131044626236;-0.017354488372802734;0.040698692202568054
1767541874430432500;-0.11541748046875;-0.9950408935546875;-0.03021240234375;0.02622867375612259;-0.012192483991384506;0.03502003476023674
1767541874440432600;-0.1152496337890625;-0.993682861328125;-0.02734375;0.025076590478420258;-0.02232874184846878;0.023001989349722862
1767541874450432500;-0.12109375;-0.9969329833984375;-0.031463623046875;0.024935176596045494;-0.01073706615716219;0.016509734094142914
1767541874460432600;-0.114532470703125;-0.9967193603515625;-0.028594970703125;0.025073926895856857;-0.0025603631511330605;0.007482683751732111
1767541874470432500;-0.1146392822265625;-0.9999847412109375;-0.0301513671875;0.027099527418613434;-0.008162855170667171;-0.007440605666488409
1767541874480432400;-0.1197967529296875;-0.99822998046875;-0.0352020263671875;0.02672721818089485;-0.004461327567696571;-0.014220747165381908
1767541874490432500;-0.1189117431640625;-0.999114990234375;-0.033782958984375;0.025898175314068794;0.0010602044640108943;-0.019238941371440887
1767541874500432400;-0.1148834228515625;-0.9990386962890625;-0.028961181640625;0.02207574062049389;-0.011660384014248848;-0.0234102513641119
1767541874510432500;-0.1257476806640625;-0.9960174560546875;-0.034210205078125;0.015606123954057693;-0.024327976629137993;-0.01882561855018139
1767541874520432400;-0.127227783203125;-0.995147705078125;-0.0304107666015625;0.010326140560209751;-0.01882801577448845;-0.00407490273937583
1767541874530432500;-0.1206207275390625;-0.989990234375;-0.0273590087890625;0.0033981935121119022;-0.017122261226177216;0.005021123681217432
1767541874540432400;-0.1181640625;-0.9843597412109375;-0.0327301025390625;-0.004627774935215712;-0.028079038485884666;0.01002360600978136
1767541874550432500;-0.11029052734375;-0.983245849609375;-0.0358734130859375;-0.005051750224083662;-0.027066238224506378;0.01278956513851881
1767541874560432400;-0.112518310546875;-0.9825286865234375;-0.0399627685546875;-0.005889580585062504;-0.03321228176355362;0.005167597904801369
1767541874570432500;-0.124481201171875;-0.9860687255859375;-0.0483856201171875;-0.008445150218904018;-0.012212724424898624;0.030655380338430405
1767541874580432400;-0.116180419921875;-1.0001373291015625;-0.0494537353515625;-0.0054272557608783245;-0.0038067223504185677;0.03844299539923668
1767541874590432500;-0.1154022216796875;-1.0014190673828125;-0.0499725341796875;-0.0021105550695210695;0.00384453940205276;0.023925306275486946
1767541874600432400;-0.1080322265625;-1.003509521484375;-0.0440673828125;-0.0034266894217580557;0.0007829693495295942;-0.00015819176041986793
1767541874610432500;-0.107330322265625;-1.0070037841796875;-0.03338623046875;-0.003784351982176304;-0.01812174543738365;-0.023446736857295036
1767541874620432400;-0.1222991943359375;-1.001434326171875;-0.0341644287109375;-0.00054142065346241;-0.022124210372567177;-0.027520840987563133
1767541874630432300;-0.1295928955078125;-0.9957427978515625;-0.0307464599609375;0.00041784998029470444;-0.007998005487024784;-0.018871691077947617
1767541874640432400;-0.1316070556640625;-0.9929351806640625;-0.029022216796875;0.0004748416249640286;0.0018610169645398855;-0.009274192154407501
1767541874650432300;-0.131866455078125;-0.9929351806640625;-0.037994384765625;0.0006980145117267966;0.024385234341025352;0.00836818479001522
1767541874660432400;-0.124786376953125;-0.9998931884765625;-0.0433807373046875;0.00213665422052145;0.053408097475767136;0.025849441066384315
1767541874670432300;-0.1212921142578125;-1.006561279296875;-0.0446014404296875;-0.001945439144037664;0.06307670474052429;0.03743312507867813
1767541874680432600;-0.119354248046875;-1.0028228759765625;-0.0501861572265625;-0.008413458243012428;0.06274620443582535;0.04310166463255882
1767541874690432500;-0.121551513671875;-1.0037078857421875;-0.0522308349609375;-0.016452210023999214;0.07535947114229202;0.03833913430571556
1767541874700432600;-0.12530517578125;-1.004852294921875;-0.051971435546875;-0.023095466196537018;0.09700830280780792;0.03111664019525051
1767541874710432500;-0.130218505859375;-1.010772705078125;-0.0542755126953125;-0.030846063047647476;0.13141900300979614;0.01830071024596691
1767541874720432600;-0.12908935546875;-1.0176849365234375;-0.0540618896484375;-0.042809247970581055;0.17047587037086487;0.003078880487009883
1767541874730432500;-0.126068115234375;-1.0171356201171875;-0.042694091796875;-0.05024506151676178;0.19535484910011292;0.005804892163723707
1767541874740432400;-0.111907958984375;-1.0167388916015625;-0.03228759765625;-0.05258944258093834;0.21188774704933167;-0.0028493159916251898
1767541874750432500;-0.11181640625;-1.00531005859375;-0.0174713134765625;-0.05506085604429245;0.17996151745319366;0.00660437298938632
1767541874760432400;-0.136077880859375;-1.0109710693359375;-0.0302276611328125;-0.04892013967037201;0.2152143120765686;0.01836116425693035
1767541874770432500;-0.1244964599609375;-0.989837646484375;-0.0201263427734375;-0.03976632282137871;0.2236139178276062;0.05013107880949974
1767541874780432400;-0.1388702392578125;-0.9344635009765625;0.030303955078125;-0.01164254080504179;0.21711979806423187;0.07634536921977997
1767541874790433300;-0.124969482421875;-0.9309539794921875;0.005340576171875;0.05860232561826706;0.19698762893676758;0.11970988661050797
1767541874800433400;-0.10565185546875;-0.953216552734375;-0.0403900146484375;0.07779732346534729;0.21406754851341248;0.12873481214046478
1767541874810433300;-0.0703887939453125;-0.972930908203125;-0.0563507080078125;0.07246248424053192;0.20069368183612823;0.12588149309158325
1767541874820433400;-0.0432281494140625;-0.9918365478515625;-0.061065673828125;0.036799825727939606;0.1153004914522171;0.09595528990030289
1767541874830433300;-0.06683349609375;-0.9884490966796875;-0.0444488525390625;0.007852064445614815;0.04043317586183548;0.07381083816289902
1767541874840433400;-0.1000213623046875;-0.9734649658203125;-0.02569580078125;0.005631254054605961;0.013199691660702229;0.07922051846981049
1767541874850433300;-0.108184814453125;-0.97650146484375;-0.02642822265625;0.014871357940137386;0.02184164896607399;0.08874718099832535
1767541874860433400;-0.0947723388671875;-0.994781494140625;-0.0362091064453125;0.017916683107614517;0.0176229365170002;0.08911336213350296
1767541874870433300;-0.0945587158203125;-1.0073089599609375;-0.0453948974609375;0.0035902075469493866;0.0013065468519926071;0.08711998909711838
1767541874880433400;-0.1011962890625;-1.00567626953125;-0.0391387939453125;-0.00833915639668703;-0.018012024462223053;0.0919158086180687
1767541874890433500;-0.10223388671875;-1.0089111328125;-0.0305023193359375;-0.013892379589378834;-0.03303597867488861;0.11339206993579865
1767541874900433700;-0.1035003662109375;-1.0178070068359375;-0.0299072265625;-0.024400148540735245;-0.050887417048215866;0.14624376595020294
1767541874910433500;-0.0938568115234375;-1.0162200927734375;-0.03228759765625;-0.05474766716361046;-0.03857722133398056;0.1550138145685196
1767541874920433400;-0.0845947265625;-0.9955596923828125;-0.013397216796875;-0.05403660237789154;-0.05718206241726875;0.15097007155418396
1767541874930433500;-0.09466552734375;-0.9955902099609375;-0.0220794677734375;-0.046370960772037506;-0.07963117957115173;0.15361352264881134
1767541874940433400;-0.1014251708984375;-0.993194580078125;-0.02545166015625;-0.03696707263588905;-0.06166389584541321;0.13885268568992615
1767541874950433500;-0.095977783203125;-0.990997314453125;-0.021575927734375;-0.01708204858005047;-0.061469484120607376;0.13335485756397247
1767541874960433400;-0.089111328125;-0.9975738525390625;-0.019012451171875;0.005840312223881483;-0.0696571096777916;0.12736700475215912
1767541874970433500;-0.0806732177734375;-1.0007476806640625;-0.023193359375;0.020493291318416595;-0.08936823159456253;0.11915062367916107
1767541874980433400;-0.084320068359375;-0.993133544921875;-0.0252838134765625;0.026196183636784554;-0.10751713812351227;0.10619913786649704
1767541874990433500;-0.089874267578125;-0.9942474365234375;-0.030731201171875;0.029096633195877075;-0.09347055852413177;0.09003428369760513
1767541875000433400;-0.089080810546875;-0.994659423828125;-0.038909912109375;0.023092269897460938;-0.07632273435592651;0.07251174747943878
1767541875010433500;-0.09033203125;-0.993255615234375;-0.04656982421875;0.018377408385276794;-0.059790629893541336;0.06076135113835335
1767541875020433400;-0.0923004150390625;-0.995819091796875;-0.05078125;0.009583917446434498;-0.03798999264836311;0.045220207422971725
1767541875030433500;-0.090087890625;-0.9975128173828125;-0.047576904296875;0.008609467186033726;-0.0350879468023777;0.033671941608190536
1767541875040433400;-0.093109130859375;-0.999664306640625;-0.0424652099609375;0.012161058373749256;-0.04657495766878128;0.03672046214342117
1767541875050433000;-0.1023101806640625;-0.996246337890625;-0.0352630615234375;0.017737984657287598;-0.043718986213207245;0.04187767580151558
1767541875060433000;-0.10821533203125;-0.9979095458984375;-0.029510498046875;0.025612419471144676;-0.019689815118908882;0.04873931035399437
1767541875070433000;-0.10028076171875;-0.9986724853515625;-0.0221710205078125;0.035601403564214706;-0.0011736550368368626;0.05678738281130791
1767541875080433000;-0.089202880859375;-0.993011474609375;-0.019561767578125;0.043958667665719986;-0.012044145725667477;0.06318935751914978
1767541875090432800;-0.089447021484375;-1.0001983642578125;-0.0276031494140625;0.04862106591463089;-0.019594740122556686;0.07101878523826599
1767541875100433000;-0.0866546630859375;-0.9953765869140625;-0.0304107666015625;0.05260302498936653;-0.01302312407642603;0.08261338621377945
1767541875110432800;-0.0858612060546875;-1.0007476806640625;-0.0353546142578125;0.05705849081277847;-0.0322444885969162;0.0948234498500824
1767541875120433200;-0.1021575927734375;-1.0012359619140625;-0.044403076171875;0.05270741879940033;0.0055028898641467094;0.09706529974937439
1767541875130433000;-0.088226318359375;-1.004669189453125;-0.0498046875;0.047808267176151276;0.04676271229982376;0.09002736210823059
1767541875140433200;-0.0659027099609375;-1.0047454833984375;-0.053375244140625;0.042765840888023376;0.044256944209337234;0.07279723882675171
1767541875150433000;-0.06085205078125;-1.0018157958984375;-0.0528411865234375;0.03852581977844238;0.02870035357773304;0.049907371401786804
1767541875160433200;-0.0587310791015625;-1.00079345703125;-0.0504150390625;0.03400617092847824;0.014879613183438778;0.027661722153425217
1767541875170433000;-0.0687255859375;-0.998626708984375;-0.0416107177734375;0.036261335015296936;-0.0009867012267932296;0.017299894243478775
1767541875180434000;-0.07574462890625;-1.004486083984375;-0.040863037109375;0.03002714179456234;0.003912449814379215;0.017593907192349434
1767541875190434000;-0.07513427734375;-1.008026123046875;-0.037445068359375;0.025791384279727936;0.01954573765397072;0.021819278597831726
1767541875200434000;-0.07086181640625;-1.001129150390625;-0.0370025634765625;0.021092768758535385;0.014425278641283512;0.0240736436098814
1767541875210434000;-0.0768280029296875;-1.00030517578125;-0.0366973876953125;0.018372615799307823;0.007257646415382624;0.0327393040060997
1767541875220434000;-0.0755157470703125;-0.9988250732421875;-0.0299072265625;0.013379720970988274;0.003020024625584483;0.035600073635578156
1767541875230434000;-0.0781097412109375;-0.9966583251953125;-0.0377960205078125;0.006340453866869211;-0.0043902210891246796;0.03991838917136192
1767541875240434000;-0.079681396484375;-0.9945526123046875;-0.046539306640625;-0.0012354403734207153;0.021287178620696068;0.03790610283613205
1767541875250434000;-0.07318115234375;-0.99267578125;-0.043212890625;-0.009648365899920464;0.03634362667798996;0.028734974563121796
1767541875260434000;-0.066741943359375;-0.990875244140625;-0.041046142578125;-0.01955319568514824;0.02629179134964943;0.027872910723090172
1767541875270433800;-0.0611419677734375;-0.9904632568359375;-0.032745361328125;-0.02225310727953911;0.012294217012822628;0.0222104974091053
1767541875280434000;-0.061187744140625;-0.9976806640625;-0.0286712646484375;-0.021077588200569153;-0.011140269227325916;0.01906530372798443
1767541875290433800;-0.0582427978515625;-1.0036773681640625;-0.02362060546875;-0.023923708125948906;-0.040893904864788055;0.015864983201026917
1767541875300434000;-0.0624847412109375;-1.0063934326171875;-0.0220489501953125;-0.024116521701216698;-0.04412778094410896;0.01395522989332676
1767541875310433800;-0.059906005859375;-1.005615234375;-0.02557373046875;-0.017948906868696213;-0.03165166825056076;0.00771704176440835
1767541875320434200;-0.058929443359375;-1.0063629150390625;-0.0270233154296875;-0.016510799527168274;-0.02954910323023796;-0.0011544802691787481
1767541875330434000;-0.0604095458984375;-1.00152587890625;-0.02825927734375;-0.013203686103224754;-0.04115089774131775;-0.010904046706855297
1767541875340434200;-0.063690185546875;-1.0034942626953125;-0.0297393798828125;-0.007056045345962048;-0.042092058807611465;-0.020055467262864113
1767541875350434000;-0.0635223388671875;-1.0043182373046875;-0.031280517578125;-0.00569969741627574;-0.048357944935560226;-0.02497991733253002
1767541875360434200;-0.0648040771484375;-1.0031890869140625;-0.03399658203125;-0.004977714270353317;-0.053224872797727585;-0.025584988296031952
1767541875370434000;-0.0668792724609375;-1.004852294921875;-0.03472900390625;-0.006443518213927746;-0.052915412932634354;-0.024034230038523674
1767541875380434000;-0.059417724609375;-0.9998931884765625;-0.03338623046875;-0.011298993602395058;-0.05759192258119583;-0.0279778391122818
1767541875390434000;-0.062164306640625;-0.9990692138671875;-0.03619384765625;-0.01432034932076931;-0.07006163895130157;-0.02900528535246849
1767541875400434000;-0.0640716552734375;-0.998992919921875;-0.039031982421875;-0.014992797747254372;-0.06875110417604446;-0.030236199498176575
1767541875410434000;-0.065399169921875;-0.999786376953125;-0.0424041748046875;-0.012937636114656925;-0.06797425448894501;-0.032946497201919556
1767541875420434000;-0.0697021484375;-1.0016937255859375;-0.0418701171875;-0.011215370148420334;-0.05787235498428345;-0.038070954382419586
1767541875430434000;-0.0708160400390625;-0.997894287109375;-0.04046630859375;-0.010115218348801136;-0.055244080722332;-0.04169631376862526
1767541875440434000;-0.0731658935546875;-1.0042266845703125;-0.0425872802734375;-0.00791651289910078;-0.054478954523801804;-0.0437978133559227
1767541875450434000;-0.0793914794921875;-1.00018310546875;-0.0421905517578125;-0.009397496469318867;-0.044547226279973984;-0.04044969007372856
1767541875460434000;-0.07763671875;-0.99835205078125;-0.043609619140625;-0.010112821124494076;-0.03367407247424126;-0.0302569717168808
1767541875470434000;-0.077850341796875;-0.9952239990234375;-0.0411529541015625;-0.011034808121621609;-0.027535486966371536;-0.02346351370215416
1767541875480434000;-0.079193115234375;-0.9923858642578125;-0.0417022705078125;-0.010163688100874424;-0.029018068686127663;-0.02093617431819439
1767541875490434000;-0.079833984375;-0.99041748046875;-0.038848876953125;-0.010780742391943932;-0.03866963088512421;-0.020566793158650398
1767541875500434000;-0.07861328125;-0.9938507080078125;-0.03802490234375;-0.0113975303247571;-0.04700293019413948;-0.023009179159998894
1767541875510433800;-0.0811309814453125;-0.9977264404296875;-0.040313720703125;-0.014871091581881046;-0.04987568035721779;-0.01913800835609436
1767541875520434000;-0.0762939453125;-0.9977569580078125;-0.0402069091796875;-0.020734306424856186;-0.042993005365133286;-0.018877817317843437
1767541875530433800;-0.075927734375;-0.99981689453125;-0.042694091796875;-0.025484587997198105;-0.030975492671132088;-0.02311570569872856
1767541875540434000;-0.0790252685546875;-0.99945068359375;-0.04278564453125;-0.029925407841801643;-0.021214207634329796;-0.02941780909895897
1767541875550433800;-0.080230712890625;-0.9996490478515625;-0.041015625;-0.031125428155064583;-0.018751850351691246;-0.02870914340019226
1767541875560434000;-0.082366943359375;-0.999359130859375;-0.0387420654296875;-0.030191458761692047;-0.013768808916211128;-0.02219851315021515
1767541875570434000;-0.08209228515625;-0.997100830078125;-0.038543701171875;-0.027216173708438873;-0.006422745529562235;-0.010586065240204334
1767541875580435000;-0.0734405517578125;-0.9920501708984375;-0.0390777587890625;-0.02534397318959236;-0.010217217728495598;-0.0010748518398031592
1767541875590435000;-0.068023681640625;-0.9907684326171875;-0.03802490234375;-0.02436392940580845;-0.024500815197825432;0.002600044244900346
1767541875600435000;-0.0713348388671875;-0.9935150146484375;-0.03851318359375;-0.030300913378596306;-0.024890169501304626;0.010939200408756733
1767541875610435000;-0.0684661865234375;-0.9979095458984375;-0.0370025634765625;-0.033240776509046555;-0.01305428333580494;0.015663115307688713
1767541875620435000;-0.0692138671875;-1.00311279296875;-0.0355987548828125;-0.03549354523420334;0.0016700683627277613;0.019393138587474823
1767541875630435000;-0.0678253173828125;-1.0105438232421875;-0.0350189208984375;-0.02978532575070858;0.010044644586741924;0.019111642614006996
1767541875640435000;-0.0677490234375;-1.0135650634765625;-0.0355377197265625;-0.02310531958937645;0.01314989011734724;0.017242370173335075
1767541875650435000;-0.067779541015625;-1.0114898681640625;-0.0360870361328125;-0.015665778890252113;0.00811944529414177;0.011863050982356071
1767541875660435000;-0.0744781494140625;-1.0088958740234375;-0.03515625;-0.00896872766315937;0.007958324626088142;-0.001826662220992148
1767541875670435000;-0.0768585205078125;-1.004608154296875;-0.0352630615234375;-0.00526586826890707;0.009020392782986164;-0.01684129796922207
1767541875680435000;-0.0808258056640625;-0.9994659423828125;-0.034393310546875;-0.005201419815421104;0.013793576508760452;-0.025787388905882835
1767541875690434800;-0.0830841064453125;-0.9952850341796875;-0.0316314697265625;-0.004526575095951557;0.014063887298107147;-0.022178273648023605
1767541875700435000;-0.0763092041015625;-0.9923248291015625;-0.0274200439453125;-0.0035923379473388195;0.010935738682746887;-0.018788868561387062
1767541875710434800;-0.07275390625;-0.988739013671875;-0.0307769775390625;-0.002674612682312727;0.006607568822801113;-0.01907196082174778
1767541875720435000;-0.071197509765625;-0.99114990234375;-0.029327392578125;-0.0023339942563325167;0.007505054119974375;-0.022420620545744896
1767541875730434800;-0.07012939453125;-0.9911956787109375;-0.0271453857421875;0.0005717806634493172;0.0014950985787436366;-0.020856812596321106
1767541875740435000;-0.0698394775390625;-0.9893035888671875;-0.0292510986328125;0.0004601942200679332;-0.0070251524448394775;-0.019691679626703262
1767541875750434800;-0.0740509033203125;-0.98828125;-0.033843994140625;0.001148088718764484;-0.011086739599704742;-0.014851916581392288
1767541875760435000;-0.0738677978515625;-0.992950439453125;-0.035003662109375;0.0005475459038279951;-0.009691509418189526;-0.012583702802658081
1767541875770435000;-0.0734100341796875;-0.9951171875;-0.0362396240234375;0.0005142564186826348;-0.019245866686105728;-0.013258813880383968
1767541875780435200;-0.07763671875;-0.9990081787109375;-0.0341339111328125;-0.0008535431115888059;-0.02107146382331848;-0.012776515446603298
1767541875790435000;-0.0753173828125;-1.00335693359375;-0.031097412109375;0.00046578687033616006;-0.025308819487690926;-0.012435098178684711
1767541875800435000;-0.07373046875;-1.00311279296875;-0.0325469970703125;0.0022985744290053844;-0.03849652409553528;-0.013452958315610886
1767541875810435000;-0.08001708984375;-1.005645751953125;-0.033233642578125;0.006369482260197401;-0.03377554193139076;-0.016620522364974022
1767541875820435000;-0.0806121826171875;-1.0057525634765625;-0.0377197265625;0.006533000618219376;-0.02503770962357521;-0.021677598357200623
1767541875830435000;-0.081787109375;-1.003509521484375;-0.040374755859375;0.006127134896814823;-0.019527629017829895;-0.03178669139742851
1767541875840435000;-0.08233642578125;-1.001312255859375;-0.042388916015625;0.008598015643656254;-0.008229433558881283;-0.03695935010910034
1767541875850435000;-0.077667236328125;-0.99871826171875;-0.0431976318359375;0.01028566062450409;-0.006265086587518454;-0.04182121530175209
1767541875860435000;-0.076324462890625;-1.0008544921875;-0.0406341552734375;0.010127735324203968;-0.00547386147081852;-0.046244461089372635
1767541875870435000;-0.0789642333984375;-1.0039520263671875;-0.038970947265625;0.010265952907502651;0.000755805114749819;-0.04465268924832344
1767541875880435000;-0.0819549560546875;-1.0036773681640625;-0.0416107177734375;0.009068063460290432;0.011229218915104866;-0.04137859866023064
1767541875890435000;-0.0885162353515625;-1.005615234375;-0.041259765625;0.010057694278657436;0.018865300342440605;-0.03978549689054489
1767541875900435000;-0.0852813720703125;-1.002716064453125;-0.0426788330078125;0.007506385911256075;0.019700467586517334;-0.036673057824373245
1767541875910435000;-0.083099365234375;-1.001312255859375;-0.0445556640625;0.003610979998484254;0.01914067193865776;-0.03925099968910217
1767541875920435000;-0.0895538330078125;-0.9989013671875;-0.043701171875;-0.002011485630646348;0.023425165563821793;-0.03831196948885918
1767541875930434800;-0.091644287109375;-0.9950714111328125;-0.040924072265625;-0.005091431550681591;0.0320785753428936;-0.030421555042266846
1767541875940435000;-0.0850982666015625;-0.99835205078125;-0.0384521484375;-0.01019964087754488;0.034585140645504;-0.029345639050006866
1767541875950434800;-0.0814056396484375;-0.998077392578125;-0.0358734130859375;-0.013999172486364841;0.03325862064957619;-0.03262132778763771
1767541875960435000;-0.075042724609375;-1.000946044921875;-0.0347137451171875;-0.015297995880246162;0.039866987615823746;-0.038600921630859375
1767541875970436000;-0.0827484130859375;-1.00299072265625;-0.033782958984375;-0.01575472764670849;0.029291842132806778;-0.04294613376259804
1767541875980436000;-0.0864105224609375;-0.9966583251953125;-0.0324249267578125;-0.012561065144836903;0.030245786532759666;-0.0521705262362957
1767541875990436000;-0.0875244140625;-0.99755859375;-0.0301055908203125;-0.013559218496084213;0.0296135526150465;-0.05500626191496849
1767541876000436000;-0.086669921875;-0.992919921875;-0.0283050537109375;-0.01278849970549345;0.02689979039132595;-0.06099357828497887
1767541876010436000;-0.087371826171875;-0.9933319091796875;-0.024688720703125;-0.013463344424962997;0.018096977844834328;-0.06024789437651634
1767541876020436000;-0.0868682861328125;-0.9952239990234375;-0.0263214111328125;-0.013288907706737518;0.016325976699590683;-0.05771283060312271
1767541876030436000;-0.0866546630859375;-0.9915924072265625;-0.027313232421875;-0.014177604578435421;0.017130516469478607;-0.05680575966835022
1767541876040436000;-0.0861053466796875;-0.99200439453125;-0.025543212890625;-0.012022041715681553;0.010760501958429813;-0.0553538016974926
1767541876050436000;-0.0883331298828125;-0.992767333984375;-0.0294342041015625;-0.013063870370388031;0.006580670829862356;-0.04975370690226555
1767541876060436000;-0.0905303955078125;-0.995819091796875;-0.0315704345703125;-0.00833809096366167;0.0029939257074147463;-0.039627302438020706
1767541876070436000;-0.0897216796875;-0.9981689453125;-0.0273895263671875;-0.006336458958685398;-0.001710814656689763;-0.03357633575797081
1767541876080436000;-0.0925445556640625;-0.9993133544921875;-0.030242919921875;-0.002798982197418809;0.001276453142054379;-0.03202904015779495
1767541876090436000;-0.0919952392578125;-0.9968719482421875;-0.0325927734375;-0.004629373084753752;0.0105916578322649;-0.027897411957383156
1767541876100436000;-0.0897064208984375;-0.99713134765625;-0.0390472412109375;-0.005727127660065889;0.019822707399725914;-0.02412823960185051
1767541876110435800;-0.0887298583984375;-0.99578857421875;-0.041412353515625;-0.004870655480772257;0.024832911789417267;-0.023077622056007385
1767541876120436000;-0.0865936279296875;-0.9959716796875;-0.0400543212890625;-0.0018162758788093925;0.01997876726090908;-0.02322303131222725
1767541876130435800;-0.0889892578125;-0.996795654296875;-0.0384368896484375;-0.005689843557775021;0.017658622935414314;-0.025602566078305244
1767541876140436000;-0.09063720703125;-1.00018310546875;-0.0358428955078125;-0.0038165762089192867;0.018673019483685493;-0.024696025997400284
1767541876150435800;-0.0886993408203125;-1.00347900390625;-0.031707763671875;-0.0037787591572850943;0.013118199072778225;-0.02640364319086075
1767541876160436000;-0.0896148681640625;-1.004974365234375;-0.0290374755859375;-0.00558065390214324;0.008694954216480255;-0.029099561274051666
1767541876170435800;-0.091094970703125;-1.0040130615234375;-0.0294647216796875;-0.007574296556413174;0.007755391299724579;-0.03737986087799072
1767541876180436000;-0.0927734375;-1.002166748046875;-0.029571533203125;-0.010385529138147831;0.008915997110307217;-0.04171229153871536
1767541876190435800;-0.0944366455078125;-1.001373291015625;-0.028961181640625;-0.015147261321544647;0.010480071417987347;-0.04057405889034271
1767541876200436000;-0.093017578125;-0.9991455078125;-0.031494140625;-0.014937404543161392;0.012884639203548431;-0.039138082414865494
1767541876210435800;-0.0941009521484375;-0.99395751953125;-0.030029296875;-0.0165568720549345;0.008162855170667171;-0.035832032561302185
1767541876220436000;-0.0976104736328125;-0.99224853515625;-0.030120849609375;-0.016463395208120346;0.00021385183208622038;-0.03163036331534386
1767541876230435800;-0.095123291015625;-0.990234375;-0.026947021484375;-0.01595499739050865;-0.00007323692989302799;-0.03230707347393036
1767541876240435700;-0.0936737060546875;-0.9910125732421875;-0.025238037109375;-0.0142356613650918;-0.006714361719787121;-0.03209055960178375
1767541876250435800;-0.0959625244140625;-0.993316650390625;-0.02685546875;-0.008658203296363354;-0.01079965103417635;-0.030761374160647392
1767541876260436000;-0.095062255859375;-0.9965667724609375;-0.0291900634765625;-0.005988916382193565;-0.010280600748956203;-0.02514902874827385
1767541876270436000;-0.0920562744140625;-0.9971771240234375;-0.029266357421875;-0.004858138505369425;-0.007902664132416248;-0.024687236174941063
1767541876280436000;-0.09454345703125;-0.9998016357421875;-0.029632568359375;-0.005428054835647345;-0.014228204265236855;-0.020207000896334648
1767541876290436000;-0.0938720703125;-0.997833251953125;-0.0331268310546875;-0.008238488808274269;-0.012341621331870556;-0.017470870167016983
1767541876300436000;-0.0929412841796875;-0.998077392578125;-0.0349273681640625;-0.007046990562230349;-0.011604191735386848;-0.019822973757982254
1767541876310436000;-0.0946197509765625;-0.9988861083984375;-0.03375244140625;-0.007782822009176016;-0.010965566150844097;-0.019996345043182373
1767541876320436000;-0.09381103515625;-0.9990386962890625;-0.03515625;-0.0065138256177306175;-0.012329637072980404;-0.015798671171069145
1767541876330436000;-0.095733642578125;-0.9987335205078125;-0.03338623046875;-0.005116198677569628;-0.008281632326543331;-0.01483354065567255
1767541876340437000;-0.096527099609375;-0.9984893798828125;-0.0330810546875;-0.00367116741836071;-0.016509201377630234;-0.01757420040667057
1767541876350436900;-0.1011962890625;-0.99676513671875;-0.034271240234375;-0.007143130525946617;-0.011666509322822094;-0.01643303595483303
1767541876360437000;-0.09954833984375;-0.9968414306640625;-0.032958984375;-0.009648365899920464;-0.013227388262748718;-0.01619175262749195
1767541876370436900;-0.10101318359375;-0.995452880859375;-0.03216552734375;-0.012979447841644287;-0.010810303501784801;-0.018324146047234535
1767541876380437000;-0.0988616943359375;-0.9968109130859375;-0.032135009765625;-0.011513377539813519;-0.0034325483720749617;-0.018927352502942085
1767541876390436900;-0.0986328125;-0.99700927734375;-0.0320587158203125;-0.009093630127608776;0.0028248149901628494;-0.01816888339817524
1767541876400437000;-0.09637451171875;-0.99615478515625;-0.0324859619140625;-0.008374310098588467;0.00493244081735611;-0.014908907935023308
1767541876410436900;-0.094482421875;-0.99627685546875;-0.03204345703125;-0.00646748673170805;0.005432049743831158;-0.018613098189234734
1767541876420436700;-0.094512939453125;-0.9946746826171875;-0.0327301025390625;-0.005972671322524548;0.0023877902422100306;-0.02466459944844246
1767541876430436900;-0.0982666015625;-0.9952850341796875;-0.0340423583984375;-0.008595618419349194;0.0025542378425598145;-0.02503557875752449
1767541876440436700;-0.099456787109375;-0.9974365234375;-0.0339202880859375;-0.007255516014993191;0.0068206219002604485;-0.023902669548988342
1767541876450436900;-0.0990753173828125;-0.9976654052734375;-0.0316314697265625;-0.00558198569342494;0.011834288947284222;-0.022234732285141945
1767541876460436700;-0.1022796630859375;-0.99652099609375;-0.0302581787109375;-0.005889580585062504;0.010171943344175816;-0.022400647401809692
1767541876470437000;-0.101165771484375;-0.998870849609375;-0.030975341796875;-0.005827528890222311;0.006643521599471569;-0.023898407816886902
1767541876480437000;-0.101593017578125;-0.9990081787109375;-0.03057861328125;-0.006842193193733692;0.00899828877300024;-0.025548769161105156
1767541876490437000;-0.0990142822265625;-0.999176025390625;-0.0313873291015625;-0.008361793123185635;0.008596151135861874;-0.027288611978292465
1767541876500437000;-0.097412109375;-1.0006256103515625;-0.0331573486328125;-0.009849701076745987;0.007647533435374498;-0.032822128385305405
1767541876510437000;-0.09600830078125;-1.0015716552734375;-0.03326416015625;-0.009075520560145378;0.00894103106111288;-0.03834392502903938
1767541876520437000;-0.09869384765625;-0.9986419677734375;-0.0327301025390625;-0.005483448505401611;0.014753912575542927;-0.04225451126694679
1767541876530437000;-0.1028594970703125;-0.995697021484375;-0.0307464599609375;-0.0049737198278307915;0.010282997973263264;-0.04237062484025955
1767541876540437000;-0.1054840087890625;-0.99456787109375;-0.0276641845703125;-0.007288805674761534;0.0078102522529661655;-0.03978496417403221
1767541876550436900;-0.106781005859375;-0.989898681640625;-0.026763916015625;-0.006478938274085522;0.009386044926941395;-0.03858014941215515
1767541876560437000;-0.1010589599609375;-0.9913482666015625;-0.0275421142578125;-0.007479754276573658;0.012002333998680115;-0.034574754536151886
1767541876570436900;-0.097625732421875;-0.9927978515625;-0.030364990234375;-0.006535930093377829;0.009786584414541721;-0.031616516411304474
1767541876580437000;-0.097991943359375;-0.993560791015625;-0.033905029296875;-0.007589742541313171;0.008942894637584686;-0.027658259496092796
1767541876590436900;-0.0996856689453125;-0.993408203125;-0.0338897705078125;-0.005846970248967409;0.007855792529881;-0.031203992664813995
1767541876600437000;-0.1014251708984375;-0.9954376220703125;-0.0325927734375;-0.005176119972020388;0.005369198974221945;-0.03592630848288536
1767541876610436900;-0.1038360595703125;-0.9963531494140625;-0.032073974609375;-0.00395825644955039;0.00515747768804431;-0.035414982587099075
1767541876620437000;-0.10400390625;-0.9954986572265625;-0.03167724609375;-0.006136721931397915;0.010803911834955215;-0.03648211061954498
1767541876630436900;-0.1061553955078125;-0.993621826171875;-0.0318145751953125;-0.006608367897570133;0.0075487298890948296;-0.0336943157017231
1767541876640437000;-0.1105194091796875;-0.9939727783203125;-0.0298309326171875;-0.007554056588560343;0.003829892026260495;-0.03105245716869831
1767541876650436900;-0.113250732421875;-0.996063232421875;-0.0267791748046875;-0.0073473951779305935;0.005714344792068005;-0.0297901201993227
1767541876660437000;-0.110015869140625;-0.9989013671875;-0.025726318359375;-0.008671252056956291;0.009007609449326992;-0.02383768931031227
1767541876670436900;-0.1051483154296875;-1.001373291015625;-0.0252532958984375;-0.00869149249047041;0.014740063808858395;-0.02280864305794239
1767541876680438000;-0.1000823974609375;-1.0000762939453125;-0.0258941650390625;-0.010060356929898262;0.014398646540939808;-0.023382287472486496
1767541876690438100;-0.0991973876953125;-0.9975433349609375;-0.0254364013671875;-0.012228170409798622;0.011999138630926609;-0.02689126878976822
1767541876700438000;-0.1039276123046875;-0.998382568359375;-0.0278778076171875;-0.011996208690106869;0.012927782721817493;-0.02822977304458618
1767541876710438000;-0.105804443359375;-0.9971466064453125;-0.0281982421875;-0.011832957156002522;0.01605832949280739;-0.024285100400447845
1767541876720438000;-0.1026458740234375;-0.9982147216796875;-0.0263824462890625;-0.010891796089708805;0.012599148787558079;-0.026747191324830055
1767541876730438000;-0.1056365966796875;-0.9962005615234375;-0.0296478271484375;-0.010669422335922718;0.01091709639877081;-0.030436735600233078
1767541876740438000;-0.1063079833984375;-0.99603271484375;-0.031219482421875;-0.007905061356723309;0.013861753046512604;-0.029683593660593033
1767541876750438000;-0.1044464111328125;-0.995513916015625;-0.028564453125;-0.006296511739492416;0.011126420460641384;-0.028773857280611992
1767541876760438000;-0.1041107177734375;-0.995880126953125;-0.026580810546875;-0.00845660176128149;0.007911186665296555;-0.027884628623723984
1767541876770438000;-0.1032867431640625;-0.9961090087890625;-0.0281982421875;-0.007923702709376812;0.012112589552998543;-0.02876134030520916
1767541876780438000;-0.0994873046875;-0.9949493408203125;-0.0285797119140625;-0.006882939953356981;0.003495398908853531;-0.027944283559918404
1767541876790438000;-0.1061248779296875;-0.9947509765625;-0.0302276611328125;-0.006313289515674114;-0.001184041379019618;-0.02785852923989296
1767541876800438000;-0.107940673828125;-0.991546630859375;-0.0277557373046875;-0.004210724029690027;-0.0029816750902682543;-0.025201493874192238
1767541876810438000;-0.108062744140625;-0.991668701171875;-0.0266571044921875;-0.004710332956165075;-0.004057858604937792;-0.02478497475385666
1767541876820438000;-0.1103515625;-0.9920806884765625;-0.0250091552734375;-0.005450159311294556;-0.0024825986474752426;-0.02173086255788803
1767541876830438000;-0.11328125;-0.9943389892578125;-0.0259857177734375;-0.006296511739492416;0.0032748891972005367;-0.016117451712489128
1767541876840438000;-0.1102294921875;-0.996337890625;-0.028533935546875;-0.0038184402510523796;0.00686136819422245;-0.013684386387467384
1767541876850438000;-0.1073150634765625;-0.99822998046875;-0.0309906005859375;-0.004444815684109926;0.008154332637786865;-0.009381784126162529
1767541876860437800;-0.1058502197265625;-0.9988555908203125;-0.0314178466796875;-0.008490690030157566;0.0027515781112015247;-0.01101669855415821
1767541876870438000;-0.10638427734375;-0.9987945556640625;-0.0310211181640625;-0.010160225443542004;0.0005645901546813548;-0.011917912401258945
1767541876880437800;-0.1057586669921875;-0.9972991943359375;-0.02783203125;-0.011920841410756111;0.00043036683928221464;-0.011422830633819103
1767541876890438000;-0.1086273193359375;-0.9974822998046875;-0.024200439453125;-0.011831625364720821;-0.005763613153249025;-0.009345298632979393
1767541876900437800;-0.1106719970703125;-0.99432373046875;-0.0247955322265625;-0.01315122190862894;-0.007821437902748585;-0.011318701319396496
1767541876910438000;-0.1091766357421875;-0.9922332763671875;-0.025848388671875;-0.0116750318557024;-0.004190484061837196;-0.017235180363059044
1767541876920438000;-0.1091766357421875;-0.9922332763671875;-0.0261993408203125;-0.010192982852458954;-0.004878378473222256;-0.017715347930788994
1767541876930438100;-0.108642578125;-0.9932708740234375;-0.02459716796875;-0.010074472054839134;-0.00836711935698986;-0.019658923149108887
1767541876940438000;-0.104705810546875;-0.993560791015625;-0.024169921875;-0.008157528936862946;-0.007016630377620459;-0.01961870864033699
1767541876950438100;-0.107421875;-0.9965057373046875;-0.025115966796875;-0.007476025726646185;-0.0065172878094017506;-0.019244801253080368
1767541876960438000;-0.109466552734375;-0.99578857421875;-0.0282745361328125;-0.006727410946041346;-0.00318940170109272;-0.016828248277306557
1767541876970438000;-0.108612060546875;-0.99591064453125;-0.0301666259765625;-0.00815113727003336;-0.004998753312975168;-0.015307051129639149
1767541876980438000;-0.1125640869140625;-0.9964752197265625;-0.0298614501953125;-0.005969741847366095;-0.004640558268874884;-0.014130732975900173
1767541876990438000;-0.1114501953125;-0.9976043701171875;-0.0297088623046875;-0.006995857693254948;-0.0031127026304602623;-0.012401009909808636
1767541877000438000;-0.11163330078125;-0.9973907470703125;-0.029266357421875;-0.005583317019045353;-0.00019254654762335122;-0.01161830686032772
1767541877010438000;-0.1128997802734375;-0.9976043701171875;-0.0266265869140625;-0.007363640237599611;0.0025358619168400764;-0.013547766953706741
1767541877020438800;-0.11297607421875;-0.998199462890625;-0.0289154052734375;-0.008972988463938236;0.004869856406003237;-0.012674249708652496
1767541877030439000;-0.1114349365234375;-0.9974365234375;-0.029205322265625;-0.008481635712087154;0.005887450184673071;-0.010359164327383041
1767541877040438800;-0.1105499267578125;-0.9955902099609375;-0.028717041015625;-0.009938118048012257;0.008785768412053585;-0.007229417096823454
1767541877050439200;-0.1049652099609375;-0.993743896484375;-0.024169921875;-0.010308297351002693;0.003945206757634878;-0.008450210094451904
1767541877060439000;-0.1063079833984375;-0.9917755126953125;-0.023223876953125;-0.006764162797480822;0.004065847955644131;-0.009583118371665478
1767541877070439200;-0.1067657470703125;-0.9915618896484375;-0.0254669189453125;-0.003462908323854208;0.012194881215691566;-0.012403672561049461
1767541877080439000;-0.1092529296875;-0.9922637939453125;-0.027374267578125;0.0010966897243633866;0.012438826262950897;-0.013969877734780312
1767541877090439200;-0.1108856201171875;-0.9931488037109375;-0.02947998046875;0.0005973470397293568;0.00475400872528553;-0.010046509094536304
1767541877100439000;-0.1119232177734375;-0.9957427978515625;-0.028106689453125;-0.0007661914569325745;0.00577852688729763;-0.006399842444807291
1767541877110439200;-0.109710693359375;-0.9987030029296875;-0.027618408203125;-0.003412308171391487;0.005991579964756966;-0.005313272587954998
1767541877120439000;-0.1102447509765625;-0.998779296875;-0.0279998779296875;-0.006440588738769293;0.006894391495734453;-0.006514891050755978
1767541877130439200;-0.1119537353515625;-0.9978179931640625;-0.026275634765625;-0.008718922734260559;0.010512296110391617;-0.007306915242224932
1767541877140439000;-0.1120758056640625;-0.9984893798828125;-0.02410888671875;-0.009221461601555347;0.009514142759144306;-0.008845689706504345
1767541877150439000;-0.110687255859375;-0.9983978271484375;-0.0245513916015625;-0.005567871034145355;0.012053467333316803;-0.008562062866985798
1767541877160439000;-0.1058807373046875;-0.9985198974609375;-0.0279388427734375;-0.003534547286108136;0.008589759469032288;-0.0101964445784688
1767541877170439000;-0.108795166015625;-0.9979248046875;-0.025665283203125;-0.0017129451734945178;0.006523679476231337;-0.014345383271574974
1767541877180439000;-0.111083984375;-0.9963836669921875;-0.025482177734375;-0.00023036343918647617;0.003944407682865858;-0.014140852726995945
1767541877190439200;-0.1124267578125;-0.9928741455078125;-0.0254364013671875;0.0019036275334656239;0.0037388119380921125;-0.012249475345015526
1767541877200439300;-0.112884521484375;-0.99310302734375;-0.02325439453125;-0.0015909724170342088;-0.0024652881547808647;-0.012601546011865139
1767541877210439200;-0.1139678955078125;-0.9928436279296875;-0.0244903564453125;-0.0027595674619078636;-0.0043473439291119576;-0.011963718570768833
1767541877220439300;-0.1129913330078125;-0.993927001953125;-0.0262908935546875;-0.002929743379354477;0.0006167881074361503;-0.010937868617475033
1767541877230439200;-0.1128082275390625;-0.9956512451171875;-0.0283966064453125;-0.004197674337774515;-0.0020072245970368385;-0.011259312741458416
1767541877240439300;-0.1120452880859375;-0.9971160888671875;-0.0296173095703125;-0.0025007082149386406;0.002177666872739792;-0.012831908650696278
1767541877250439200;-0.1105194091796875;-0.99859619140625;-0.0292510986328125;-0.0026181535795331;0.0026258768048137426;-0.014887070283293724
1767541877260439000;-0.11260986328125;-0.999786376953125;-0.02630615234375;-0.0033097765408456326;0.005033907014876604;-0.016156332567334175
1767541877270439200;-0.113433837890625;-0.9975738525390625;-0.0254669189453125;0.00024048343766480684;0.010914166457951069;-0.01528734341263771
1767541877280439000;-0.1089630126953125;-0.9987335205078125;-0.025634765625;0.0016338493442162871;0.012557070702314377;-0.012369317933917046
1767541877290439200;-0.1068115234375;-0.9960784912109375;-0.0250244140625;-0.0013813816476613283;0.009794839657843113;-0.013254818506538868
1767541877300439000;-0.1081390380859375;-0.994873046875;-0.0259246826171875;-0.0029142971616238356;0.006637929007411003;-0.016078835353255272
1767541877310439200;-0.1094818115234375;-0.996185302734375;-0.0249481201171875;-0.004590757191181183;0.004786499310284853;-0.017728131264448166
1767541877320439000;-0.11090087890625;-0.99481201171875;-0.024261474609375;-0.0019358517602086067;0.0070461914874613285;-0.01702984981238842
1767541877330440000;-0.1114044189453125;-0.9928741455078125;-0.025054931640625;-0.0013920343481004238;0.006149505265057087;-0.015625830739736557
1767541877340440000;-0.1130523681640625;-0.992340087890625;-0.0261688232421875;-0.0017385114915668964;0.004830441437661648;-0.018201373517513275
1767541877350440000;-0.11163330078125;-0.9933929443359375;-0.0233306884765625;-0.002998985582962632;0.0009307747823186219;-0.01401728205382824
1767541877360440000;-0.1095428466796875;-0.9927825927734375;-0.0236358642578125;-0.0037385455798357725;-0.0019150790758430958;-0.010122941806912422
1767541877370440000;-0.10809326171875;-0.9927978515625;-0.0239105224609375;-0.002638926263898611;-0.00355904852040112;-0.007779093459248543
1767541877380440000;-0.109710693359375;-0.993743896484375;-0.0254974365234375;-0.0018261295044794679;-0.010016947984695435;-0.005250421818345785
1767541877390440000;-0.1103515625;-0.9950408935546875;-0.0245208740234375;-0.0010964233661070466;-0.007979895919561386;-0.004551608581095934
1767541877400440300;-0.109710693359375;-0.996185302734375;-0.0245819091796875;0.001347825862467289;-0.004911668132990599;-0.0037944719661027193
1767541877410440200;-0.108123779296875;-0.9967803955078125;-0.024169921875;0.001169127761386335;-0.006096774712204933;-0.005000617355108261
1767541877420440300;-0.1100616455078125;-0.9965057373046875;-0.0267791748046875;0.002380333375185728;-0.009080047719180584;-0.008647816255688667
1767541877430440200;-0.1126251220703125;-0.993621826171875;-0.0286865234375;-0.0000031957933970261365;-0.007638745009899139;-0.007545001804828644
1767541877440440000;-0.107391357421875;-0.993438720703125;-0.0287628173828125;-0.0010247844038531184;-0.007727960590273142;-0.00805952399969101
1767541877450440200;-0.1090087890625;-0.9938201904296875;-0.02569580078125;-0.0017129451734945178;-0.013579990714788437;-0.007484547793865204
1767541877460440000;-0.1136474609375;-0.99609375;-0.0279083251953125;-0.0005222458858042955;-0.008503739722073078;-0.0041340249590575695
1767541877470440200;-0.110504150390625;-0.9979400634765625;-0.0268096923828125;0.001026115962304175;-0.003658917034044862;-0.006344715133309364
1767541877480440000;-0.1097564697265625;-0.99774169921875;-0.0277099609375;0.0035571842454373837;-0.0011211908422410488;-0.005079979542642832
1767541877490440200;-0.1106109619140625;-0.9967803955078125;-0.0281524658203125;0.00552179804071784;-0.0026881948579102755;-0.008044877089560032
1767541877500440000;-0.1117706298828125;-0.995361328125;-0.029083251953125;0.005962285213172436;-0.0018775284988805652;-0.008078432641923428
1767541877510440200;-0.112823486328125;-0.9940338134765625;-0.0296478271484375;0.006608101539313793;0.0025126924738287926;-0.009036105126142502
1767541877520440000;-0.114990234375;-0.9922027587890625;-0.0323944091796875;0.006422745529562235;0.006082393694669008;-0.00532552320510149
1767541877530440200;-0.1143798828125;-0.9944305419921875;-0.031036376953125;0.005249623209238052;0.00657481187954545;-0.0031169636640697718
1767541877540440000;-0.11083984375;-0.99468994140625;-0.028472900390625;0.003766775131225586;0.004487692844122648;-0.004204865079373121
1767541877550440200;-0.1119384765625;-0.997833251953125;-0.0276031494140625;0.002319879597052932;0.001761148450896144;-0.004831506870687008
1767541877560440000;-0.1117401123046875;-0.998779296875;-0.02734375;0.0030543794855475426;0.00236222380772233;-0.005212604999542236
1767541877570440000;-0.1099090576171875;-0.9965667724609375;-0.028076171875;0.0029350698459893465;0.0026429209392517805;-0.007203051820397377
1767541877580440000;-0.1090545654296875;-0.9971923828125;-0.027496337890625;0.00018988338706549257;0.006327670533210039;-0.01179034635424614
1767541877590440000;-0.1105499267578125;-0.9959869384765625;-0.02880859375;-0.0020479708909988403;0.010552243329584599;-0.01272831205278635
1767541877600440000;-0.110595703125;-0.9950408935546875;-0.0298309326171875;-0.0018293253378942609;0.01188009511679411;-0.010962369851768017
1767541877610440000;-0.108673095703125;-0.99346923828125;-0.02862548828125;-0.0012032161466777325;0.00729493098333478;-0.01384204626083374
1767541877620440000;-0.1111907958984375;-0.9922943115234375;-0.0259857177734375;-0.0006857639527879655;0.007135940250009298;-0.01522715575993061
1767541877630440000;-0.11407470703125;-0.9923858642578125;-0.0267181396484375;0.0012178635224699974;0.004817125853151083;-0.014675615355372429
1767541877640441000;-0.1141815185546875;-0.99066162109375;-0.02825927734375;0.0015909724170342088;0.009191634133458138;-0.008835569024085999
1767541877650441200;-0.1136932373046875;-0.9927825927734375;-0.0281219482421875;0.0025829998776316643;0.010897122323513031;-0.005872270092368126
1767541877660441000;-0.1135406494140625;-0.9932861328125;-0.027557373046875;0.0021963089238852262;0.009367669001221657;-0.002237055217847228
1767541877670441200;-0.1124114990234375;-0.9959564208984375;-0.026123046875;0.0021912488155066967;0.011964517645537853;-0.0008700547041371465
1767541877680441000;-0.1111907958984375;-0.99822998046875;-0.027435302734375;0.0024535702541470528;0.013286244124174118;0.003180080559104681
1767541877690441200;-0.1106719970703125;-1.0010223388671875;-0.028900146484375;0.0020538298413157463;0.012944826856255531;0.0008998821140266955
1767541877700441000;-0.109039306640625;-0.99908447265625;-0.0299224853515625;-0.0019105518003925681;0.010746920481324196;-0.002995789982378483
1767541877710441200;-0.1097869873046875;-0.9998931884765625;-0.029266357421875;0.0007030745036900043;0.014878015965223312;-0.009927199222147465
1767541877720441000;-0.1083984375;-0.9969329833984375;-0.0264892578125;-0.001930525409989059;0.011238805949687958;-0.011394068598747253
1767541877730441200;-0.111083984375;-0.9944000244140625;-0.0257568359375;-0.0019204054260626435;0.007690676487982273;-0.010401507839560509
1767541877740441000;-0.1146087646484375;-0.9924163818359375;-0.025299072265625;-0.0019387812353670597;0.011235344223678112;-0.008374310098588467
1767541877750441000;-0.115997314453125;-0.9930267333984375;-0.0245361328125;0.0019382486352697015;0.01437893882393837;-0.0035079156514257193
1767541877760441000;-0.1155853271484375;-0.9916534423828125;-0.0239715576171875;0.002942526713013649;0.011828696355223656;-0.0017251957906410098
1767541877770441000;-0.1164398193359375;-0.9910430908203125;-0.0260009765625;0.004280232358723879;0.012051070109009743;0.0012562130577862263
1767541877780441000;-0.1155242919921875;-0.9910888671875;-0.0278778076171875;0.003434146288782358;0.012047874741256237;0.004793423693627119
1767541877790441000;-0.114410400390625;-0.9930267333984375;-0.0280609130859375;0.0007161240209825337;0.007875766605138779;0.010270747356116772
1767541877800441000;-0.113525390625;-0.9937591552734375;-0.0270538330078125;0.0005094627267681062;0.006184392608702183;0.013528591953217983
1767541877810441000;-0.1095428466796875;-0.9971771240234375;-0.0260467529296875;-0.0030133668333292007;0.0059961071237921715;0.015301458537578583
1767541877820441000;-0.112152099609375;-0.9983673095703125;-0.0261688232421875;-0.00398595305159688;0.006306897848844528;0.011567439883947372
1767541877830441000;-0.112945556640625;-1.00030517578125;-0.02581787109375;-0.0035052525345236063;0.005880259443074465;0.009929596446454525
1767541877840441000;-0.11077880859375;-1.001434326171875;-0.024444580078125;-0.0018546254141256213;0.0019715381786227226;0.006375873927026987
1767541877850441200;-0.110931396484375;-0.9993438720703125;-0.027069091796875;-0.0008514125947840512;0.0016476977616548538;-0.0006964165950194001
1767541877860441000;-0.110321044921875;-0.999420166015625;-0.027740478515625;-0.0019470370607450604;0.0010343717876821756;-0.00415319949388504
1767541877870441200;-0.1119384765625;-0.9976043701171875;-0.02935791015625;0.0009691243176348507;0.000743554555810988;-0.007922371849417686
1767541877880441000;-0.1132659912109375;-0.994384765625;-0.0307464599609375;0.0010761833982542157;0.00256462418474257;-0.006809968966990709
1767541877890441200;-0.115020751953125;-0.9937744140625;-0.0309906005859375;0.00015393071225844324;0.004205397795885801;-0.0035369442775845528
1767541877900441000;-0.1147613525390625;-0.9932403564453125;-0.031494140625;0.0003057308786083013;0.007767908275127411;0.0018607506062835455
1767541877910441200;-0.1123809814453125;-0.9915771484375;-0.0304718017578125;-0.000036485307646216825;0.008460596203804016;0.005001682788133621
1767541877920441000;-0.1136627197265625;-0.9915008544921875;-0.0270538330078125;0.00006364954606397077;0.004920456558465958;0.006009423173964024
1767541877930442000;-0.1113739013671875;-0.993133544921875;-0.0276947021484375;0.000024767397917457856;0.0033156354911625385;0.0065140919759869576
1767541877940442000;-0.1109771728515625;-0.993865966796875;-0.0274200439453125;-0.0013206616276875138;0.0024197481106966734;0.009223326109349728
1767541877950442000;-0.1094512939453125;-0.9967498779296875;-0.0263519287109375;-0.0005459480453282595;0.003863980295136571;0.010448379442095757
1767541877960442000;-0.110076904296875;-0.996337890625;-0.0257110595703125;-0.0029699571896344423;0.002198705682530999;0.012046809308230877
1767541877970442000;-0.10797119140625;-0.995025634765625;-0.025543212890625;-0.001987783471122384;0.005163336638361216;0.008617988787591457
1767541877980442000;-0.10943603515625;-0.99810791015625;-0.025299072265625;-0.003346794517710805;0.0030005834996700287;0.0043745082803070545
1767541877990442000;-0.1117706298828125;-0.9973907470703125;-0.0260009765625;0.00009161273919744417;0.0025750105269253254;0.004995557479560375
1767541878000442000;-0.108917236328125;-0.99737548828125;-0.025421142578125;-0.00009374327055411413;-0.0002681803307496011;0.0070741549134254456
1767541878010442000;-0.109375;-0.99578857421875;-0.02581787109375;0.0008602010202594101;-0.0059870523400604725;0.00774660287424922
1767541878020442000;-0.1131591796875;-0.993499755859375;-0.027923583984375;-0.0008245146600529552;-0.00803289283066988;0.00683154072612524
1767541878030442000;-0.1119232177734375;-0.992767333984375;-0.0267791748046875;-0.0018991001415997744;-0.0073567163199186325;0.007415305823087692
1767541878040442000;-0.1118011474609375;-0.994293212890625;-0.025421142578125;-0.002261023735627532;-0.009387909434735775;0.006943659856915474
1767541878050441700;-0.1129913330078125;-0.9940185546875;-0.0291900634765625;-0.0015941682504490018;-0.0022274679504334927;0.012480105273425579
1767541878060441900;-0.1099090576171875;-0.9956207275390625;-0.0300140380859375;-0.001457814360037446;0.0036690370179712772;0.014711834490299225
1767541878070441700;-0.108551025390625;-0.9960174560546875;-0.03076171875;-0.002034921431913972;0.004452539142221212;0.014984807930886745
1767541878080441600;-0.1069488525390625;-0.9971466064453125;-0.0309295654296875;-0.0016964336391538382;0.0007792409160174429;0.013303554616868496
1767541878090441700;-0.1076812744140625;-0.9977264404296875;-0.0307159423828125;-0.002681004349142313;0.0014500912511721253;0.011441206559538841
1767541878100441600;-0.109039306640625;-0.99676513671875;-0.0300750732421875;-0.0017576862592250109;0.0060150157660245895;0.010773285292088985
1767541878110441700;-0.1078948974609375;-0.9951019287109375;-0.02960205078125;-0.004518851637840271;0.004970257636159658;0.00887791346758604
1767541878120441600;-0.1108856201171875;-0.9957122802734375;-0.0289764404296875;-0.004701278172433376;0.0067875985987484455;0.007582818623632193
1767541878130441700;-0.11383056640625;-0.9949188232421875;-0.028472900390625;-0.0041465419344604015;0.008800948038697243;0.011395134031772614
1767541878140441600;-0.109375;-0.994049072265625;-0.0298004150390625;-0.003471164032816887;0.008831840939819813;0.015988022089004517
1767541878150441700;-0.1085357666015625;-0.996307373046875;-0.027618408203125;-0.0038780951872467995;0.006185990758240223;0.017258083447813988
1767541878160441600;-0.1096343994140625;-0.995147705078125;-0.0260772705078125;-0.004726844374090433;0.00643686018884182;0.018061291426420212
1767541878170441700;-0.106109619140625;-0.9953765869140625;-0.02508544921875;-0.0024767396971583366;0.00897032581269741;0.02093297801911831
1767541878180441600;-0.1063232421875;-0.9949951171875;-0.027069091796875;0.001961151836439967;0.006856841035187244;0.017599500715732574
1767541878190441700;-0.107391357421875;-0.9945220947265625;-0.0268402099609375;0.003120425855740905;0.005468801129609346;0.016118248924613
1767541878200441600;-0.1070404052734375;-0.9958648681640625;-0.02838134765625;0.004433896858245134;0.010468886233866215;0.018188856542110443
1767541878210442800;-0.1082763671875;-0.994232177734375;-0.0281982421875;0.003204315435141325;0.011934956535696983;0.0206323079764843
1767541878220443000;-0.1074371337890625;-0.9957275390625;-0.0311431884765625;0.0023489079903811216;0.010575945489108562;0.019136942923069
1767541878230442800;-0.1083831787109375;-0.9971466064453125;-0.0325927734375;-0.000666322885081172;0.013666277751326561;0.020956946536898613
1767541878240443000;-0.1045989990234375;-0.9991912841796875;-0.031280517578125;-0.0009294432238675654;0.013527792878448963;0.02040540613234043
1767541878250442800;-0.103271484375;-1.0005645751953125;-0.02996826171875;-0.0024311996530741453;0.012372779659926891;0.01667378470301628
1767541878260442600;-0.0995330810546875;-0.99945068359375;-0.029632568359375;-0.002020274056121707;0.012237224727869034;0.010410030372440815
1767541878270442800;-0.103851318359375;-1.000335693359375;-0.0287628173828125;-0.0013523531379178166;0.0125818382948637;0.006089317612349987
1767541878280442600;-0.1074676513671875;-0.9986724853515625;-0.0284881591796875;-0.004286890383809805;0.016744624823331833;0.0062738750129938126
1767541878290442800;-0.1074371337890625;-0.99664306640625;-0.0281829833984375;-0.005539374891668558;0.019283415749669075;0.006591323763132095
1767541878300442600;-0.1057891845703125;-0.9947357177734375;-0.0279388427734375;-0.003198722843080759;0.015851933509111404;0.004067978356033564
1767541878310442800;-0.1058807373046875;-0.9924163818359375;-0.0279541015625;-0.0037111148703843355;0.01435097586363554;0.0016793893883004785
1767541878320442600;-0.1051177978515625;-0.9939727783203125;-0.02850341796875;-0.0020871192682534456;0.012088088318705559;0.0009547432418912649
1767541878330442800;-0.103302001953125;-0.9959259033203125;-0.027587890625;-0.003653058083727956;0.013594372197985649;0.002258893335238099
1767541878340442600;-0.1018218994140625;-0.9946441650390625;-0.024932861328125;-0.002169144805520773;0.008051002398133278;0.0011627360945567489
1767541878350442800;-0.1041412353515625;-0.9943695068359375;-0.025146484375;0.00013369068619795144;0.0015137407463043928;0.0014293185668066144
1767541878360442600;-0.1044769287109375;-0.996673583984375;-0.025787353515625;0.0029885992407798767;-0.00044314999831840396;-0.00004820321555598639
1767541878370442800;-0.1030426025390625;-0.9977569580078125;-0.0275726318359375;0.0012812467757612467;-0.0009472863748669624;-0.00007163903501350433
1767541878380442600;-0.1035003662109375;-0.997711181640625;-0.0257568359375;-0.0006253102328628302;0.00013422331539914012;-0.000672448193654418
1767541878390442500;-0.1042633056640625;-0.997283935546875;-0.026824951171875;-0.0030338731594383717;0.0027276095934212208;-0.002367816399782896
1767541878400442600;-0.1067352294921875;-0.998504638671875;-0.0287322998046875;-0.0025979136116802692;0.0035113778430968523;-0.001785383210517466
1767541878410442500;-0.1017608642578125;-0.9954071044921875;-0.028167724609375;-0.0016056197928264737;0.0037830201908946037;-0.0007547398563474417
1767541878420442600;-0.1016845703125;-0.9969482421875;-0.0290374755859375;-0.0017044231062754989;0.0035228293854743242;-0.0009523464250378311
1767541878430442500;-0.1031036376953125;-0.9964752197265625;-0.0300140380859375;0.00048655952559784055;0.010350109077990055;0.002433063928037882
1767541878440443000;-0.101470947265625;-0.9967498779296875;-0.0279998779296875;0.0019121496006846428;0.012322179973125458;0.005216067191213369
1767541878450442800;-0.1047821044921875;-0.9936370849609375;-0.0274505615234375;0.0025904567446559668;0.0076363482512533665;0.005642172880470753
1767541878460443000;-0.1066131591796875;-0.994384765625;-0.0254669189453125;0.00333134806714952;0.006804909091442823;0.00566880451515317
1767541878470442800;-0.1035614013671875;-0.99560546875;-0.023468017578125;0.004222708288580179;0.0024402544368058443;0.006930876523256302
1767541878480443600;-0.09759521484375;-0.99627685546875;-0.0234832763671875;0.0059963734820485115;-0.0004676510870922357;0.00373055599629879
1767541878490443800;-0.09783935546875;-0.996368408203125;-0.0270538330078125;0.002183259464800358;-0.0018607506062835455;-0.005146558862179518
1767541878500443600;-0.0947113037109375;-1.00042724609375;-0.02716064453125;-0.00043036683928221464;0.006596916355192661;-0.001871136948466301
1767541878510443800;-0.08905029296875;-1.0013427734375;-0.0243377685546875;-0.004128698725253344;-0.008839031681418419;-0.009950901381671429
1767541878520443600;-0.092132568359375;-0.9998931884765625;-0.0261077880859375;-0.009023589082062244;-0.023389479145407677;-0.01980486325919628
1767541878530443800;-0.1021575927734375;-1.0020294189453125;-0.0229034423828125;-0.010000170208513737;-0.019655726850032806;-0.0247905682772398
1767541878540443600;-0.1031951904296875;-1.0040283203125;-0.02056884765625;-0.01088620349764824;-0.019836023449897766;-0.02472079172730446
1767541878550443800;-0.1052093505859375;-1.00286865234375;-0.0215606689453125;-0.011110974475741386;-0.01900644786655903;-0.02756797894835472
1767541878560443600;-0.10601806640625;-1.0007476806640625;-0.022003173828125;-0.00782649777829647;-0.022708507254719734;-0.030795728787779808
1767541878570443500;-0.104522705078125;-0.9969940185546875;-0.026519775390625;-0.004839496221393347;-0.02299346588551998;-0.0313616506755352
1767541878580443600;-0.105865478515625;-0.9945526123046875;-0.026458740234375;-0.0035800873301923275;-0.020671457052230835;-0.03329137712717056
1767541878590443500;-0.1075897216796875;-0.99249267578125;-0.0277557373046875;-0.000391218374716118;-0.01835450530052185;-0.03200054168701172
1767541878600443600;-0.11004638671875;-0.9895172119140625;-0.0288543701171875;0.0007174555794335902;-0.014660968445241451;-0.02869902178645134
1767541878610443500;-0.1027679443359375;-0.9847564697265625;-0.0284881591796875;0.005079447291791439;-0.007437676191329956;-0.023154588416218758
1767541878620443600;-0.106658935546875;-0.9882049560546875;-0.0298919677734375;0.005169994663447142;-0.017173927277326584;-0.016324378550052643
1767541878630443500;-0.1028594970703125;-0.9925994873046875;-0.029296875;0.011744806542992592;-0.01673317328095436;-0.013525662012398243
1767541878640444000;-0.106964111328125;-0.9934539794921875;-0.0318756103515625;0.01515977829694748;-0.01576351746916771;-0.013605557382106781
1767541878650443800;-0.1089630126953125;-0.996673583984375;-0.0367431640625;0.015558453276753426;-0.00455773388966918;-0.00947792362421751
1767541878660444000;-0.10516357421875;-0.9993896484375;-0.0353851318359375;0.013961621560156345;0.006726079620420933;-0.00951041467487812
1767541878670443800;-0.1051788330078125;-1.00048828125;-0.035400390625;0.009305351413786411;0.008025169372558594;-0.012165852822363377
1767541878680443600;-0.110595703125;-1.000457763671875;-0.0345916748046875;0.004022438544780016;0.010974087752401829;-0.009820139966905117
1767541878690443800;-0.10504150390625;-0.999114990234375;-0.035675048828125;0.0014777880860492587;0.01756647601723671;-0.0070547135546803474
1767541878700443600;-0.102630615234375;-0.9966583251953125;-0.0333251953125;-0.0008468852029182017;0.01792866736650467;-0.009681656025350094
1767541878710443800;-0.1015472412109375;-0.9975128173828125;-0.0311126708984375;-0.0006759102689102292;0.020743360742926598;-0.005932990461587906
1767541878720443600;-0.104217529296875;-0.993011474609375;-0.0317230224609375;0.0011944277212023735;0.01606844924390316;-0.005100752227008343
1767541878730443800;-0.1009979248046875;-0.99298095703125;-0.0273284912109375;0.0035334820859134197;0.013708887621760368;-0.0027590349782258272
1767541878740444700;-0.101104736328125;-0.99114990234375;-0.02789306640625;0.005935919936746359;0.009471265599131584;-0.00035446672700345516
1767541878750443800;-0.1056365966796875;-0.9931640625;-0.0293121337890625;0.007544469088315964;0.01139859575778246;0.00038962045800872147
1767541878760444700;-0.1089935302734375;-0.99163818359375;-0.031951904296875;0.006873086094856262;0.008934905752539635;0.00618039770051837
1767541878770444500;-0.1104583740234375;-0.9923858642578125;-0.03369140625;0.003954261541366577;0.004890629090368748;0.009908290579915047
1767541878780444700;-0.105743408203125;-0.9944000244140625;-0.033538818359375;-0.0004777711001224816;0.0071164988912642;0.01176451425999403
1767541878790444500;-0.105194091796875;-0.9961395263671875;-0.0340423583984375;-0.006192115601152182;0.007280017249286175;0.0057015614584088326
1767541878800444700;-0.106903076171875;-0.9976043701171875;-0.0330810546875;-0.009693906642496586;0.011396464891731739;0.0043713124468922615
1767541878810444500;-0.10723876953125;-0.9964447021484375;-0.0296173095703125;-0.00797510240226984;0.015959525480866432;0.004004062619060278
1767541878820444700;-0.1056671142578125;-0.9965667724609375;-0.029052734375;-0.004569718148559332;0.020247748121619225;0.005104747135192156
1767541878830444500;-0.1040191650390625;-0.994781494140625;-0.030517578125;-0.0014008227735757828;0.02310212329030037;0.003859453136101365
1767541878840445000;-0.106048583984375;-0.9934844970703125;-0.03204345703125;0.0010375675046816468;0.022584138438105583;0.0037023264449089766
1767541878850444800;-0.1053466796875;-0.994903564453125;-0.034027099609375;0.0010484865633770823;0.01961258426308632;0.0025984463281929493
1767541878860444700;-0.1074676513671875;-0.994903564453125;-0.033843994140625;-0.001561677665449679;0.024282170459628105;0.0022836606949567795
1767541878870444800;-0.1026763916015625;-0.994598388671875;-0.030731201171875;-0.002386725042015314;0.020173445343971252;0.002161954063922167
1767541878880444700;-0.10687255859375;-0.99468994140625;-0.0299072265625;-0.0020069582387804985;0.016763268038630486;0.0021811288315802813
1767541878890444800;-0.1064910888671875;-0.994598388671875;-0.0296173095703125;-0.0020564929582178593;0.027231354266405106;-0.0008705873624421656
1767541878900444700;-0.10150146484375;-0.997161865234375;-0.0311126708984375;0.000529436394572258;0.029926739633083344;-0.005690642632544041
1767541878910444800;-0.105010986328125;-1.0003662109375;-0.0279388427734375;0.004567055031657219;0.032592032104730606;-0.005146292503923178
1767541878920444700;-0.096099853515625;-0.9957733154296875;-0.03143310546875;0.009498164057731628;0.0370621457695961;-0.013442572206258774
1767541878930444800;-0.105194091796875;-0.999786376953125;-0.033172607421875;0.007682953495532274;0.029285984113812447;-0.013905961997807026
1767541878940444700;-0.104339599609375;-0.999725341796875;-0.0321502685546875;0.010953315533697605;0.030663901939988136;-0.01817873679101467
1767541878950444800;-0.1045379638671875;-0.9958343505859375;-0.0332489013671875;0.006365221459418535;0.021395303308963776;-0.028370654210448265
1767541878960444700;-0.105194091796875;-0.9979705810546875;-0.0305938720703125;0.005348692648112774;0.01587563566863537;-0.03646453469991684
1767541878970444800;-0.106353759765625;-0.9954681396484375;-0.033477783203125;-0.00245090713724494;0.014338192529976368;-0.038964178413152695
1767541878980444700;-0.10845947265625;-0.9931488037109375;-0.0277862548828125;-0.005498628597706556;0.01251206360757351;-0.03707386553287506
1767541878990444500;-0.10955810546875;-0.9913787841796875;-0.025115966796875;-0.004637628793716431;0.010219081304967403;-0.03804272413253784
1767541879000444700;-0.115997314453125;-0.9930267333984375;-0.0253448486328125;0.0005643238546326756;0.005766276270151138;-0.029652699828147888
1767541879010445600;-0.11065673828125;-0.993988037109375;-0.0218658447265625;0.008199873380362988;0.0007651261985301971;-0.024455275386571884
1767541879020445700;-0.1053466796875;-0.99395751953125;-0.0227508544921875;0.015235145576298237;-0.011107511818408966;-0.026254240423440933
1767541879030445600;-0.10870361328125;-0.9948272705078125;-0.026153564453125;0.019123626872897148;-0.008391087874770164;-0.024391358718276024
1767541879040445700;-0.103515625;-0.9969635009765625;-0.0284423828125;0.018637599423527718;-0.012516058050096035;-0.023203855380415916
1767541879050445800;-0.1038970947265625;-0.9969482421875;-0.0322723388671875;0.017360081896185875;-0.011641742661595345;-0.029393041506409645
1767541879060445400;-0.109771728515625;-0.9976806640625;-0.0327301025390625;0.0153177035972476;-0.012242019176483154;-0.031199997290968895
1767541879070445600;-0.1150665283203125;-0.99700927734375;-0.0329437255859375;0.012195147573947906;-0.012062788009643555;-0.027895813807845116
1767541879080445400;-0.1144561767578125;-0.9965972900390625;-0.0323028564453125;0.009042230434715748;-0.010144779458642006;-0.023839285597205162
1767541879090445600;-0.1141815185546875;-0.99713134765625;-0.033660888671875;0.007448861375451088;-0.005927663762122393;-0.021408619359135628
1767541879100445400;-0.1165618896484375;-0.9956512451171875;-0.0359344482421875;0.006484530866146088;-0.0031843415927141905;-0.01678617112338543
1767541879110445600;-0.1108551025390625;-0.9970855712890625;-0.0343780517578125;0.0035185683518648148;0.0005065332516096532;-0.012880112044513226
1767541879120445400;-0.1074676513671875;-0.99591064453125;-0.0339508056640625;-0.0006487460341304541;-0.002320145955309272;-0.012183696031570435
1767541879130445600;-0.110137939453125;-0.9970855712890625;-0.034454345703125;-0.003820837242528796;0.002031991956755519;-0.013912087306380272
1767541879140445400;-0.1075439453125;-0.9963531494140625;-0.03216552734375;-0.0056994310580194;0.003270095447078347;-0.01465617399662733
1767541879150445600;-0.1088714599609375;-0.9953155517578125;-0.0291290283203125;-0.005665076430886984;-0.0010490191634744406;-0.01338984165340662
1767541879160445400;-0.111114501953125;-0.9935150146484375;-0.029144287109375;-0.004202734678983688;0.001588575541973114;-0.012869725935161114
1767541879170445600;-0.1084442138671875;-0.9947967529296875;-0.0273895263671875;-0.0009709885343909264;0.0018836538074538112;-0.010547183454036713
1767541879180445400;-0.1070098876953125;-0.99420166015625;-0.026336669921875;0.0013379721203818917;-0.0005392901366576552;-0.011800733394920826
1767541879190445300;-0.1090545654296875;-0.993621826171875;-0.0281829833984375;0.0006183860241435468;-0.0035324168857187033;-0.013343501836061478
1767541879200445400;-0.109954833984375;-0.9950103759765625;-0.0294342041015625;0.002840527566149831;-0.010945592075586319;-0.014455637894570827
1767541879210445300;-0.1140899658203125;-0.994476318359375;-0.0291748046875;0.0018732674652710557;-0.010692325420677662;-0.00926247425377369
1767541879220445400;-0.1129913330078125;-0.9941864013671875;-0.0311431884765625;-0.002296710154041648;-0.006310093682259321;-0.004574511665850878
1767541879230445300;-0.114105224609375;-0.9952545166015625;-0.032073974609375;-0.0051801144145429134;-0.006933273747563362;-0.002969424705952406
1767541879240445400;-0.1130218505859375;-0.9964141845703125;-0.0316162109375;-0.00535614974796772;-0.004769987892359495;-0.00173744629137218
1767541879250445300;-0.10638427734375;-0.997772216796875;-0.0302581787109375;-0.006393717136234045;-0.006347644608467817;-0.005815544631332159
1767541879260445400;-0.1053009033203125;-0.9986572265625;-0.0277252197265625;-0.0030421288684010506;-0.009425725787878036;-0.006179599091410637
1767541879270445300;-0.1080474853515625;-0.9987335205078125;-0.027069091796875;-0.0017896442441269755;-0.009952765889465809;-0.009350092150270939
1767541879280446500;-0.107818603515625;-0.99749755859375;-0.02484130859375;-0.0012205267557874322;-0.009453422389924526;-0.010727212764322758
1767541879290446600;-0.1094818115234375;-0.995452880859375;-0.02752685546875;-0.0009315737406723201;-0.014388793148100376;-0.012555738911032677
1767541879300446500;-0.1102142333984375;-0.9933929443359375;-0.03033447265625;-0.004870655480772257;-0.01955133117735386;-0.01660933718085289
1767541879310446600;-0.111480712890625;-0.9947967529296875;-0.0294952392578125;-0.003094326937571168;-0.020900754258036613;-0.01757073774933815
1767541879320446500;-0.1114349365234375;-0.9940032958984375;-0.0298004150390625;-0.0031158984638750553;-0.018557971343398094;-0.017248760908842087
1767541879330446600;-0.1121826171875;-0.995849609375;-0.030609130859375;-0.0024051007349044085;-0.018553975969552994;-0.015123026445508003
1767541879340446500;-0.115386962890625;-0.9951019287109375;-0.0311737060546875;-0.002438922878354788;-0.015894809737801552;-0.011726696975529194
1767541879350446300;-0.1143035888671875;-0.9961395263671875;-0.032470703125;-0.0014567491598427296;-0.013739514164626598;-0.00695085059851408
1767541879360446500;-0.1118316650390625;-0.99609375;-0.031982421875;-0.0014176006661728024;-0.011565576307475567;-0.009209477342665195
1767541879370446300;-0.1146240234375;-0.9956512451171875;-0.032379150390625;-0.0031337416730821133;-0.01607137732207775;-0.010729876346886158
1767541879380446500;-0.1158905029296875;-0.995849609375;-0.03240966796875;-0.005815012380480766;-0.013374661095440388;-0.010362359695136547
1767541879390446300;-0.116851806640625;-0.99810791015625;-0.030731201171875;-0.007748733274638653;-0.009064069017767906;-0.009001217782497406
1767541879400446500;-0.1159515380859375;-0.9960174560546875;-0.031158447265625;-0.00558145297691226;-0.004033890087157488;-0.008784170262515545
1767541879410446300;-0.113677978515625;-0.9949951171875;-0.0316009521484375;-0.006619819439947605;-0.0019017633749172091;-0.009644904173910618
1767541879420446500;-0.11370849609375;-0.9960479736328125;-0.031463623046875;-0.003841609926894307;0.0011339739430695772;-0.008347677998244762
1767541879430446300;-0.111724853515625;-0.996795654296875;-0.0305023193359375;-0.003234142903238535;0.0003211772127542645;-0.00812130980193615
1767541879440446500;-0.110809326171875;-0.9967193603515625;-0.027984619140625;-0.000833036785479635;0.0012684636749327183;-0.0060144830495119095
1767541879450446300;-0.1094512939453125;-0.9967803955078125;-0.029266357421875;-0.0012029499048367143;-0.005117796827107668;-0.008986038155853748
1767541879460446500;-0.113128662109375;-0.997650146484375;-0.0318145751953125;-0.0007193197961896658;-0.0019651465117931366;-0.009706955403089523
1767541879470446300;-0.1131134033203125;-0.99560546875;-0.0341949462890625;-0.0017496967921033502;-0.00017257283616345376;-0.011913917027413845
1767541879480446500;-0.1097412109375;-0.99542236328125;-0.0313873291015625;-0.0022234732750803232;0.0007395598222501576;-0.012704609893262386
1767541879490446300;-0.1101226806640625;-0.993927001953125;-0.030364990234375;-0.003849332919344306;-0.0017720673931762576;-0.012658271007239819
1767541879500446500;-0.1107940673828125;-0.994293212890625;-0.0287017822265625;-0.002895122393965721;-0.002959837205708027;-0.01227637380361557
1767541879510446600;-0.1107025146484375;-0.99249267578125;-0.029205322265625;-0.0013049489352852106;-0.006325007416307926;-0.013222328387200832
1767541879520446500;-0.1110687255859375;-0.993377685546875;-0.0292205810546875;-0.0008551410282962024;-0.010000170208513737;-0.01272911112755537
1767541879530446600;-0.114166259765625;-0.9961090087890625;-0.02978515625;-0.0018572885310277343;-0.009365271776914597;-0.011755192652344704
1767541879540447500;-0.1129150390625;-0.9966583251953125;-0.031219482421875;-0.0005001416429877281;-0.005034706089645624;-0.010843592695891857
1767541879550447400;-0.11651611328125;-0.9953155517578125;-0.0307464599609375;0.0025513083674013615;-0.004485029727220535;-0.01167476549744606
1767541879560447500;-0.1160125732421875;-0.9940338134765625;-0.03155517578125;0.007183876819908619;-0.004136155359447002;-0.012175972573459148
1767541879570447400;-0.117706298828125;-0.9918670654296875;-0.03131103515625;0.007152718026190996;-0.002341451123356819;-0.011510714888572693
1767541879580447500;-0.1202239990234375;-0.990631103515625;-0.0308380126953125;0.00788668543100357;0.0023249397054314613;-0.010663030669093132
1767541879590447400;-0.1218719482421875;-0.9919891357421875;-0.03167724609375;0.006864031311124563;0.004179831128567457;-0.0023241406306624413
1767541879600447500;-0.1170806884765625;-0.994049072265625;-0.03326416015625;0.008146876469254494;0.003341468283906579;0.00467651104554534
1767541879610447400;-0.11474609375;-0.995361328125;-0.036590576171875;0.005775597412139177;0.004721784498542547;0.00788535363972187
1767541879620447500;-0.1137237548828125;-0.9975128173828125;-0.0350494384765625;0.0031316110398620367;0.0033984598703682423;0.004548146389424801
1767541879630447400;-0.1117401123046875;-0.9980621337890625;-0.0335845947265625;0.0007837683078832924;0.002901247702538967;-0.0033995250705629587
1767541879640447500;-0.1125335693359375;-0.999420166015625;-0.0325469970703125;-0.001528920722194016;0.0011664645280689;-0.00675324397161603
1767541879650447400;-0.1128692626953125;-0.9996185302734375;-0.0312652587890625;-0.005407548509538174;0.003925499506294727;-0.010248109698295593
1767541879660447200;-0.1118927001953125;-0.9965057373046875;-0.0296478271484375;-0.005518602207303047;0.008189752697944641;-0.00945049338042736
1767541879670447400;-0.1126861572265625;-0.9914398193359375;-0.0271759033203125;-0.004854942671954632;0.005622465629130602;-0.010221478529274464
1767541879680447200;-0.1139678955078125;-0.9905548095703125;-0.0271759033203125;-0.004700745455920696;-0.00003382214708835818;-0.011991947889328003
1767541879690447400;-0.1148223876953125;-0.9913482666015625;-0.028656005859375;-0.002918291836977005;0.0012607404496520758;-0.009454754181206226
1767541879700447200;-0.1148681640625;-0.9927825927734375;-0.030792236328125;-0.00012064119800925255;0.00564030883833766;-0.0036005936563014984
1767541879710447600;-0.1134033203125;-0.993133544921875;-0.0308380126953125;0.0014692660188302398;0.0027510453946888447;-0.004707936197519302
1767541879720447500;-0.112213134765625;-0.995849609375;-0.033050537109375;-0.0007909588166512549;0.0005195827106945217;-0.004922853317111731
1767541879730447600;-0.1098480224609375;-0.9989013671875;-0.03192138671875;0.0004601942200679332;-0.001002413802780211;-0.0065596322529017925
1767541879740447500;-0.1125335693359375;-0.9992828369140625;-0.03228759765625;0.0012753878254443407;-0.00015899071877356619;-0.008127168752253056
1767541879750447600;-0.114471435546875;-0.9981689453125;-0.03277587890625;-0.001320927869528532;-0.00013209278404247016;-0.009904828853905201
1767541879760447500;-0.1149139404296875;-0.9962310791015625;-0.0297088623046875;0.0006591323763132095;0.005785717628896236;-0.012720322236418724
1767541879770447600;-0.117156982421875;-0.995941162109375;-0.0299072265625;-0.0002596582053229213;0.003972637467086315;-0.010148241184651852
1767541879780447500;-0.11627197265625;-0.995330810546875;-0.0302581787109375;0.00001757686368364375;0.0038980687968432903;-0.010379137471318245
1767541879790448400;-0.1153106689453125;-0.995269775390625;-0.0304107666015625;0.00021944446780253202;0.004257329273968935;-0.009118663147091866
1767541879800448500;-0.1124114990234375;-0.9968109130859375;-0.0295867919921875;0.00020453077740967274;0.005087703000754118;-0.010290986858308315
1767541879810448400;-0.1115264892578125;-0.996307373046875;-0.0299530029296875;0.0005001416429877281;0.0031182952225208282;-0.012146411463618279
1767541879820448500;-0.1129150390625;-0.995635986328125;-0.0298919677734375;-0.0002889529860112816;0.0005179848521947861;-0.010811635293066502
1767541879830448400;-0.110687255859375;-0.9947509765625;-0.0291900634765625;-0.0005451490869745612;0.002454369328916073;-0.01209927350282669
1767541879840448300;-0.11077880859375;-0.99237060546875;-0.031768798828125;0.000045273736759554595;0.00012303804396651685;-0.01284522470086813
1767541879850448400;-0.11297607421875;-0.9900360107421875;-0.0317840576171875;0.0017907095607370138;-0.00058323226403445;-0.012225240468978882
1767541879860448300;-0.1141510009765625;-0.99163818359375;-0.0339202880859375;-0.00042290997225791216;0.000618918624240905;-0.012486230581998825
1767541879870448400;-0.1150360107421875;-0.99169921875;-0.033721923828125;-0.00046046054922044277;-0.0018674085149541497;-0.008655006997287273
