timestamp;seconds_elapsed;acc_z;acc_y;acc_x;gyro_z;gyro_y;gyro_x
1768421481143108400;0.0491083984375;0.087677001953125;-0.997100830078125;-0.091156005859375;0.0303531121462583;-0.1267177313566208;-0.0859034582972526
1768421481153108500;0.0591083984375;0.089691162109375;-1.0036163330078125;-0.092681884765625;0.0349446684122085;-0.112310029566288;-0.1008621677756309
1768421481163108600;0.069108642578125;0.091217041015625;-1.0015411376953125;-0.0816650390625;0.0408843159675598;-0.1000855863094329;-0.1157281994819641
1768421481173108500;0.0791083984375;0.0858612060546875;-0.9987640380859376;-0.075836181640625;0.0431719720363616;-0.0904984772205352;-0.116512231528759
1768421481183108600;0.089108642578125;0.0797271728515625;-1.0134429931640625;-0.0818634033203125;0.0303429923951625;-0.0843220725655555;-0.1145225837826728
1768421481193108500;0.0991083984375;0.0791015625;-1.0290069580078125;-0.0811920166015625;0.0108542451635003;-0.0804255977272987;-0.1163071691989898
1768421481203108600;0.109108642578125;0.0780487060546875;-1.0313262939453125;-0.0791778564453125;-0.004815527703613;-0.0827420204877853;-0.1181231811642646
1768421481213108500;0.1191083984375;0.07098388671875;-1.025177001953125;-0.07891845703125;-0.0187776815146207;-0.0814969912171363;-0.1149375066161155
1768421481223108600;0.129108642578125;0.0636444091796875;-1.0100860595703125;-0.072113037109375;-0.0291951689869165;-0.0784721747040748;-0.1050728857517242
1768421481233108500;0.1391083984375;0.0636749267578125;-0.9929656982421876;-0.0669708251953125;-0.0332908444106578;-0.0778543204069137;-0.0892606377601623
1768421481243108600;0.149108642578125;0.069091796875;-0.981719970703125;-0.0641326904296875;-0.0320423543453216;-0.079617328941822;-0.0708965435624122
1768421481253108500;0.1591083984375;0.0739288330078125;-0.9740447998046876;-0.059722900390625;-0.0246797800064086;-0.0756630674004554;-0.0572137534618377
1768421481263108600;0.169108642578125;0.0830078125;-0.97314453125;-0.0593719482421875;-0.0198615882545709;-0.0734425261616706;-0.0518621318042278
1768421481273108500;0.1791083984375;0.08929443359375;-0.9774322509765624;-0.0624542236328125;-0.0126425586640834;-0.0723847150802612;-0.0532744079828262
1768421481283108400;0.1891083984375;0.0879974365234375;-0.9809417724609376;-0.062042236328125;-0.0062773367390036;-0.074156254529953;-0.0516006089746952
1768421481293108500;0.1991083984375;0.0864105224609375;-0.9875335693359376;-0.06256103515625;-0.0053454968146979;-0.0786724388599395;-0.0513087287545204
1768421481303108400;0.2091083984375;0.0888214111328125;-0.9907073974609376;-0.0610809326171875;-0.0026770094409585;-0.0826027318835258;-0.054256048053503
1768421481313107500;0.219107421875;0.093505859375;-0.99371337890625;-0.0571746826171875;-0.0019116170005872;-0.0938220992684364;-0.0524954311549663
1768421481323107600;0.229107666015625;0.09234619140625;-0.999847412109375;-0.0594482421875;-0.0049729207530617;-0.1031881719827652;-0.0503116399049758
1768421481333107500;0.239107421875;0.09149169921875;-0.999298095703125;-0.056396484375;-0.0051545482128858;-0.1113904416561126;-0.0506261587142944
1768421481343107600;0.249107666015625;0.09136962890625;-0.99652099609375;-0.055419921875;-0.0046472162939608;-0.1223908960819244;-0.0502405352890491
1768421481353107500;0.259107421875;0.0861663818359375;-0.9940338134765624;-0.057281494140625;-0.0026471822056919;-0.1328552514314651;-0.0431719720363616
1768421481363107300;0.269107421875;0.0830230712890625;-0.989654541015625;-0.0567169189453125;-0.0049454900436103;-0.1391078233718872;-0.0330263935029506
1768421481373107200;0.279107177734375;0.0829620361328125;-0.987518310546875;-0.0570831298828125;-0.0046093990094959;-0.1415206491947174;-0.0255666133016347
1768421481383107000;0.289107177734375;0.088043212890625;-0.986907958984375;-0.0585784912109375;-0.005828860681504;-0.1458245813846588;-0.0132084796205163
1768421481393107200;0.299107177734375;0.0914154052734375;-0.98699951171875;-0.062408447265625;-0.010545851662755;-0.1474448442459106;0.0008628641953691
1768421481403107000;0.309107177734375;0.0948028564453125;-0.9882965087890624;-0.0683135986328125;-0.0124042052775621;-0.1492888182401657;0.0132747925817966
1768421481413107200;0.319107177734375;0.0965423583984375;-0.9865570068359376;-0.0713043212890625;-0.0128012830391526;-0.1448432058095932;0.0231434032320976
1768421481423107000;0.329107177734375;0.1001434326171875;-0.9852752685546876;-0.07427978515625;-0.0079205073416233;-0.135588988661766;0.0239988099783658
1768421481433107200;0.339107177734375;0.10076904296875;-0.983184814453125;-0.074859619140625;-0.0014626081101596;-0.126026913523674;0.0202464163303375
1768421481443107000;0.349107177734375;0.098785400390625;-0.9835205078125;-0.07122802734375;0.0068637649528682;-0.1146578714251518;0.0220778714865446
1768421481453107200;0.359107177734375;0.0982666015625;-0.9855194091796876;-0.0663299560546875;0.0143003761768341;-0.1029546111822128;0.0237442106008529
1768421481463107000;0.369107177734375;0.1026458740234375;-0.9886627197265624;-0.0626373291015625;0.0227929297834634;-0.0900558531284332;0.0198328271508216
1768421481473107500;0.379107421875;0.1071929931640625;-0.991546630859375;-0.0636749267578125;0.0297621563076972;-0.0785251706838607;0.0148604391142725
1768421481483107300;0.389107421875;0.1051025390625;-0.9961700439453124;-0.0666351318359375;0.0360032729804515;-0.0673281773924827;0.0118188429623842
1768421481493106200;0.399106201171875;0.1033782958984375;-0.9963836669921876;-0.0699005126953125;0.0402076058089733;-0.0573791377246379;0.0104422541335225
1768421481503106000;0.40910595703125;0.0989837646484375;-1.0018157958984375;-0.0724639892578125;0.0415719449520111;-0.0509212389588356;0.0107522467151284
1768421481513106200;0.419106201171875;0.09246826171875;-1.00262451171875;-0.072662353515625;0.0425586439669132;-0.0461576431989669;0.0095972334966063
1768421481523106300;0.429106201171875;0.090576171875;-1.001953125;-0.0738525390625;0.0428928732872009;-0.0383047796785831;0.0106379967182874
1768421481533106400;0.4391064453125;0.0891876220703125;-0.9991302490234376;-0.0750274658203125;0.0475030690431594;-0.0330407731235027;0.01333524659276
1768421481543106300;0.449106201171875;0.08941650390625;-0.9935150146484376;-0.07421875;0.0499635636806488;-0.0291714668273925;0.0202381592243909
1768421481553106400;0.4591064453125;0.0904083251953125;-0.989166259765625;-0.07501220703125;0.0508759655058383;-0.0197324249893426;0.0282814390957355
1768421481563106300;0.469106201171875;0.0961151123046875;-0.9879150390625;-0.0775604248046875;0.0496173538267612;-0.0161755084991455;0.0338892564177513
1768421481573106200;0.479106201171875;0.1013336181640625;-0.9853973388671876;-0.0800933837890625;0.0457786731421947;-0.0098797949030995;0.040566336363554
1768421481583106300;0.489106201171875;0.102813720703125;-0.984466552734375;-0.0837554931640625;0.0444095432758331;-0.0046570696868002;0.0526213981211185
1768421481593106200;0.499106201171875;0.1014556884765625;-0.9848480224609376;-0.0876617431640625;0.0432944782078266;0.0010146644199267;0.0631656497716903
1768421481603106300;0.509106201171875;0.1000213623046875;-0.9899749755859376;-0.0886383056640625;0.0411029607057571;0.0049643986858427;0.072652630507946
1768421481613106200;0.519106201171875;0.0999298095703125;-0.99609375;-0.0890350341796875;0.0392304919660091;0.0129400333389639;0.07017083466053
1768421481623106300;0.529106201171875;0.0975341796875;-1.0001220703125;-0.089569091796875;0.0399410240352153;0.02367390319705;0.0651979148387909
1768421481633106200;0.539106201171875;0.09765625;-1.0040283203125;-0.0896148681640625;0.0405010879039764;0.0326855070888996;0.0575088337063789
1768421481643106300;0.549106201171875;0.0976715087890625;-1.00238037109375;-0.0862884521484375;0.0411682091653347;0.0399000123143196;0.0474926829338073
1768421481653106200;0.559106201171875;0.0977020263671875;-0.9991455078125;-0.0875701904296875;0.0448526926338672;0.0473667159676551;0.0478050746023654
1768421481663106300;0.569106201171875;0.0983123779296875;-0.9947357177734376;-0.09014892578125;0.0467760264873504;0.0539231523871421;0.0560227893292903
1768421481673105200;0.579105224609375;0.09765625;-0.9903106689453124;-0.08880615234375;0.050046656280756;0.062079083174467;0.0648562312126159
1768421481683105300;0.589105224609375;0.098785400390625;-0.99090576171875;-0.08880615234375;0.0543982610106468;0.0705892145633697;0.0710917562246322
1768421481693105200;0.599105224609375;0.103363037109375;-0.99493408203125;-0.0926666259765625;0.0560235865414142;0.0798104107379913;0.0696898624300956
1768421481703105300;0.609105224609375;0.1088409423828125;-0.9961090087890624;-0.0940093994140625;0.0558478198945522;0.0893442630767822;0.0628878846764564
1768421481713105200;0.619105224609375;0.11090087890625;-0.9932708740234376;-0.0975189208984375;0.0505752936005592;0.0981262996792793;0.0548696406185627
1768421481723105300;0.629105224609375;0.1093292236328125;-0.9879608154296876;-0.0957794189453125;0.0444817133247852;0.0989220514893531;0.0535564348101615
1768421481733105200;0.639105224609375;0.105255126953125;-0.97967529296875;-0.0897369384765625;0.0404646024107933;0.0969622358679771;0.0602548196911811
1768421481743105300;0.649105224609375;0.10321044921875;-0.9730072021484376;-0.0847625732421875;0.0363220535218715;0.0943275690078735;0.0712821707129478
1768421481753105200;0.659105224609375;0.1038360595703125;-0.972259521484375;-0.0792388916015625;0.0362586714327335;0.09108916670084;0.0774654969573021
1768421481763105300;0.669105224609375;0.10198974609375;-0.9764404296875;-0.0760498046875;0.0384296812117099;0.0866816341876983;0.0842168778181076
1768421481773105200;0.679105224609375;0.10205078125;-0.9827728271484376;-0.076446533203125;0.0394318290054798;0.0839718654751777;0.0885908529162406
1768421481783105000;0.68910498046875;0.10443115234375;-0.988067626953125;-0.0789794921875;0.0333805941045284;0.0751117914915084;0.089412435889244
1768421481793105200;0.699105224609375;0.1048736572265625;-0.9935150146484376;-0.079803466796875;0.0274902135133743;0.0657955259084701;0.0885261371731758
1768421481803105000;0.70910498046875;0.104644775390625;-0.9985198974609376;-0.0800323486328125;0.0214600190520286;0.0538669601082801;0.0908121913671493
1768421481813105200;0.719105224609375;0.1063232421875;-1.0037994384765625;-0.0770416259765625;0.0167712569236755;0.0374019667506217;0.0840291231870651
1768421481823105300;0.729105224609375;0.1041107177734375;-1.0080108642578125;-0.0740203857421875;0.011501925997436;0.0270718317478895;0.072048895061016
1768421481833105400;0.73910546875;0.09967041015625;-1.008758544921875;-0.0677947998046875;0.006769489031285;0.014977884478867;0.0650381222367286
1768421481843104000;0.74910400390625;0.0975341796875;-1.0092315673828125;-0.0641021728515625;0.0037433390971273;0.0027846011798828;0.0593080632388591
1768421481853104000;0.759104248046875;0.097747802734375;-1.006805419921875;-0.0634918212890625;0.0044115264900028;-0.0105146924033761;0.0525412373244762
1768421481863104000;0.76910400390625;0.0978546142578125;-1.002044677734375;-0.0634613037109375;0.006509032100439;-0.0180288013070821;0.0498842038214206
1768421481873104400;0.7791044921875;0.099639892578125;-0.9989166259765624;-0.0647735595703125;0.0102521050721406;-0.0225164946168661;0.042578887194395
1768421481883104300;0.789104248046875;0.10076904296875;-0.99761962890625;-0.0694580078125;0.0146497823297977;-0.0270041860640048;0.0347976610064506
1768421481893104400;0.7991044921875;0.1019134521484375;-0.9983367919921876;-0.0750885009765625;0.0154953366145491;-0.0323022790253162;0.0283871665596961
1768421481903104300;0.809104248046875;0.1011505126953125;-1.0005950927734375;-0.0784149169921875;0.0162317007780075;-0.034600056707859;0.0219750739634037
1768421481913104400;0.8191044921875;0.1045684814453125;-1.001953125;-0.08148193359375;0.0158964078873395;-0.0369739979505538;0.0129307126626372
1768421481923104300;0.829104248046875;0.1061248779296875;-1.00128173828125;-0.0838775634765625;0.0147706903517246;-0.0405615419149398;0.0060648168437182
1768421481933104400;0.8391044921875;0.10528564453125;-0.99749755859375;-0.0852508544921875;0.0147866690531373;-0.0449520274996757;0.0014602112350985
1768421481943104300;0.849104248046875;0.1038055419921875;-0.993255615234375;-0.0868377685546875;0.0150074455887079;-0.0496991127729415;0.001709749456495
1768421481953104400;0.8591044921875;0.1011199951171875;-0.9891204833984376;-0.0850372314453125;0.0170245226472616;-0.0493997745215892;0.0086526107043027
1768421481963104300;0.869104248046875;0.10101318359375;-0.9868621826171876;-0.085113525390625;0.0175827220082283;-0.052029114216566;0.012073440477252
1768421481973104000;0.879104248046875;0.1012725830078125;-0.9883270263671876;-0.0880126953125;0.0184463858604431;-0.05552664026618;0.0146814743056893
1768421481983104300;0.889104248046875;0.101318359375;-0.9937286376953124;-0.08782958984375;0.0172706004232168;-0.0573248080909252;0.0131986262276768
1768421481993104100;0.899104248046875;0.1039886474609375;-1.0;-0.0879058837890625;0.0154892113059759;-0.0578848719596862;0.0103735448792576
1768421482003104300;0.909104248046875;0.106964111328125;-1.0024566650390625;-0.088165283203125;0.0134926391765475;-0.0537495128810405;0.0058586881496012
1768421482013104000;0.919104248046875;0.1113739013671875;-1.00054931640625;-0.088958740234375;0.0089029474183917;-0.0502439960837364;-6.97748182574e-05
1768421482023103200;0.929103271484375;0.1133880615234375;-0.99871826171875;-0.08880615234375;0.0017321199411526;-0.0505635738372802;-0.0085820369422435
1768421482033103000;0.93910302734375;0.1124725341796875;-0.9961090087890624;-0.091461181640625;-0.0002418150252196;-0.0489275939762592;-0.0121559984982013
1768421482043103200;0.949103271484375;0.1092987060546875;-0.99310302734375;-0.09100341796875;-0.0041324268095195;-0.0486045554280281;-0.0131562817841768
1768421482053103000;0.95910302734375;0.1095428466796875;-0.9915008544921876;-0.0907440185546875;-0.0034365430474281;-0.0469161085784435;-0.010588196106255
1768421482063103200;0.969103271484375;0.10888671875;-0.9877166748046876;-0.0899810791015625;-0.0001549959706608;-0.0453024990856647;-0.0107943248003721
1768421482073103000;0.97910302734375;0.1115264892578125;-0.9845428466796876;-0.08843994140625;-0.0014876418281346;-0.0438859649002552;-0.0123101957142353
1768421482083103200;0.989103271484375;0.114013671875;-0.98638916015625;-0.086029052734375;-0.0006937534781172;-0.0449736006557941;-0.0144061036407947
1768421482093103000;0.99910302734375;0.114471435546875;-0.9891815185546876;-0.082183837890625;-0.0028093685396015;-0.0470735020935535;-0.014682806096971
1768421482103103200;1.009103271484375;0.116485595703125;-0.9937744140625;-0.083221435546875;-0.0036698358599096;-0.0516256429255008;-0.0155978677794337
1768421482113103000;1.01910302734375;0.117156982421875;-0.9962310791015624;-0.0799560546875;-0.0066089006140828;-0.0562030859291553;-0.0225942581892013
1768421482123103200;1.029103271484375;0.119293212890625;-0.998199462890625;-0.0775299072265625;-0.0063068978488445;-0.0565314516425132;-0.0261186864227056
1768421482133103000;1.03910302734375;0.1201019287109375;-0.994415283203125;-0.0770721435546875;-0.0034682345576584;-0.057682204991579;-0.028995431959629
1768421482143103200;1.049103271484375;0.116973876953125;-0.9903564453125;-0.0779266357421875;-0.0008250473183579;-0.0600787848234176;-0.0304631013423204
1768421482153103000;1.05910302734375;0.115203857421875;-0.9887237548828124;-0.0808258056640625;0.0023065637797117;-0.0605914406478405;-0.0300071667879819
1768421482163103000;1.06910302734375;0.115234375;-0.9875946044921876;-0.084716796875;0.0031236216891556;-0.0635909587144851;-0.0336093604564666
1768421482173103400;1.079103271484375;0.115936279296875;-0.9907684326171876;-0.0868377685546875;0.0029617014806717;-0.067119650542736;-0.0367271229624748
1768421482183103200;1.089103271484375;0.114410400390625;-0.9911041259765624;-0.0871734619140625;0.0002793656021822;-0.0701061189174652;-0.0328149385750293
1768421482193103400;1.099103271484375;0.11102294921875;-0.993896484375;-0.0887908935546875;-0.0021539647132158;-0.070061907172203;-0.0324660651385784
1768421482203103200;1.109103271484375;0.11328125;-0.9967041015625;-0.0863800048828125;-0.0012458267156034;-0.0685447081923484;-0.0339694172143936
1768421482213102000;1.11910205078125;0.11956787109375;-0.9944915771484376;-0.0854034423828125;-0.0022069616243243;-0.0704310238361358;-0.0382094383239746
1768421482223102200;1.129102294921875;0.11956787109375;-0.9907684326171876;-0.0868682861328125;-0.0034482609480619;-0.0705812275409698;-0.0392214395105838
1768421482233102300;1.139102294921875;0.11334228515625;-0.989349365234375;-0.088409423828125;-0.0060400492511689;-0.0701889395713806;-0.032049011439085
1768421482243102200;1.149102294921875;0.10791015625;-0.98968505859375;-0.0917205810546875;-0.0061202105134725;-0.0603906400501728;-0.025701368227601
1768421482253102300;1.159102294921875;0.10845947265625;-0.9911346435546876;-0.0946807861328125;-0.0059417788870632;-0.0531793311238288;-0.0247562117874622
1768421482263102200;1.169102294921875;0.1118316650390625;-0.992156982421875;-0.09661865234375;-0.008289354853332;-0.0469965375959873;-0.0279533378779888
1768421482273102300;1.179102294921875;0.1125030517578125;-0.991912841796875;-0.0995941162109375;-0.0071066454984247;-0.0390728339552879;-0.0330194681882858
1768421482283102200;1.189102294921875;0.114013671875;-0.989501953125;-0.097808837890625;-0.0065058362670242;-0.0326186642050743;-0.0410049557685852
1768421482293102300;1.199102294921875;0.1110992431640625;-0.98876953125;-0.092315673828125;-0.0042908852919936;-0.025144500657916;-0.0347843468189239
1768421482303102200;1.209102294921875;0.1060791015625;-0.9898681640625;-0.090301513671875;-0.0024445154704153;-0.0234318226575851;-0.0253628809005022
1768421482313102300;1.219102294921875;0.1031951904296875;-0.992340087890625;-0.0918121337890625;-0.0031039142049849;-0.0226030461490154;-0.0163302365690469
1768421482323102200;1.229102294921875;0.102813720703125;-0.997406005859375;-0.0924072265625;-0.0056996974162757;-0.0205420274287462;-0.0122561333701014
1768421482333102300;1.239102294921875;0.105194091796875;-1.00146484375;-0.091156005859375;-0.0080475397408008;-0.0174817889928817;-0.0148639008402824
1768421482343102200;1.249102294921875;0.10882568359375;-0.999969482421875;-0.0901031494140625;-0.0110787497833371;-0.0107559747993946;-0.0227575097233057
1768421482353102000;1.25910205078125;0.1108551025390625;-0.9980926513671876;-0.091064453125;-0.0097322557121515;-0.0053777210414409;-0.0253085531294345
1768421482363102200;1.269102294921875;0.110382080078125;-0.993896484375;-0.0901641845703125;-0.0102899214252829;-0.0046181874349713;-0.024844629690051
1768421482373102600;1.2791025390625;0.1082763671875;-0.9909820556640624;-0.0879058837890625;-0.0088518150150775;-0.00365572120063;-0.0196157786995172
1768421482383102700;1.289102783203125;0.1065521240234375;-0.989715576171875;-0.0870208740234375;-0.0095096156001091;-0.0033968619536608;-0.0162460822612047
1768421482393101600;1.2991015625;0.1068572998046875;-0.990997314453125;-0.0843505859375;-0.0109983226284384;-0.0044663874432444;-0.0102334627881646
1768421482403101700;1.309101806640625;0.1064910888671875;-0.993072509765625;-0.080718994140625;-0.0112089784815907;-0.0015760586829856;-0.0064312675967812
1768421482413101600;1.3191015625;0.1087646484375;-0.993682861328125;-0.082427978515625;-0.0124247120693326;-0.0005914880894124;-0.0027257453184574
1768421482423101700;1.329101806640625;0.1136016845703125;-0.99505615234375;-0.0831756591796875;-0.0128683941438794;-0.0002593918761704;-0.0028778119012713
1768421482433101600;1.3391015625;0.11541748046875;-0.992279052734375;-0.082855224609375;-0.0137717388570308;0.0019907129462808;-0.0033680999185889
1768421482443101700;1.349101806640625;0.116180419921875;-0.9889068603515624;-0.0833892822265625;-0.0130968932062387;-0.00126899627503;0.0004340952436905
1768421482453101600;1.3591015625;0.115325927734375;-0.9868316650390624;-0.0805511474609375;-0.0128609370440244;-0.0015795208746567;0.0024327975697815
1768421482463101700;1.369101806640625;0.1174774169921875;-0.987823486328125;-0.0778045654296875;-0.0131339114159345;-0.0039183087646961;0.0049204565584659
1768421482473101600;1.3791015625;0.1180419921875;-0.9910888671875;-0.076812744140625;-0.0131142036989331;-0.0062096924521028;0.0083008063957095
1768421482483101700;1.389101806640625;0.118743896484375;-0.9897003173828124;-0.075103759765625;-0.013529391027987;-0.0095026912167668;0.0077125146053731
1768421482493101600;1.3991015625;0.1187896728515625;-0.9882049560546876;-0.0765380859375;-0.0149328764528036;-0.0095911081880331;0.0064216800965368
1768421482503101700;1.409101806640625;0.1173248291015625;-0.9840850830078124;-0.07623291015625;-0.0104252099990844;-0.01174081210047;0.0122465463355183
1768421482513101600;1.4191015625;0.11309814453125;-0.9834442138671876;-0.075836181640625;-0.0092286523431539;-0.0081673823297023;0.0176170766353607
1768421482523101700;1.429101806640625;0.1143798828125;-0.984222412109375;-0.07635498046875;-0.0074065173976123;-0.0069758840836584;0.022407304495573
1768421482533101600;1.4391015625;0.1181182861328125;-0.984283447265625;-0.077972412109375;-0.0067199543118476;-0.0054980958811938;0.024179371073842
1768421482543101400;1.449101318359375;0.121185302734375;-0.9914703369140624;-0.07757568359375;-0.0059564262628555;-0.006392918061465;0.0187848731875419
1768421482553101600;1.4591015625;0.123077392578125;-0.9969329833984376;-0.0770416259765625;-0.0061463094316422;-0.0046639940701425;0.0103240106254816
1768421482563101400;1.469101318359375;0.1225128173828125;-1.0013885498046875;-0.07958984375;-0.0069551113992929;-0.0039308257400989;0.0031856733839958
1768421482573100500;1.4791005859375;0.1192626953125;-1.0007476806640625;-0.0796051025390625;-0.0074683027341961;-0.0065348646603524;-0.0023302659392356
1768421482583100700;1.4891005859375;0.115875244140625;-0.9995574951171876;-0.0789642333984375;-0.0099719399586319;-0.0086041409522295;-0.0064278054051101
1768421482593100500;1.4991005859375;0.11163330078125;-0.9973602294921876;-0.0769500732421875;-0.0111972605809569;-0.006090116687119;-0.0065809371881186
1768421482603100400;1.509100341796875;0.1113739013671875;-0.9955291748046876;-0.0761566162109375;-0.0114521253854036;-0.0066078351810574;-0.005788114387542
1768421482613100500;1.5191005859375;0.1127777099609375;-0.99334716796875;-0.0748138427734375;-0.0113890087231993;-0.004840028937906;-0.0092052165418863
1768421482623100400;1.529100341796875;0.1127166748046875;-0.992095947265625;-0.07415771484375;-0.0122207133099436;-0.0045894253998994;-0.0134731978178024
1768421482633100500;1.5391005859375;0.111328125;-0.99359130859375;-0.075347900390625;-0.010495251044631;-0.0046277749352157;-0.0116979349404573
1768421482643100400;1.549100341796875;0.1069183349609375;-0.994964599609375;-0.0756683349609375;-0.0100947124883532;-0.0016961672808974;-0.0134068857878446
1768421482653100500;1.5591005859375;0.1055755615234375;-0.994873046875;-0.0780487060546875;-0.0076901437714695;0.0007470166892744;-0.0134950364008545
1768421482663100400;1.569100341796875;0.1071014404296875;-0.995880126953125;-0.0784149169921875;-0.0093836477026343;0.003190200543031;-0.0153070511296391
1768421482673100800;1.579100830078125;0.10894775390625;-0.9951171875;-0.079498291015625;-0.0106169581413269;0.0042330943979322;-0.0180940497666597
1768421482683100700;1.5891005859375;0.1102447509765625;-0.99609375;-0.0809783935546875;-0.0123645244166255;0.007955128327012;-0.0195033941417932
1768421482693100800;1.599100830078125;0.109466552734375;-0.996978759765625;-0.0793914794921875;-0.0134407076984643;0.008961004205048;-0.0220608264207839
1768421482703100700;1.6091005859375;0.1089630126953125;-0.9975433349609376;-0.0789794921875;-0.0151720289140939;0.0108704911544919;-0.0213486980646848
1768421482713100500;1.6191005859375;0.111297607421875;-0.9969024658203124;-0.078369140625;-0.0138313937932252;0.0099130840972065;-0.024494158104062
1768421482723100700;1.6291005859375;0.1125030517578125;-0.9940185546875;-0.07940673828125;-0.0149597749114036;0.0113179022446274;-0.0267000533640384
1768421482733100500;1.6391005859375;0.112701416015625;-0.9926300048828124;-0.0797882080078125;-0.0165411606431007;0.0115535920485854;-0.0304721556603908
1768421482743100700;1.6491005859375;0.10986328125;-0.9921417236328124;-0.0797576904296875;-0.0177425108850002;0.0115623800083994;-0.0300090312957763
1768421482753099800;1.659099853515625;0.1065216064453125;-0.9920806884765624;-0.07763671875;-0.0172247923910617;0.0129948947578668;-0.0299464464187622
1768421482763099600;1.669099609375;0.1064453125;-0.9920196533203124;-0.0760498046875;-0.0179760716855525;0.0138050280511379;-0.0274177752435207
1768421482773099800;1.679099853515625;0.10589599609375;-0.9934234619140624;-0.0750274658203125;-0.0158969406038522;0.0124793061986565;-0.02630883641541
1768421482783099600;1.689099609375;0.1053314208984375;-0.9935150146484376;-0.0753173828125;-0.0164090674370527;0.0119964750483632;-0.0261802040040493
1768421482793099500;1.699099609375;0.1088409423828125;-0.9929046630859376;-0.0752716064453125;-0.0134793231263756;0.0119269667193293;-0.0306702945381402
1768421482803099600;1.709099609375;0.1086883544921875;-0.9933624267578124;-0.0763397216796875;-0.0122079299762845;0.0079876193776726;-0.0337928496301174
1768421482813099500;1.719099609375;0.10418701171875;-0.9954071044921876;-0.07666015625;-0.0100398510694503;0.0029004486277699;-0.0306050479412078
1768421482823099600;1.729099609375;0.101470947265625;-0.9968109130859376;-0.0734100341796875;-0.0101794004440307;-0.0031023162882775;-0.0279546696692705
1768421482833099500;1.739099609375;0.102691650390625;-0.999542236328125;-0.07318115234375;-0.010038785636425;-0.0058738682419061;-0.0243447534739971
1768421482843099600;1.749099609375;0.10577392578125;-0.99932861328125;-0.0712432861328125;-0.0109554454684257;-0.0111232250928878;-0.0246097389608621
1768421482853099500;1.759099609375;0.1092987060546875;-0.997314453125;-0.07171630859375;-0.0140359243378043;-0.0146985184401273;-0.0235913451761007
1768421482863099600;1.769099609375;0.107086181640625;-0.9968719482421876;-0.07220458984375;-0.01329290214926;-0.0177515670657157;-0.0216285958886146
1768421482873099500;1.779099609375;0.1076507568359375;-0.9954833984375;-0.073883056640625;-0.0139001030474901;-0.0113557185977697;-0.0176290608942508
1768421482883099600;1.789099609375;0.112762451171875;-0.9929962158203124;-0.0774993896484375;-0.0098571581766009;-0.0072115738876163;-0.0210456307977437
1768421482893099500;1.799099609375;0.1175994873046875;-0.9877166748046876;-0.082916259765625;-0.0105618303641676;-0.0067673586308956;-0.0241287723183631
1768421482903099600;1.809099609375;0.1131744384765625;-0.9856109619140624;-0.0852508544921875;-0.009850500151515;-0.0021417140960693;-0.0249309167265892
1768421482913099500;1.819099609375;0.1017608642578125;-0.98541259765625;-0.0850067138671875;-0.0098004331812262;0.0020865867845714;-0.0207904987037181
1768421482923098600;1.8290986328125;0.099273681640625;-0.9892578125;-0.084259033203125;-0.0125237815082073;0.0054245926439762;-0.021531656384468
1768421482933098500;1.839098388671875;0.100189208984375;-0.9915313720703124;-0.0799560546875;-0.0171526223421096;0.0063822655938565;-0.0242962855845689
1768421482943098600;1.8490986328125;0.10369873046875;-0.995025634765625;-0.0740966796875;-0.0203542746603488;0.0028040423057973;-0.0263517126441001
1768421482953098500;1.859098388671875;0.104949951171875;-0.9970855712890624;-0.068206787109375;-0.020216854289174;-0.002934803487733;-0.0295722726732492
1768421482963098600;1.8690986328125;0.107025146484375;-0.99896240234375;-0.06390380859375;-0.0169893689453601;-0.0085325017571449;-0.0298244748264551
1768421482973098500;1.879098388671875;0.104339599609375;-0.9973297119140624;-0.06439208984375;-0.0170327797532081;-0.0176903139799833;-0.0265711564570665
1768421482983098600;1.8890986328125;0.097747802734375;-0.998870849609375;-0.0653076171875;-0.016463927924633;-0.024393755942583;-0.022588400170207
1768421482993098500;1.899098388671875;0.09442138671875;-0.999969482421875;-0.0671234130859375;-0.0175161436200141;-0.029225530102849;-0.0229537859559059
1768421483003098400;1.909098388671875;0.0947113037109375;-0.9981536865234376;-0.0721893310546875;-0.016653811559081;-0.0294542945921421;-0.0278614591807127
1768421483013098500;1.919098388671875;0.0989532470703125;-0.996490478515625;-0.0749359130859375;-0.0165382307022809;-0.0291150081902742;-0.0331177376210689
1768421483023098600;1.9290986328125;0.1012115478515625;-0.9938201904296876;-0.0769500732421875;-0.0150561807677149;-0.0287645366042852;-0.0330447703599929
1768421483033098800;1.9390986328125;0.0986175537109375;-0.9934539794921876;-0.076873779296875;-0.0164372958242893;-0.030223149806261;-0.0328972302377224
1768421483043098600;1.9490986328125;0.0952911376953125;-0.9919586181640624;-0.0768280029296875;-0.0158953424543142;-0.0276145841926336;-0.0303826723247766
1768421483053098800;1.9590986328125;0.0941314697265625;-0.99462890625;-0.0775299072265625;-0.0174655430018901;-0.0281312372535467;-0.0292803905904293
1768421483063098600;1.9690986328125;0.094940185546875;-0.993408203125;-0.07745361328125;-0.0187238864600658;-0.0293530952185392;-0.0280356295406818
1768421483073098800;1.9790986328125;0.093963623046875;-0.993133544921875;-0.078369140625;-0.021363079547882;-0.0306343417614698;-0.0272744968533515
1768421483083098600;1.9890986328125;0.0953521728515625;-0.9922332763671876;-0.0770263671875;-0.0216344557702541;-0.030355243012309;-0.0284694582223892
1768421483093098800;1.9990986328125;0.0954132080078125;-0.9903411865234376;-0.0768280029296875;-0.0220373906195163;-0.0331398434937;-0.0286526829004287
1768421483103097600;2.00909765625;0.0943145751953125;-0.988494873046875;-0.07513427734375;-0.0226073078811168;-0.0354386828839778;-0.0286596082150936
1768421483113097700;2.01909765625;0.092437744140625;-0.9878387451171876;-0.0732269287109375;-0.0222099646925926;-0.0371476337313652;-0.0292449705302715
1768421483123097600;2.02909765625;0.09185791015625;-0.98919677734375;-0.0702056884765625;-0.0195140466094017;-0.0432761013507843;-0.0302250143140554
1768421483133097700;2.03909765625;0.0920257568359375;-0.990509033203125;-0.0709075927734375;-0.0165400952100753;-0.0620308816432952;-0.0316468738019466
1768421483143097600;2.04909765625;0.0908966064453125;-0.994598388671875;-0.0688934326171875;-0.0138463070616126;-0.0865181162953376;-0.0344290807843208
1768421483153097700;2.05909765625;0.086669921875;-0.99761962890625;-0.06561279296875;-0.012370117008686;-0.1205304116010665;-0.0391247645020484
1768421483163097600;2.06909765625;0.086395263671875;-1.00152587890625;-0.0603790283203125;-0.0178612880408763;-0.1542111337184906;-0.0482314452528953
1768421483173097700;2.07909765625;0.088165283203125;-1.0022735595703125;-0.046844482421875;-0.0250816512852907;-0.1894372999668121;-0.0545769594609737
1768421483183097600;2.08909765625;0.0902252197265625;-1.001068115234375;-0.0330810546875;-0.0273938067257404;-0.2296044379472732;-0.0580502524971962
1768421483193097500;2.099097412109375;0.0905609130859375;-1.0027008056640625;-0.02587890625;-0.0272587854415178;-0.262596994638443;-0.0675010159611702
1768421483203097600;2.10909765625;0.0870208740234375;-1.0055694580078125;-0.02398681640625;-0.0238131880760192;-0.2913093268871307;-0.0746899470686912
1768421483213097500;2.119097412109375;0.0860748291015625;-1.0092315673828125;-0.0313873291015625;-0.0238536670804023;-0.3156114816665649;-0.0806836634874343
1768421483223097600;2.12909765625;0.0872955322265625;-1.014739990234375;-0.043121337890625;-0.0297845266759395;-0.3458868265151977;-0.0892044454813003
1768421483233097500;2.139097412109375;0.0902252197265625;-1.018096923828125;-0.0505523681640625;-0.0392872169613838;-0.3679409921169281;-0.102371908724308
1768421483243097600;2.14909765625;0.087860107421875;-1.013214111328125;-0.0503387451171875;-0.042226817458868;-0.3856632709503174;-0.1099270358681678
1768421483253097500;2.159097412109375;0.080291748046875;-1.006256103515625;-0.053314208984375;-0.0469278283417224;-0.40048348903656;-0.1065834313631057
1768421483263097600;2.16909765625;0.073333740234375;-0.9976348876953124;-0.0546112060546875;-0.0496924556791782;-0.4068556427955627;-0.0961611568927764
1768421483273096400;2.179096435546875;0.07135009765625;-0.9895477294921876;-0.0532684326171875;-0.0436816997826099;-0.41008260846138;-0.0851905271410942
1768421483283096600;2.1890966796875;0.072998046875;-0.987945556640625;-0.05517578125;-0.0362355038523674;-0.4119172394275665;-0.0850046426057815
1768421483293096400;2.199096435546875;0.0743865966796875;-0.9903411865234376;-0.0587158203125;-0.0279315002262592;-0.4065600335597992;-0.0947076007723808
1768421483303096600;2.2090966796875;0.0682373046875;-0.9926605224609376;-0.0649261474609375;-0.0160420835018157;-0.3916513919830322;-0.1062806323170661
1768421483313096400;2.219096435546875;0.059814453125;-0.9935150146484376;-0.075286865234375;-0.0100334594026207;-0.3667289912700653;-0.1140964776277542
1768421483323096600;2.2290966796875;0.0540924072265625;-0.9968109130859376;-0.0843963623046875;-0.0104158893227577;-0.3472003042697906;-0.1113688722252845
1768421483333096400;2.239096435546875;0.0534210205078125;-1.002410888671875;-0.0886077880859375;-0.0129014179110527;-0.3303100168704986;-0.0967859327793121
1768421483343096600;2.2490966796875;0.0576629638671875;-1.0116119384765625;-0.090667724609375;-0.0236616525799036;-0.3259104490280151;-0.0767885223031044
1768421483353096400;2.259096435546875;0.068084716796875;-1.0185546875;-0.090362548828125;-0.0370781272649765;-0.3253075182437897;-0.0679548159241676
1768421483363096600;2.2690966796875;0.0777130126953125;-1.0196533203125;-0.0831298828125;-0.0496698170900344;-0.3266582787036896;-0.0689734742045402
1768421483373096400;2.279096435546875;0.0825347900390625;-1.01409912109375;-0.070953369140625;-0.0547106489539146;-0.3271914422512054;-0.0725200101733207
1768421483383096600;2.2890966796875;0.086212158203125;-1.001800537109375;-0.0623321533203125;-0.0610375218093395;-0.3263812959194183;-0.0703346133232116
1768421483393096400;2.299096435546875;0.086578369140625;-0.988189697265625;-0.051971435546875;-0.0574308037757873;-0.3316445052623749;-0.0625496655702591
1768421483403096300;2.309096435546875;0.0847930908203125;-0.9746551513671876;-0.0463104248046875;-0.0539915971457958;-0.3425983488559723;-0.0498165600001812
1768421483413096400;2.319096435546875;0.0837554931640625;-0.9645843505859376;-0.0396881103515625;-0.0429812893271446;-0.3580358922481537;-0.030517429113388
1768421483423096300;2.329096435546875;0.082122802734375;-0.96356201171875;-0.03509521484375;-0.0428236313164234;-0.3678760230541229;-0.0084440847858786
1768421483433096400;2.339096435546875;0.085418701171875;-0.965667724609375;-0.0289459228515625;-0.0416752733290195;-0.3902803957462311;0.0136835882440209
1768421483443096300;2.349096435546875;0.0876007080078125;-0.9787445068359376;-0.02783203125;-0.0468383468687534;-0.4165641963481903;0.0409961678087711
1768421483453095400;2.359095458984375;0.0950775146484375;-0.9864959716796876;-0.0217132568359375;-0.0518418923020362;-0.4562655389308929;0.066628560423851
1768421483463095600;2.369095458984375;0.10906982421875;-0.9849853515625;-0.01409912109375;-0.0603773221373558;-0.5123831629753113;0.0952972248196601
1768421483473095400;2.379095458984375;0.12042236328125;-0.9781494140625;-0.0063934326171875;-0.0736230909824371;-0.5850560069084167;0.1332691013813018
1768421483483095300;2.38909521484375;0.1298828125;-0.967254638671875;0.01361083984375;-0.078946478664875;-0.6596788167953491;0.1778996884822845
1768421483493095400;2.399095458984375;0.1449127197265625;-0.9543609619140624;0.0371551513671875;-0.074305921792984;-0.7294281125068665;0.2031680345535278
1768421483503095600;2.409095458984375;0.1615142822265625;-0.944610595703125;0.058746337890625;-0.0645726025104522;-0.7812247276306152;0.2025333940982818
1768421483513095700;2.419095703125;0.1590576171875;-0.9424896240234376;0.0711822509765625;-0.0423439964652061;-0.8134950399398804;0.1951950639486313
1768421483523095600;2.429095458984375;0.1447601318359375;-0.9500579833984376;0.0649261474609375;-0.0177409145981073;-0.8311020135879517;0.1816984266042709
1768421483533095700;2.439095703125;0.121368408203125;-0.9593048095703124;0.0470428466796875;0.0086629968136549;-0.830489993095398;0.1644193083047866
1768421483543095600;2.449095458984375;0.0885467529296875;-0.9739990234375;0.01654052734375;0.0208381693810224;-0.8061755895614624;0.1512968391180038
1768421483553095700;2.459095703125;0.0587310791015625;-0.992645263671875;-0.015106201171875;0.0367151387035846;-0.7620768547058105;0.143194168806076
1768421483563095600;2.469095458984375;0.0393829345703125;-1.0013427734375;-0.031890869140625;0.064960092306137;-0.682087242603302;0.1317870616912841
1768421483573095700;2.479095703125;0.0238494873046875;-1.0166778564453125;-0.049774169921875;0.0968503803014755;-0.5731375813484192;0.1208167001605033
1768421483583095600;2.489095458984375;0.0030059814453125;-1.036407470703125;-0.076995849609375;0.1272458285093307;-0.4553145170211792;0.1215962097048759
1768421483593095400;2.499095458984375;-0.0095062255859375;-1.049774169921875;-0.1020660400390625;0.1411901414394378;-0.3451504707336426;0.1308735907077789
1768421483603095600;2.509095458984375;-0.0065765380859375;-1.0596771240234375;-0.1228485107421875;0.1333687156438827;-0.2504545748233795;0.1292836815118789
1768421483613094700;2.5190947265625;0.00653076171875;-1.0595855712890625;-0.123748779296875;0.1156235337257385;-0.1868910491466522;0.119739182293415
1768421483623094500;2.529094482421875;0.0194854736328125;-1.0522918701171875;-0.110504150390625;0.0899770259857177;-0.1456927508115768;0.1115872487425804
1768421483633094700;2.5390947265625;0.0210113525390625;-1.0351104736328125;-0.0820465087890625;0.0618684291839599;-0.131404623389244;0.109337143599987
1768421483643094500;2.549094482421875;0.0198974609375;-1.016265869140625;-0.0464019775390625;0.0358674526214599;-0.1322392672300338;0.1129377335309982
1768421483653094700;2.5590947265625;0.0219268798828125;-1.00311279296875;-0.010955810546875;0.015624233521521;-0.1539400368928909;0.1189831122756004
1768421483663094500;2.569094482421875;0.02374267578125;-0.99017333984375;0.0284576416015625;0.0083604613319039;-0.1813093423843383;0.141550213098526
1768421483673094400;2.579094482421875;0.018463134765625;-0.98492431640625;0.0568084716796875;0.0037207023706287;-0.2023051679134369;0.1774632036685943
1768421483683094500;2.589094482421875;0.018707275390625;-0.9840850830078124;0.0751495361328125;0.0038083202671259;-0.2148481160402298;0.2151216268539428
1768421483693094400;2.599094482421875;0.0298919677734375;-0.9840850830078124;0.0794677734375;0.0122753083705902;-0.2185832113027572;0.2433279603719711
1768421483703094500;2.609094482421875;0.047607421875;-0.9884033203125;0.0723114013671875;0.0245370343327522;-0.2199752330780029;0.2491467148065567
1768421483713094400;2.619094482421875;0.071990966796875;-0.9922027587890624;0.058837890625;0.0381974540650844;-0.2200503349304199;0.2308960705995559
1768421483723094500;2.629094482421875;0.0928802490234375;-0.9949493408203124;0.0443267822265625;0.0550680458545684;-0.2228964567184448;0.2038916051387787
1768421483733094400;2.639094482421875;0.09954833984375;-0.9889678955078124;0.0342864990234375;0.070387877523899;-0.2268445938825607;0.1854657381772995
1768421483743094500;2.649094482421875;0.092254638671875;-0.9843292236328124;0.02239990234375;0.0816234871745109;-0.2298172116279602;0.1742695420980453
1768421483753094400;2.659094482421875;0.083221435546875;-0.983551025390625;0.009033203125;0.0857378095388412;-0.2320891618728637;0.1697594672441482
1768421483763094500;2.669094482421875;0.0794219970703125;-0.98504638671875;0.0067901611328125;0.091497428715229;-0.2254355251789093;0.1731435507535934
1768421483773094400;2.679094482421875;0.0754547119140625;-0.9851226806640624;0.0167999267578125;0.1011061146855354;-0.2077763676643371;0.1818877756595611
1768421483783094500;2.689094482421875;0.0826568603515625;-0.9821929931640624;0.006927490234375;0.1066481471061706;-0.1896767169237136;0.1897877752780914
1768421483793093400;2.69909326171875;0.084564208984375;-0.9802093505859376;0.0147247314453125;0.121058776974678;-0.1563400775194168;0.2095827907323837
1768421483803093500;2.709093505859375;0.0981597900390625;-0.9998931884765624;0.0103302001953125;0.1146051436662674;-0.1605345457792282;0.2120299637317657
1768421483813093400;2.71909326171875;0.1200714111328125;-1.00115966796875;-0.0142669677734375;0.1041439771652221;-0.1419076025485992;0.1972683370113372
1768421483823093500;2.729093505859375;0.1142425537109375;-1.0;-0.0047149658203125;0.1069794446229934;-0.1158062294125557;0.1791857331991195
1768421483833093400;2.73909326171875;0.104949951171875;-1.0049591064453125;-0.0101776123046875;0.1059274971485138;-0.0921256691217422;0.1667748689651489
1768421483843093500;2.749093505859375;0.0918731689453125;-1.00152587890625;-0.003753662109375;0.1064329668879509;-0.0683859810233116;0.1717299520969391
1768421483853093600;2.75909375;0.0849456787109375;-0.9961090087890624;0.0074920654296875;0.1083110272884368;-0.0418459847569465;0.185536578297615
1768421483863093500;2.769093505859375;0.0870513916015625;-0.988433837890625;0.007568359375;0.1146666631102562;-0.0159523356705904;0.2009682655334472
1768421483873093600;2.77909375;0.0902099609375;-0.983367919921875;0.00360107421875;0.1178693771362304;0.0083364928141236;0.2054729908704757
1768421483883093500;2.789093505859375;0.096649169921875;-0.98297119140625;0.0046539306640625;0.1132669001817703;0.0221385918557643;0.1947636306285858
1768421483893093600;2.79909375;0.0951995849609375;-0.9880828857421876;0.00677490234375;0.0979132503271102;0.0343555770814418;0.1776533424854278
1768421483903093500;2.809093505859375;0.0857086181640625;-0.992645263671875;0.0164031982421875;0.0870139971375465;0.0485235936939716;0.1686787605285644
1768421483913093600;2.81909375;0.076385498046875;-0.9984588623046876;0.026885986328125;0.0813403949141502;0.0625728368759155;0.1688329577445984
1768421483923093500;2.829093505859375;0.0745849609375;-1.0025482177734375;0.038177490234375;0.0845279321074485;0.0657995194196701;0.1647958755493164
1768421483933093600;2.83909375;0.0811614990234375;-0.9982452392578124;0.051483154296875;0.089978888630867;0.056190300732851;0.1486424654722213
1768421483943093500;2.849093505859375;0.081787109375;-0.9886932373046876;0.0672149658203125;0.1001748070120811;0.0369950346648693;0.132904514670372
1768421483953093600;2.85909375;0.078125;-0.9802398681640624;0.086395263671875;0.1034267917275428;0.0155368819832801;0.1230915710330009
1768421483963092500;2.869092529296875;0.0725860595703125;-0.9745635986328124;0.1003570556640625;0.1085168868303299;0.0004442152567207;0.1230042204260826
1768421483973092600;2.879092529296875;0.073944091796875;-0.972808837890625;0.1143951416015625;0.1155822575092315;-0.0115597173571586;0.1335181146860122
1768421483983092500;2.889092529296875;0.0898284912109375;-0.9734344482421876;0.1302032470703125;0.1402436643838882;-0.0188304129987955;0.1214111149311065
1768421483993092600;2.899092529296875;0.1165771484375;-0.975494384765625;0.135498046875;0.1684659719467163;-0.0258963126689195;0.0814975202083587
1768421484003092500;2.909092529296875;0.1244354248046875;-0.97467041015625;0.1290740966796875;0.1958968043327331;-0.0361763797700405;0.0391029268503189
1768421484013092600;2.919092529296875;0.11199951171875;-0.9652099609375;0.11468505859375;0.2203773707151413;-0.0426787547767162;0.011420433409512
1768421484023092500;2.929092529296875;0.0993804931640625;-0.95489501953125;0.0991058349609375;0.2393966019153595;-0.0545934699475765;-0.0025150892324745
1768421484033092600;2.939092529296875;0.0933990478515625;-0.94647216796875;0.08477783203125;0.2540863454341888;-0.0725841894745826;-0.0049127331003546
1768421484043092500;2.949092529296875;0.0931549072265625;-0.9414215087890624;0.080474853515625;0.2736960053443908;-0.1025601997971534;-0.0060682790353894
1768421484053092400;2.95909228515625;0.0986175537109375;-0.939544677734375;0.090087890625;0.296664148569107;-0.1410647183656692;-0.0191526561975479
1768421484063092500;2.969092529296875;0.104736328125;-0.9373321533203124;0.1089935302734375;0.3150902986526489;-0.1863331198692321;-0.0361180566251277
1768421484073092400;2.97909228515625;0.1090087890625;-0.9362640380859376;0.1334381103515625;0.3216810822486877;-0.2362623363733291;-0.0494133569300174
1768421484083092500;2.989092529296875;0.12298583984375;-0.93572998046875;0.1579437255859375;0.3280399143695831;-0.2813746929168701;-0.048685248941183
1768421484093092400;2.99909228515625;0.1491851806640625;-0.9296875;0.1729278564453125;0.3492874205112457;-0.2608073651790619;-0.0088715218007564
1768421484103092500;3.009092529296875;0.2066650390625;-0.9343719482421876;0.1491546630859375;0.4275292158126831;-0.1663530319929123;0.1099392846226692
1768421484113092400;3.01909228515625;0.3593597412109375;-0.964813232421875;0.0933837890625;0.4886972606182098;-0.3266428411006927;0.2560823857784271
1768421484123091500;3.029091552734375;0.53125;-1.0836029052734375;0.0110321044921875;0.4327087998390198;-0.6774296164512634;0.3076566159725189
1768421484133091300;3.03909130859375;0.5792083740234375;-1.2735443115234375;-0.0398101806640625;0.2087300419807434;-1.1040128469467163;0.161852017045021
1768421484143091500;3.049091552734375;0.46136474609375;-1.4007415771484375;0.027923583984375;0.0027659591287374;-1.2885017395019531;-0.0773986503481864
1768421484153091300;3.05909130859375;0.2420806884765625;-1.4072265625;0.114837646484375;-0.1310893148183822;-1.294689416885376;-0.1801015883684158
1768421484163091500;3.069091552734375;0.097564697265625;-1.3413543701171875;0.087921142578125;-0.2379838079214096;-1.2954901456832886;-0.1754554361104965
1768421484173091300;3.07909130859375;0.0533905029296875;-1.2476348876953125;0.0495758056640625;-0.2461442649364471;-1.2336033582687378;-0.15947887301445
1768421484183091500;3.089091552734375;0.052520751953125;-1.1337127685546875;0.044281005859375;-0.0890662297606468;-1.0248078107833862;-0.1356422454118728
1768421484193091300;3.09909130859375;0.0761566162109375;-1.045166015625;0.0062103271484375;0.1416551321744918;-0.6935998201370239;-0.1187317073345184
1768421484203091700;3.109091796875;0.134521484375;-1.0139923095703125;-0.073089599609375;0.3862081468105316;-0.3426873087882995;-0.1664337217807769
1768421484213091600;3.119091552734375;0.19622802734375;-1.04107666015625;-0.161651611328125;0.5829861760139465;-0.0383836068212986;-0.2475115209817886
1768421484223091700;3.129091796875;0.22705078125;-1.0854644775390625;-0.22491455078125;0.708255410194397;0.1630448400974273;-0.3045247495174408
1768421484233091600;3.139091552734375;0.260040283203125;-1.1157684326171875;-0.257171630859375;0.7419212460517883;0.2385558485984802;-0.3549213409423828
1768421484243091500;3.149091552734375;0.29052734375;-1.122894287109375;-0.27471923828125;0.6828853487968445;0.1837788820266723;-0.4348859488964081
1768421484253091600;3.159091552734375;0.271881103515625;-1.10162353515625;-0.2715911865234375;0.5495254397392273;0.0656876638531684;-0.5090121030807495
1768421484263091500;3.169091552734375;0.2040863037109375;-1.053466796875;-0.2284393310546875;0.3934450447559356;-0.0378200821578502;-0.5091841220855713
1768421484273091600;3.179091552734375;0.1331329345703125;-0.9955902099609376;-0.1582489013671875;0.2575830817222595;-0.1163729503750801;-0.4071552455425262
1768421484283091500;3.189091552734375;0.0933380126953125;-0.93994140625;-0.09161376953125;0.1685344129800796;-0.1655205190181732;-0.2512370347976684
1768421484293090600;3.199090576171875;0.1003875732421875;-0.8934478759765625;-0.0611419677734375;0.1153660044074058;-0.1918147057294845;-0.1102117225527763
1768421484303090700;3.209090576171875;0.1525421142578125;-0.8618927001953125;-0.0725860595703125;0.0977028608322143;-0.1944826692342758;-0.0405325107276439
1768421484313090600;3.219090576171875;0.2160491943359375;-0.854248046875;-0.1066741943359375;0.1018770933151245;-0.1938786655664444;-0.0562257207930088
1768421484323090400;3.22909033203125;0.24322509765625;-0.8689117431640625;-0.154815673828125;0.121797539293766;-0.2186527103185653;-0.1067618653178215
1768421484333090600;3.239090576171875;0.21441650390625;-0.9051971435546876;-0.18609619140625;0.1408636420965194;-0.2590587139129638;-0.1125734150409698
1768421484343090400;3.24909033203125;0.176605224609375;-0.9542694091796876;-0.197845458984375;0.1512353271245956;-0.2956337928771972;-0.0815388038754463
1768421484353090600;3.259090576171875;0.1711273193359375;-0.99658203125;-0.1960906982421875;0.1388992965221405;-0.3335563838481903;-0.0643198639154434
1768421484363090400;3.26909033203125;0.1852874755859375;-1.018280029296875;-0.1842041015625;0.1228130012750625;-0.3724129796028137;-0.0869245156645774
1768421484373090000;3.279090087890625;0.1938934326171875;-1.0191802978515625;-0.17169189453125;0.1014382094144821;-0.4176768660545349;-0.1399690806865692
1768421484383090000;3.28908984375;0.1955413818359375;-1.004119873046875;-0.164398193359375;0.0796407684683799;-0.4658481180667877;-0.198933333158493
1768421484393090300;3.29909033203125;0.194122314453125;-0.9714202880859376;-0.15374755859375;0.062879629433155;-0.5057151317596436;-0.240049347281456
1768421484403090200;3.309090087890625;0.18695068359375;-0.9294586181640624;-0.1458282470703125;0.0512868911027908;-0.5411058664321899;-0.2518625855445862
1768421484413090300;3.31909033203125;0.1848297119140625;-0.8897247314453125;-0.146392822265625;0.0472380854189395;-0.5793307423591614;-0.2452558279037475
1768421484423090200;3.329090087890625;0.1889190673828125;-0.8599853515625;-0.1489715576171875;0.0522040836513042;-0.6206949353218079;-0.226223811507225
1768421484433090300;3.33909033203125;0.197113037109375;-0.8405303955078125;-0.1576995849609375;0.0539615005254745;-0.6514813899993896;-0.1926919519901275
1768421484443089200;3.349089111328125;0.21038818359375;-0.8303680419921875;-0.1710052490234375;0.0587405450642108;-0.672389566898346;-0.1634760051965713
1768421484453089300;3.35908935546875;0.2317352294921875;-0.822540283203125;-0.1936492919921875;0.0745285600423812;-0.6824073195457458;-0.1466328501701355
1768421484463089200;3.369089111328125;0.2452545166015625;-0.8187103271484375;-0.2285308837890625;0.1171551197767257;-0.6946485638618469;-0.1399571001529693
1768421484473089300;3.37908935546875;0.2589569091796875;-0.8244476318359375;-0.2618865966796875;0.1658691316843032;-0.7019104361534119;-0.1452144533395767
1768421484483089200;3.389089111328125;0.2566680908203125;-0.8548583984375;-0.2981719970703125;0.1530177742242813;-0.7026380300521851;-0.1482951939105987
1768421484493089300;3.39908935546875;0.2386322021484375;-0.8885498046875;-0.306365966796875;0.1285888701677322;-0.7170012593269348;-0.1468959748744964
1768421484503089200;3.409089111328125;0.2272491455078125;-0.9150390625;-0.2888641357421875;0.1094244942069053;-0.7316526174545288;-0.1650581955909729
1768421484513089300;3.41908935546875;0.214874267578125;-0.9452362060546876;-0.26373291015625;0.0868813693523407;-0.7343330979347229;-0.1953854709863662
1768421484523089200;3.429089111328125;0.1864013671875;-0.9765625;-0.242034912109375;0.0433144494891166;-0.7430371046066284;-0.2280286401510238
1768421484533089300;3.43908935546875;0.1540374755859375;-0.9867401123046876;-0.2026214599609375;0.0121115241199731;-0.7568807601928711;-0.2630111277103424
1768421484543089200;3.449089111328125;0.1260528564453125;-0.98455810546875;-0.1478118896484375;-0.0142926527187228;-0.7669618725776672;-0.2911168038845062
1768421484553089000;3.459089111328125;0.0941162109375;-0.9896087646484376;-0.1022796630859375;-0.0400009453296661;-0.7802278995513916;-0.3052613735198974
1768421484563089200;3.469089111328125;0.0787200927734375;-0.990020751953125;-0.065155029296875;-0.0650271996855735;-0.7975570559501648;-0.3020195066928863
1768421484573089000;3.479089111328125;0.0790557861328125;-0.984588623046875;-0.0404052734375;-0.0895948633551597;-0.8296694755554199;-0.2909729778766632
1768421484583089200;3.489089111328125;0.0830535888671875;-0.974639892578125;-0.0320281982421875;-0.1130083128809928;-0.8628208041191101;-0.2780632972717285
1768421484593089000;3.499089111328125;0.0831146240234375;-0.9649810791015624;-0.036041259765625;-0.1326949298381805;-0.9014275670051576;-0.2576437890529632
1768421484603089200;3.509089111328125;0.078277587890625;-0.9543609619140624;-0.0436859130859375;-0.1518518477678299;-0.9264373183250428;-0.2221236079931259
1768421484613088300;3.519088134765625;0.0722503662109375;-0.9426727294921876;-0.0514984130859375;-0.1591968387365341;-0.9281505346298218;-0.1837852746248245
1768421484623088000;3.529088134765625;0.0780487060546875;-0.9299468994140624;-0.06256103515625;-0.1639979928731918;-0.927252471446991;-0.1572010666131973
1768421484633088000;3.539087890625;0.08489990234375;-0.9136199951171876;-0.0704193115234375;-0.1672278791666031;-0.9302461743354796;-0.1512148231267929
1768421484643088100;3.549088134765625;0.089019775390625;-0.8946075439453125;-0.0725860595703125;-0.1705517619848251;-0.9549430012702942;-0.1476909220218658
1768421484653088000;3.559087890625;0.07464599609375;-0.87530517578125;-0.080352783203125;-0.1815191954374313;-0.983640432357788;-0.1381565332412719
1768421484663088000;3.569088134765625;0.0555572509765625;-0.8733367919921875;-0.0874481201171875;-0.1939353793859481;-1.0227329730987549;-0.1270138770341873
1768421484673088000;3.579087890625;0.033111572265625;-0.875640869140625;-0.0867462158203125;-0.2032631039619445;-1.0420584678649902;-0.1081363260746002
1768421484683088100;3.589088134765625;0.016937255859375;-0.885009765625;-0.08673095703125;-0.2127697914838791;-1.0454944372177124;-0.0829148590564727
1768421484693088000;3.599087890625;0.01580810546875;-0.9001007080078125;-0.0877838134765625;-0.224897563457489;-1.053309202194214;-0.0603562854230403
1768421484703088000;3.609088134765625;0.008697509765625;-0.9101409912109376;-0.087860107421875;-0.2451189458370208;-1.0544780492782593;-0.0472002699971199
1768421484713088000;3.619087890625;-0.0078125;-0.9223480224609376;-0.0855865478515625;-0.2716426849365234;-1.0528894662857056;-0.0382813438773155
1768421484723088100;3.629088134765625;-0.0198516845703125;-0.939788818359375;-0.0750579833984375;-0.3002817928791046;-1.055092453956604;-0.04085448756814
1768421484733088000;3.639087890625;-0.0177001953125;-0.9597320556640624;-0.0601654052734375;-0.32572802901268;-1.0621641874313354;-0.0597482845187187
1768421484743088000;3.649088134765625;-0.0262451171875;-0.9737548828125;-0.0454864501953125;-0.3409594595432281;-1.0628148317337036;-0.0746092572808265
1768421484753088300;3.659088134765625;-0.0339202880859375;-0.9774169921875;-0.0261383056640625;-0.3506480455398559;-1.088468074798584;-0.0641526207327842
1768421484763088100;3.669088134765625;-0.0378875732421875;-0.9804534912109376;0.0019378662109375;-0.3643198907375335;-1.1114505529403689;-0.0422888658940792
1768421484773087000;3.6790869140625;-0.041107177734375;-0.9871826171875;0.0339508056640625;-0.3752479255199432;-1.1416229009628296;-0.0135107487440109
1768421484783087400;3.68908740234375;-0.0449371337890625;-1.0015716552734375;0.067962646484375;-0.3861269354820251;-1.1675620079040527;0.0162261072546243
1768421484793087200;3.699087158203125;-0.0477142333984375;-1.019287109375;0.09661865234375;-0.4005029499530792;-1.1951606273651123;0.0325624719262123
1768421484803087400;3.70908740234375;-0.0498046875;-1.034210205078125;0.1201324462890625;-0.4063286185264587;-1.2181777954101562;0.0438265763223171
1768421484813087200;3.719087158203125;-0.05645751953125;-1.04791259765625;0.1280517578125;-0.4023652970790863;-1.2268551588058472;0.0485680699348449
1768421484823087000;3.729087158203125;-0.0576324462890625;-1.0551605224609375;0.1232757568359375;-0.3797254860401153;-1.2258285284042358;0.0341108329594135
1768421484833087200;3.739087158203125;-0.058837890625;-1.064910888671875;0.10906982421875;-0.3488836884498596;-1.2269984483718872;-0.0034336135722696
1768421484843087000;3.749087158203125;-0.0706024169921875;-1.076873779296875;0.0875396728515625;-0.3133549988269806;-1.2280887365341189;-0.0601847767829895
1768421484853087200;3.759087158203125;-0.09906005859375;-1.0805816650390625;0.0694580078125;-0.275373250246048;-1.2123425006866455;-0.1188614070415496
1768421484863087000;3.769087158203125;-0.1357879638671875;-1.0737762451171875;0.054718017578125;-0.2177871912717819;-1.1479358673095703;-0.138340562582016
1768421484873087200;3.779087158203125;-0.1022186279296875;-1.0531463623046875;-0.0069427490234375;-0.0716307759284973;-0.8810663819313049;0.0106563726440072
1768421484883087000;3.789087158203125;0.08355712890625;-1.0263519287109375;-0.0719757080078125;0.2006417512893676;-0.5621570944786072;0.5182777643203735
1768421484893087200;3.799087158203125;0.3353729248046875;-1.17755126953125;-0.0753326416015625;0.5993446707725525;-0.5426515340805054;0.816366970539093
1768421484903087000;3.809087158203125;0.4752960205078125;-1.5418548583984375;-0.229766845703125;0.6845138669013977;-0.2460744827985763;0.451062798500061
1768421484913087200;3.819087158203125;0.2760772705078125;-1.75958251953125;-0.4825897216796875;0.4839307069778442;0.0883903130888938;0.0009235842735506
1768421484923087000;3.829087158203125;0.1592254638671875;-1.6078948974609375;-0.5820770263671875;0.2899385988712311;0.2354106605052948;-0.3017595708370209
1768421484933086200;3.839086181640625;0.07550048828125;-1.3440399169921875;-0.4607391357421875;0.2558890283107757;0.2576323449611664;-0.4015953540802002
1768421484943086000;3.849086181640625;0.0405120849609375;-1.192230224609375;-0.3866119384765625;0.2097923755645752;0.1595118939876556;-0.4038726389408111
1768421484953086200;3.859086181640625;0.12884521484375;-1.030731201171875;-0.36669921875;0.1308032870292663;-0.0750012770295143;-0.3668126165866852
1768421484963086000;3.869086181640625;0.1629486083984375;-0.8623199462890625;-0.273681640625;0.0615903921425342;-0.3815364241600036;-0.2447184026241302
1768421484973086200;3.879086181640625;0.1243896484375;-0.76605224609375;-0.1363525390625;0.0173438359051942;-0.6722162365913391;-0.0056280582211911
1768421484983086000;3.889086181640625;0.1097412109375;-0.73541259765625;-0.009613037109375;-0.0092526208609342;-0.8352125883102417;0.3026189804077148
1768421484993086200;3.899086181640625;0.1905670166015625;-0.7334747314453125;0.08245849609375;0.0154620464891195;-0.8933494091033936;0.5151951909065247
1768421485003086000;3.909086181640625;0.3542633056640625;-0.7745208740234375;0.118133544921875;0.0889980494976043;-0.8424510359764099;0.5273327827453613
1768421485013086200;3.919086181640625;0.4815216064453125;-0.901641845703125;0.0919342041015625;0.2461722195148468;-0.7159045934677124;0.3770703077316284
1768421485023086000;3.929086181640625;0.52117919921875;-1.0275726318359375;0.0310516357421875;0.3888121843338012;-0.5206807255744934;0.1762482672929763
1768421485033086000;3.9390859375;0.454864501953125;-1.10748291015625;-0.1260223388671875;0.4154534041881561;-0.3242358565330505;0.0273445397615432
1768421485043086000;3.949086181640625;0.387176513671875;-1.1092529296875;-0.26800537109375;0.3793425261974334;-0.1412245035171508;-0.1124213486909866
1768421485053086000;3.9590859375;0.3623046875;-1.0758819580078125;-0.332855224609375;0.3235650062561035;0.02213672734797;-0.2947741150856018
1768421485063086000;3.969086181640625;0.3320770263671875;-1.0527801513671875;-0.388092041015625;0.2204096019268036;0.1552657485008239;-0.4774762988090515
1768421485073086000;3.9790859375;0.25762939453125;-1.03515625;-0.42462158203125;0.0689585581421852;0.2521094679832458;-0.577194333076477
1768421485083086300;3.98908642578125;0.16314697265625;-1.0073699951171875;-0.403961181640625;-0.0761893093585968;0.3156831264495849;-0.536329984664917
1768421485093085000;3.9990849609375;0.0742645263671875;-0.9925079345703124;-0.3628997802734375;-0.1947455108165741;0.3820078074932098;-0.3745264708995819
1768421485103085000;4.0090849609375;0.0404815673828125;-0.97412109375;-0.31536865234375;-0.2820862829685211;0.4282125830650329;-0.159074068069458
1768421485113085000;4.0190849609375;0.0590057373046875;-0.9514617919921876;-0.26239013671875;-0.3680610954761505;0.4571297466754913;0.0305097065865993
1768421485123085000;4.0290849609375;0.1122894287109375;-0.942779541015625;-0.20159912109375;-0.4419241547584533;0.483722984790802;0.1502512842416763
1768421485133085200;4.039085205078125;0.17724609375;-0.93603515625;-0.1118927001953125;-0.4817202985286712;0.5253461003303528;0.1852127313613891
1768421485143085300;4.049085205078125;0.2363739013671875;-0.9197998046875;-0.02032470703125;-0.4759694635868072;0.5830109715461731;0.1537322998046875
1768421485153085200;4.059085205078125;0.2758331298828125;-0.905303955078125;0.054412841796875;-0.4521208703517914;0.6291710138320923;0.0844251364469528
1768421485163085300;4.069085205078125;0.28704833984375;-0.886627197265625;0.0838623046875;-0.4250255823135376;0.6657710671424866;0.031250063329935
1768421485173085200;4.079085205078125;0.2648468017578125;-0.8672637939453125;0.0999908447265625;-0.4030752778053283;0.6760860681533813;0.0059910472482442
1768421485183085300;4.089085205078125;0.236175537109375;-0.8377227783203125;0.08709716796875;-0.3831287324428558;0.6958214044570923;0.0123272398486733
1768421485193085200;4.099085205078125;0.1996002197265625;-0.8102569580078125;0.073638916015625;-0.3604559302330017;0.7189602851867676;0.0396872237324714
1768421485203085300;4.109085205078125;0.1736297607421875;-0.79534912109375;0.0599365234375;-0.3352302014827728;0.7168976664543152;0.0865535363554954
1768421485213085200;4.119085205078125;0.1604461669921875;-0.796051025390625;0.03717041015625;-0.3277586996555328;0.6779769062995911;0.1502393037080764
1768421485223085000;4.1290849609375;0.14886474609375;-0.8173980712890625;0.038238525390625;-0.3134335577487945;0.6187852025032043;0.2127924263477325
1768421485233085200;4.139085205078125;0.1585693359375;-0.847686767578125;0.0466461181640625;-0.3106550872325897;0.5588257312774658;0.2428475320339203
1768421485243084300;4.149084228515625;0.16656494140625;-0.886260986328125;0.07354736328125;-0.2856972515583038;0.5403620600700378;0.2412831932306289
1768421485253084200;4.159084228515625;0.164703369140625;-0.9202728271484376;0.0980072021484375;-0.2470398843288421;0.5447221398353577;0.2116611152887344
1768421485263084300;4.169084228515625;0.1702880859375;-0.93878173828125;0.088043212890625;-0.2056889832019806;0.5475972890853882;0.1654046773910522
1768421485273084200;4.179084228515625;0.1574249267578125;-0.9448699951171876;0.076263427734375;-0.1667282581329345;0.5943701267242432;0.1114421039819717
1768421485283084000;4.189083984375;0.135955810546875;-0.9378204345703124;0.0561370849609375;-0.1077123507857322;0.6221210956573486;0.0632945522665977
1768421485293084200;4.199084228515625;0.123138427734375;-0.9312744140625;0.0220794677734375;-0.0514703802764415;0.6263336539268494;0.0329065509140491
1768421485303084000;4.209083984375;0.10076904296875;-0.9260711669921876;-0.017486572265625;-0.0185984522104263;0.6433611512184143;0.0127757163718342
1768421485313084200;4.219084228515625;0.0865936279296875;-0.93011474609375;-0.0485382080078125;0.0056437710300087;0.6441089510917664;8.44222086016e-05
1768421485323084000;4.229083984375;0.0792388916015625;-0.93841552734375;-0.068756103515625;0.013817012310028;0.6306511759757996;-0.0204349681735038
1768421485333084200;4.239084228515625;0.0677032470703125;-0.9413909912109376;-0.0684051513671875;0.0248816478997468;0.6136333346366882;-0.0306852087378501
1768421485343084000;4.249083984375;0.0471038818359375;-0.937469482421875;-0.0487518310546875;0.0359625294804573;0.6179599165916443;-0.0247319787740707
1768421485353084200;4.259084228515625;0.0312347412109375;-0.938568115234375;-0.02685546875;0.0381961204111576;0.649145781993866;-0.0081119881942868
1768421485363084000;4.269083984375;0.028289794921875;-0.940704345703125;-0.0134124755859375;0.0278585292398929;0.6898998618125916;-0.0016713999211788
1768421485373084700;4.279084716796875;0.0306396484375;-0.9525909423828124;0.010467529296875;0.0536001101136207;0.7514316439628601;-0.0153355468064546
1768421485383084500;4.28908447265625;0.0382537841796875;-0.9787445068359376;0.011322021484375;0.0870392918586731;0.8091426491737366;-0.0614465810358524
1768421485393084400;4.29908447265625;0.0447845458984375;-0.9979095458984376;-0.008575439453125;0.1177287623286247;0.8300036787986755;-0.1296267062425613
1768421485403083500;4.30908349609375;0.041351318359375;-1.01129150390625;-0.0181884765625;0.117179088294506;0.7993025183677673;-0.1790373921394348
1768421485413083600;4.319083740234375;0.014801025390625;-1.00555419921875;-0.0121917724609375;0.0844506993889808;0.7519637942314148;-0.1551104933023452
1768421485423083500;4.32908349609375;-0.004791259765625;-0.990234375;0.021881103515625;0.0592755749821662;0.7139341235160828;-0.0466513931751251
1768421485433083600;4.339083740234375;0.0222625732421875;-0.9845733642578124;0.053192138671875;0.0662336125969886;0.6761819124221802;0.0432417467236518
1768421485443083500;4.34908349609375;0.0869598388671875;-0.9977569580078124;0.058013916015625;0.0988658592104911;0.6559509634971619;0.0108435926958918
1768421485453083400;4.35908349609375;0.1233367919921875;-1.025909423828125;0.0369415283203125;0.1204768791794776;0.6453004479408264;-0.1494842916727066
1768421485463083500;4.36908349609375;0.100799560546875;-1.0662841796875;0.003753662109375;0.0979207009077072;0.6397789120674133;-0.3730414807796478
1768421485473083400;4.37908349609375;0.003448486328125;-1.10845947265625;-0.0366058349609375;0.0287173986434936;0.6692600846290588;-0.5464676022529602
1768421485483083500;4.38908349609375;-0.1252593994140625;-1.1491851806640625;-0.0758209228515625;-0.0694587007164955;0.7234410643577576;-0.611335277557373
1768421485493083400;4.39908349609375;-0.22625732421875;-1.16241455078125;-0.1036376953125;-0.1732048094272613;0.8804541230201721;-0.5914124250411987
1768421485503083500;4.40908349609375;-0.2298583984375;-1.1465301513671875;-0.1412506103515625;-0.2007357627153396;1.0553559064865112;-0.5073798298835754
1768421485513083400;4.41908349609375;-0.1290435791015625;-1.1168670654296875;-0.191192626953125;-0.1546702682971954;1.2035906314849854;-0.3792349398136139
1768421485523083500;4.42908349609375;0.061737060546875;-1.114654541015625;-0.2061767578125;-0.103170059621334;1.1382166147232056;-0.1299995481967926
1768421485533083400;4.43908349609375;0.23651123046875;-1.267669677734375;-0.2421875;-0.2412136793136596;0.8520395159721375;-0.0545607134699821
1768421485543083500;4.44908349609375;0.3933868408203125;-1.4302520751953125;-0.27764892578125;-0.6121094822883606;0.5292845964431763;-0.2213094830513
1768421485553082400;4.459082275390625;0.3261871337890625;-1.49932861328125;-0.1373291015625;-0.8098808526992798;0.4353163242340088;-0.2591394186019897
1768421485563082500;4.46908251953125;0.20050048828125;-1.485870361328125;0.0937957763671875;-0.8157416582107544;0.4374931752681732;-0.1283031105995178
1768421485573082400;4.479082275390625;0.2645721435546875;-1.360137939453125;0.2077789306640625;-0.6888822913169861;0.5180948376655579;-0.0588345527648925
1768421485583082500;4.48908251953125;0.3960723876953125;-1.1629180908203125;0.2224578857421875;-0.472736656665802;0.7128714919090271;-0.0713793709874153
1768421485593082400;4.499082275390625;0.489105224609375;-0.974853515625;0.145477294921875;-0.2184449881315231;0.9749624729156494;-0.1501572728157043
1768421485603082500;4.50908251953125;0.5154571533203125;-0.8201751708984375;-0.0050506591796875;0.0009206547983922;1.2405579090118408;-0.2746142446994781
1768421485613082400;4.519082275390625;0.461334228515625;-0.7063751220703125;-0.20068359375;0.164510115981102;1.435039520263672;-0.3650560081005096
1768421485623082500;4.52908251953125;0.3475494384765625;-0.65087890625;-0.3583526611328125;0.2808023691177368;1.541478157043457;-0.3875708878040313
1768421485633082600;4.53908251953125;0.2145843505859375;-0.665802001953125;-0.442962646484375;0.3216246366500854;1.5515393018722534;-0.3481361269950866
1768421485643082500;4.54908251953125;0.0916900634765625;-0.7438507080078125;-0.4536590576171875;0.2802180647850036;1.4466735124588013;-0.2654676139354706
1768421485653082600;4.55908251953125;-0.0112457275390625;-0.8521575927734375;-0.366241455078125;0.1923699826002121;1.2747502326965332;-0.1515581011772155
1768421485663082500;4.56908251953125;-0.09979248046875;-0.9445343017578124;-0.200531005859375;0.1176994666457176;1.1059855222702026;0.055939432233572
1768421485673082600;4.57908251953125;-0.1520843505859375;-1.0259552001953125;-0.023101806640625;0.0899221673607826;0.9447611570358276;0.3722220361232757
1768421485683082500;4.58908251953125;-0.0902252197265625;-1.1030731201171875;0.0981903076171875;0.0862248986959457;0.7742887735366821;0.6578463315963745
1768421485693082600;4.59908251953125;0.075103759765625;-1.150604248046875;0.16876220703125;0.1148597374558448;0.613577663898468;0.75755375623703
1768421485703082500;4.60908251953125;0.2606964111328125;-1.1682586669921875;0.1829071044921875;0.1789591014385223;0.5278611779212952;0.6390984654426575
1768421485713081600;4.61908154296875;0.38629150390625;-1.1627655029296875;0.1348724365234375;0.2557761073112488;0.5311682820320129;0.3754841387271881
1768421485723081500;4.62908154296875;0.423309326171875;-1.12677001953125;0.0429534912109375;0.3049343526363373;0.5756452083587646;0.0625821575522422
1768421485733081600;4.63908154296875;0.3753814697265625;-1.0571746826171875;-0.079193115234375;0.3060989379882812;0.6152725219726562;-0.1939489692449569
1768421485743081500;4.64908154296875;0.277496337890625;-0.971343994140625;-0.1785430908203125;0.2813315391540527;0.6709738373756409;-0.3413828909397125
1768421485753081600;4.65908154296875;0.164520263671875;-0.886444091796875;-0.2528076171875;0.2175403088331222;0.7338913083076477;-0.3720302879810333
1768421485763081500;4.66908154296875;0.0802459716796875;-0.8001861572265625;-0.3045806884765625;0.1314214020967483;0.7867558598518372;-0.2906494140625
1768421485773081600;4.67908154296875;0.020599365234375;-0.716949462890625;-0.32470703125;0.0740814208984375;0.840351402759552;-0.1328584551811218
1768421485783081500;4.68908154296875;-0.00555419921875;-0.6564788818359375;-0.321929931640625;0.0492029674351215;0.9038457274436952;0.0514181852340698
1768421485793081600;4.69908154296875;-0.0039520263671875;-0.6331787109375;-0.319854736328125;0.0413253344595432;0.9489239454269408;0.2171853184700012
1768421485803081500;4.70908154296875;0.007781982421875;-0.655059814453125;-0.31231689453125;0.0459797419607639;0.9751529097557068;0.3487254977226257
1768421485813081600;4.71908154296875;0.030029296875;-0.708282470703125;-0.2773590087890625;0.0543585792183876;0.991262912750244;0.4270155131816864
1768421485823081500;4.72908154296875;0.0583038330078125;-0.7774505615234375;-0.228363037109375;0.0537332706153392;0.99860417842865;0.4588637053966522
1768421485833081600;4.73908154296875;0.0797882080078125;-0.8450469970703125;-0.18975830078125;0.0319534055888652;0.9865807890892028;0.4486092031002044
1768421485843081500;4.74908154296875;0.089630126953125;-0.91241455078125;-0.15313720703125;-0.0142465801909565;0.959011733531952;0.413596898317337
1768421485853081300;4.759081298828125;0.090301513671875;-0.9652099609375;-0.11175537109375;-0.0592039339244365;0.9168435335159302;0.3705924451351166
1768421485863080400;4.76908056640625;0.0860748291015625;-0.993133544921875;-0.074432373046875;-0.0897309482097625;0.8754563927650452;0.3222147822380066
1768421485873080600;4.77908056640625;0.0845489501953125;-1.00628662109375;-0.045684814453125;-0.1029551401734352;0.8155035972595215;0.2810590863227844
1768421485883080400;4.78908056640625;0.07733154296875;-1.0113525390625;-0.0364227294921875;-0.1028265133500099;0.750085711479187;0.2445610165596008
1768421485893080600;4.79908056640625;0.069610595703125;-1.014556884765625;-0.02471923828125;-0.1046630293130874;0.6749813556671143;0.2078794240951538
1768421485903080400;4.80908056640625;0.06396484375;-1.011627197265625;-0.01519775390625;-0.1214593201875686;0.5813955068588257;0.1564236879348755
1768421485913080600;4.81908056640625;0.048583984375;-1.0119476318359375;-0.010894775390625;-0.1607553213834762;0.4894751608371734;0.088914155960083
1768421485923080400;4.82908056640625;0.0275115966796875;-1.0184478759765625;-0.01263427734375;-0.2198902815580368;0.4120043218135834;0.0195193719118833
1768421485933080300;4.839080322265625;0.0040740966796875;-1.0279541015625;-0.014801025390625;-0.271671712398529;0.3490549325942993;-0.0495731458067894
1768421485943080400;4.84908056640625;-0.01220703125;-1.0355987548828125;-0.0250701904296875;-0.2994146645069122;0.2838964462280273;-0.1153082177042961
1768421485953080300;4.859080322265625;-0.0304107666015625;-1.0357666015625;-0.033843994140625;-0.3141222596168518;0.1755731552839279;-0.169158935546875
1768421485963080400;4.86908056640625;-0.1041412353515625;-1.036895751953125;-0.04034423828125;-0.3615715205669403;0.1375874280929565;-0.1503112018108368
1768421485973080300;4.879080322265625;-0.1829681396484375;-1.0430908203125;-0.0558319091796875;-0.4148935973644256;0.1807687133550644;-0.0387348793447017
1768421485983080700;4.889080810546875;-0.1482696533203125;-1.018798828125;-0.067535400390625;-0.4425798058509826;0.2861649096012115;0.0553846955299377
1768421485993080600;4.89908056640625;-0.05224609375;-0.9771881103515624;-0.107421875;-0.4647761881351471;0.3536494076251983;0.0696656331419944
1768421486003080700;4.909080810546875;0.00103759765625;-0.9421844482421876;-0.1405792236328125;-0.4681504368782043;0.2797967493534088;0.0312516614794731
1768421486013079300;4.919079345703125;-0.0512237548828125;-0.93939208984375;-0.13525390625;-0.4342454671859741;0.2052876353263855;0.0210610758513212
1768421486023079400;4.929079345703125;-0.1400909423828125;-0.9647064208984376;-0.120208740234375;-0.3780069649219513;0.2252855896949768;0.0470862872898578
1768421486033079600;4.93907958984375;-0.1625823974609375;-0.9955596923828124;-0.119232177734375;-0.3000200092792511;0.2952998280525207;0.0518046095967292
1768421486043079700;4.94907958984375;-0.1388092041015625;-1.0226898193359375;-0.1325836181640625;-0.2160449475049972;0.3223085403442383;0.0192988626658916
1768421486053079600;4.95907958984375;-0.1419525146484375;-1.0402069091796875;-0.1572418212890625;-0.1872220933437347;0.2933897972106933;-0.015231417492032
1768421486063079700;4.96907958984375;-0.17852783203125;-1.0413970947265625;-0.1753997802734375;-0.2166721224784851;0.2283359616994857;-0.009264338761568
1768421486073079600;4.97907958984375;-0.1921844482421875;-1.00909423828125;-0.147918701171875;-0.2235316187143325;0.2975310087203979;0.116219013929367
1768421486083079700;4.98907958984375;-0.064605712890625;-0.936065673828125;-0.1334381103515625;-0.1133305504918098;0.5497904419898987;0.3520232737064361
1768421486093079600;4.99907958984375;0.0667266845703125;-0.98858642578125;-0.1261138916015625;0.1343279778957367;0.6290950775146484;0.7152321338653564
1768421486103079700;5.00907958984375;0.2632598876953125;-1.166534423828125;-0.1847686767578125;0.2708357572555542;0.6062427759170532;0.7005242705345154
1768421486113079600;5.01907958984375;0.305511474609375;-1.3492889404296875;-0.35565185546875;0.1823998987674713;0.7689270377159119;0.3834661543369293
1768421486123079400;5.029079345703125;0.2180938720703125;-1.384552001953125;-0.4103851318359375;0.075332835316658;0.922908902168274;0.0597671940922737
1768421486133079600;5.03907958984375;0.113739013671875;-1.2897491455078125;-0.3442230224609375;0.0717910975217819;1.104564189910889;-0.1215647831559181
1768421486143079400;5.049079345703125;0.017822265625;-1.1905364990234375;-0.288970947265625;0.0804008319973945;1.3180149793624878;-0.163343921303749
1768421486153079600;5.05907958984375;0.0081329345703125;-1.075164794921875;-0.297637939453125;0.0157230366021394;1.408856987953186;-0.1339106559753418
1768421486163078700;5.06907861328125;0.049346923828125;-0.940887451171875;-0.264678955078125;-0.0251184031367301;1.3514013290405271;-0.0499108359217643
1768421486173078500;5.07907861328125;0.06689453125;-0.8598175048828125;-0.1930999755859375;-0.0296279340982437;1.2473479509353638;0.1092239618301391
1768421486183078400;5.089078369140625;0.0967864990234375;-0.8489990234375;-0.1639556884765625;-0.0443786494433879;1.1393181085586548;0.3083216249942779
1768421486193078500;5.09907861328125;0.1903228759765625;-0.8968048095703125;-0.146087646484375;-0.0285821091383695;0.970638871192932;0.4431433379650116
1768421486203078400;5.109078369140625;0.3011016845703125;-0.9849090576171876;-0.1241912841796875;-0.0266049783676862;0.7727715969085693;0.4603630900382995
1768421486213078500;5.11907861328125;0.3469085693359375;-1.049896240234375;-0.115203857421875;-0.0856667011976242;0.6842020153999329;0.4305143654346466
1768421486223078400;5.129078369140625;0.38824462890625;-1.07855224609375;-0.0832977294921875;-0.1298549324274063;0.6586647033691406;0.3950418531894684
1768421486233078500;5.13907861328125;0.4499053955078125;-1.11920166015625;-0.0440521240234375;-0.1150970309972763;0.6129925847053528;0.3142367601394653
1768421486243078400;5.149078369140625;0.5005645751953125;-1.179901123046875;-0.0107574462890625;-0.0810620933771133;0.5834064483642578;0.1725504696369171
1768421486253078500;5.15907861328125;0.50213623046875;-1.1895904541015625;9.1552734375e-05;-0.0579418614506721;0.5430699586868286;0.0357886254787445
1768421486263078400;5.169078369140625;0.4853363037109375;-1.1080780029296875;-0.0034027099609375;-0.0315901488065719;0.4490987062454223;-0.0355936810374259
1768421486273078500;5.17907861328125;0.447967529296875;-1.015380859375;-0.0052490234375;-0.0126494821161031;0.3670706748962402;-0.0660032480955123
1768421486283078400;5.189078369140625;0.3890533447265625;-0.9630279541015624;-0.0067291259765625;0.0007121292874217;0.3581632077693939;-0.0731415897607803
1768421486293078500;5.19907861328125;0.31524658203125;-0.950531005859375;-0.0233612060546875;0.0118089886382222;0.4371967613697052;-0.0519910305738449
1768421486303078400;5.209078369140625;0.2601470947265625;-0.9713134765625;-0.0643157958984375;0.0152191668748855;0.5748978853225708;-0.0107461214065551
1768421486313077500;5.219077392578125;0.225738525390625;-1.010101318359375;-0.138458251953125;-0.0065708174370229;0.7233116030693054;0.0528722703456878
1768421486323077400;5.229077392578125;0.214508056640625;-1.0492095947265625;-0.22796630859375;-0.0485864430665969;0.8463901281356812;0.1131449341773986
1768421486333077500;5.239077392578125;0.22589111328125;-1.08050537109375;-0.3018646240234375;-0.1092026531696319;0.9335415363311768;0.1397738754749298
1768421486343077400;5.249077392578125;0.2400360107421875;-1.1023712158203125;-0.3425750732421875;-0.1905595660209655;1.0045355558395386;0.1156853213906288
1768421486353077500;5.259077392578125;0.251434326171875;-1.1100311279296875;-0.33331298828125;-0.2794974148273468;1.0861382484436035;0.0549189075827598
1768421486363077400;5.269077392578125;0.2573394775390625;-1.0930023193359375;-0.27618408203125;-0.3390851318836212;1.1788378953933716;-0.0116254966706037
1768421486373077200;5.2790771484375;0.2545318603515625;-1.0545806884765625;-0.20001220703125;-0.3613086640834808;1.2651959657669067;-0.0602974295616149
1768421486383077000;5.2890771484375;0.24853515625;-1.0032501220703125;-0.13604736328125;-0.3607943952083587;1.340516209602356;-0.0899093821644783
1768421486393077200;5.2990771484375;0.2428131103515625;-0.9514312744140624;-0.091217041015625;-0.3462301194667816;1.3927932977676392;-0.1004951819777488
1768421486403077400;5.309077392578125;0.23065185546875;-0.90521240234375;-0.0639801025390625;-0.333346277475357;1.4197399616241455;-0.0836083441972732
1768421486413077200;5.3190771484375;0.2138671875;-0.8554229736328125;-0.0388336181640625;-0.3263882398605346;1.4321606159210205;-0.0419176220893859
1768421486423077400;5.329077392578125;0.196441650390625;-0.8083038330078125;-0.019683837890625;-0.3189582824707031;1.429710865020752;0.0230334140360355
1768421486433077200;5.3390771484375;0.1906280517578125;-0.7674407958984375;-0.0095977783203125;-0.3085599541664123;1.4165034294128418;0.0880675390362739
1768421486443077400;5.349077392578125;0.1895751953125;-0.7381134033203125;0.002166748046875;-0.2934225499629974;1.4049053192138672;0.1425478309392929
1768421486453077200;5.3590771484375;0.189788818359375;-0.7332000732421875;-0.002532958984375;-0.2778497338294983;1.395706295967102;0.1822566241025924
1768421486463077400;5.369077392578125;0.1977691650390625;-0.7458953857421875;-0.000823974609375;-0.2712107300758362;1.3751170635223389;0.2047014832496643
1768421486473076200;5.379076171875;0.2049407958984375;-0.761810302734375;0.017364501953125;-0.2612909972667694;1.3335916996002195;0.2168082147836685
1768421486483076400;5.389076416015625;0.1983795166015625;-0.785614013671875;0.026123046875;-0.2498423308134079;1.2907534837722778;0.2339672148227691
1768421486493076200;5.399076171875;0.1829681396484375;-0.8118896484375;0.03271484375;-0.244644895195961;1.2738687992095947;0.2425394058227539
1768421486503076400;5.409076416015625;0.1691436767578125;-0.8368682861328125;0.03155517578125;-0.2463418692350387;1.260242223739624;0.2354567348957061
1768421486513076200;5.419076171875;0.1550140380859375;-0.853729248046875;0.0233001708984375;-0.2450893819332122;1.2413395643234253;0.2181938588619232
1768421486523076400;5.429076416015625;0.13970947265625;-0.8600921630859375;0.011199951171875;-0.2422054409980774;1.2047394514083862;0.1988366693258285
1768421486533076200;5.439076171875;0.1442413330078125;-0.8600006103515625;0.00286865234375;-0.2345456629991531;1.1417032480239868;0.1623830497264862
1768421486543076400;5.449076416015625;0.147308349609375;-0.84771728515625;0.0063323974609375;-0.2279689908027649;1.0663012266159058;0.1287119090557098
1768421486553076200;5.459076171875;0.1269683837890625;-0.8444061279296875;0.019378662109375;-0.2178582996129989;1.0087004899978638;0.1188299804925918
1768421486563076400;5.469076416015625;0.1080169677734375;-0.84124755859375;0.0331268310546875;-0.2016569525003433;0.9632238149642944;0.1282988488674163
1768421486573076200;5.479076171875;0.08673095703125;-0.84356689453125;0.03594970703125;-0.1888303756713867;0.9284027218818665;0.1454605311155319
1768421486583076400;5.489076416015625;0.073150634765625;-0.849639892578125;0.0366973876953125;-0.1721379458904266;0.8875647187232971;0.1675405353307724
1768421486593076200;5.499076171875;0.0686492919921875;-0.8577423095703125;0.0299224853515625;-0.1552569568157196;0.8311731219291687;0.1929707825183868
1768421486603076000;5.509076171875;0.069091796875;-0.872039794921875;0.020660400390625;-0.1331977397203445;0.7706961631774902;0.2174974381923675
1768421486613075200;5.5190751953125;0.0691680908203125;-0.88970947265625;0.0110626220703125;-0.1170501932501792;0.7458161115646362;0.2373108267784118
1768421486623075300;5.529075439453125;0.0684967041015625;-0.9126434326171876;0.008056640625;-0.0923866555094719;0.7538762092590332;0.2425388693809509
1768421486633075200;5.5390751953125;0.06512451171875;-0.9454803466796876;0.0042877197265625;-0.0595328360795974;0.8022961616516113;0.2221371978521347
1768421486643075300;5.549075439453125;0.0667877197265625;-0.9847564697265624;-0.014129638671875;-0.033640518784523;0.8725280165672302;0.1759859472513198
1768421486653075200;5.5590751953125;0.075439453125;-1.0202789306640625;-0.030792236328125;-0.0199601259082555;0.9152962565422058;0.1166105046868324
1768421486663075300;5.569075439453125;0.08355712890625;-1.056427001953125;-0.022369384765625;-0.0125192534178495;0.926723837852478;0.0723325163125991
1768421486673075200;5.5790751953125;0.103179931640625;-1.0771331787109375;0.0074005126953125;-0.0032503881957381;0.907075583934784;0.0476697832345962
1768421486683075000;5.589074951171875;0.1389312744140625;-1.08441162109375;0.0518035888671875;0.0203441530466079;0.7904584407806396;0.0286827776581048
1768421486693075200;5.5990751953125;0.2032928466796875;-1.064971923828125;0.115997314453125;0.0729138851165771;0.6005619764328003;0.0441243164241313
1768421486703075000;5.609074951171875;0.2288818359375;-1.0302581787109375;0.2037353515625;0.0928572341799736;0.5367276072502136;0.0957763269543647
1768421486713075200;5.6190751953125;0.213165283203125;-1.0347137451171875;0.2719573974609375;0.0968639627099037;0.4651650190353393;0.0343395993113517
1768421486723075000;5.629074951171875;0.160675048828125;-1.1060333251953125;0.2102508544921875;0.0610076934099197;0.4594831764698028;-0.1632371246814727
1768421486733075200;5.6390751953125;0.04241943359375;-1.2202301025390625;0.0618133544921875;-0.0203801058232784;0.4553406238555908;-0.4271827638149261
1768421486743075300;5.649075439453125;-0.0950164794921875;-1.3044891357421875;-0.0494537353515625;-0.1310946345329284;0.4633218348026275;-0.6202880144119263
1768421486753075500;5.659075439453125;-0.2330474853515625;-1.331512451171875;-0.11578369140625;-0.2373068332672119;0.5705750584602356;-0.653468906879425
1768421486763075300;5.669075439453125;-0.277130126953125;-1.302093505859375;-0.1613311767578125;-0.2838769853115082;0.847745954990387;-0.4791546165943146
1768421486773074200;5.67907421875;-0.13836669921875;-1.1736907958984375;-0.15594482421875;-0.194731131196022;0.8965139985084534;-0.1510286629199981
1768421486783074300;5.68907421875;0.1457366943359375;-1.13311767578125;-0.1608428955078125;-0.1972094774246215;0.7007370591163635;0.0195231009274721
1768421486793074400;5.699074462890625;0.3977813720703125;-1.2526092529296875;-0.1790313720703125;-0.4229722917079925;0.4378122389316559;-0.0719306468963623
1768421486803074300;5.70907421875;0.4649658203125;-1.336090087890625;-0.086822509765625;-0.5979641079902649;0.376423716545105;-0.1938898414373397
1768421486813074400;5.719074462890625;0.45599365234375;-1.355438232421875;0.0181732177734375;-0.6179380416870117;0.3267498910427093;-0.1707837283611297
1768421486823074300;5.72907421875;0.5462799072265625;-1.308837890625;0.0301361083984375;-0.6015050411224365;0.3191718757152557;-0.1440865993499755
1768421486833074400;5.739074462890625;0.6508636474609375;-1.1850433349609375;0.0236968994140625;-0.5524677038192749;0.4384106397628784;-0.2448014914989471
1768421486843074300;5.74907421875;0.6992950439453125;-1.0349884033203125;-0.0676116943359375;-0.4238373041152954;0.7299511432647705;-0.4762994349002838
1768421486853074400;5.759074462890625;0.6711883544921875;-0.881744384765625;-0.2211761474609375;-0.2366151958703994;1.0372852087020874;-0.7665456533432007
1768421486863074300;5.76907421875;0.5243377685546875;-0.736602783203125;-0.391876220703125;-0.0308391395956277;1.2474541664123535;-0.9060068726539612
1768421486873074200;5.77907421875;0.2607574462890625;-0.67742919921875;-0.50262451171875;0.0677319094538688;1.3356757164001465;-0.7646798491477966
1768421486883074300;5.78907421875;0.0312652587890625;-0.726287841796875;-0.511871337890625;0.0686325877904892;1.318302869796753;-0.4483610093593597
1768421486893074200;5.79907421875;-0.0800323486328125;-0.827362060546875;-0.430084228515625;-0.002233060542494;1.264889359474182;-0.1157761365175247
1768421486903074300;5.80907421875;-0.0940704345703125;-0.950927734375;-0.296295166015625;-0.0908510759472847;1.1366608142852783;0.138205274939537
1768421486913074200;5.81907421875;-0.0320892333984375;-1.077423095703125;-0.1334686279296875;-0.1595550328493118;0.9296285510063172;0.2935727536678314
1768421486923073300;5.8290732421875;0.0711822509765625;-1.1702423095703125;0.04559326171875;-0.1833264082670211;0.6450309157371521;0.3779832422733307
1768421486933073400;5.839073486328125;0.1763153076171875;-1.2190093994140625;0.21759033203125;-0.1438226848840713;0.3711162805557251;0.3965049982070923
1768421486943073300;5.8490732421875;0.2727813720703125;-1.228302001953125;0.328399658203125;-0.0607070215046405;0.1888692528009414;0.3421895802021026
1768421486953073200;5.8590732421875;0.359375;-1.2135467529296875;0.3506622314453125;0.0414358563721179;0.104314424097538;0.2134182751178741
1768421486963073300;5.8690732421875;0.4376983642578125;-1.1640167236328125;0.2816314697265625;0.1387333869934082;0.0496391914784908;0.0041638524271547
1768421486973073200;5.8790732421875;0.4754638671875;-1.0704193115234375;0.14874267578125;0.2046636641025543;0.0095032239332795;-0.2481133937835693
1768421486983073300;5.8890732421875;0.4386138916015625;-0.9708099365234376;0.0018310546875;0.228406012058258;-0.0317281037569046;-0.4751790463924408
1768421486993073200;5.8990732421875;0.332733154296875;-0.8807830810546875;-0.1212921142578125;0.2263798713684082;-0.0397064015269279;-0.608803927898407
1768421487003073300;5.9090732421875;0.1947784423828125;-0.793731689453125;-0.22412109375;0.198993518948555;-0.0462013185024261;-0.6138940453529358
1768421487013073200;5.9190732421875;0.0806121826171875;-0.7158660888671875;-0.289886474609375;0.1811029464006424;-0.0571335926651954;-0.5071654915809631
1768421487023073300;5.9290732421875;-0.004608154296875;-0.6584320068359375;-0.300933837890625;0.1825745999813079;-0.0385218262672424;-0.3259280323982239
1768421487033073200;5.9390732421875;-0.049072265625;-0.64654541015625;-0.30035400390625;0.1808147877454757;0.0195065904408693;-0.132972702383995
1768421487043073300;5.9490732421875;-0.0400543212890625;-0.6722869873046875;-0.295379638671875;0.1818393021821975;0.049766756594181;0.0367673337459564
1768421487053073200;5.9590732421875;-0.0145721435546875;-0.724151611328125;-0.2815704345703125;0.1763729006052017;0.0953129380941391;0.176906868815422
1768421487063073300;5.9690732421875;0.02392578125;-0.7855224609375;-0.2663116455078125;0.1556130349636078;0.1482656300067901;0.2761306464672088
1768421487073072000;5.979072021484375;0.0619659423828125;-0.83941650390625;-0.2509918212890625;0.1196992397308349;0.1913111060857772;0.3224653899669647
1768421487083072300;5.989072265625;0.0938262939453125;-0.879913330078125;-0.2192535400390625;0.0775432586669921;0.2115436792373657;0.3217261135578155
1768421487093072100;5.999072021484375;0.111602783203125;-0.9096527099609376;-0.1703033447265625;0.0318982787430286;0.2363709956407547;0.2846543788909912
1768421487103072300;6.009072265625;0.1112060546875;-0.92498779296875;-0.1154327392578125;-0.0003675162151921;0.2480534762144088;0.2325815856456756
1768421487113072000;6.019072021484375;0.0985870361328125;-0.9290771484375;-0.0775909423828125;-0.0266720913350582;0.2468401491641998;0.1852055490016937
1768421487123072300;6.029072265625;0.085479736328125;-0.932281494140625;-0.0554962158203125;-0.0439243130385875;0.228484034538269;0.1377458870410919
1768421487133072400;6.039072265625;0.060394287109375;-0.927642822265625;-0.0445098876953125;-0.0637052059173584;0.2318939566612243;0.1065781116485595
1768421487143072300;6.049072265625;0.030731201171875;-0.921112060546875;-0.0442047119140625;-0.0865210443735122;0.2283956259489059;0.1092721596360206
1768421487153072400;6.059072265625;0.0025482177734375;-0.908416748046875;-0.0489654541015625;-0.112707108259201;0.2183240801095962;0.1253249049186706
1768421487163072300;6.069072265625;-0.0125885009765625;-0.902191162109375;-0.04754638671875;-0.1312525570392608;0.1930818408727646;0.1400697529315948
1768421487173072400;6.079072265625;-0.01983642578125;-0.900726318359375;-0.0443115234375;-0.147003561258316;0.1573414206504821;0.1412782967090606
1768421487183072300;6.089072265625;-0.0193939208984375;-0.8917236328125;-0.030731201171875;-0.1569653749465942;0.0996347144246101;0.1421542167663574
1768421487193072400;6.099072265625;-0.012451171875;-0.8744049072265625;-0.01104736328125;-0.1713443249464035;0.0149208921939134;0.15236397087574
1768421487203072300;6.109072265625;-0.001251220703125;-0.8633575439453125;0.0061492919921875;-0.1825157552957534;-0.0984046012163162;0.1604005992412567
1768421487213072400;6.119072265625;0.0111846923828125;-0.8707427978515625;0.016632080078125;-0.1862026304006576;-0.2108461856842041;0.1451846212148666
1768421487223071200;6.1290712890625;0.0338897705078125;-0.8975067138671875;0.021240234375;-0.1900383830070495;-0.3029745221138;0.0835950300097465
1768421487233071400;6.1390712890625;0.0514373779296875;-0.9420928955078124;0.0184326171875;-0.2083156555891037;-0.3730233907699585;-0.0044024717062711
1768421487243071200;6.1490712890625;0.0373382568359375;-0.9891204833984376;0.002960205078125;-0.2405830472707748;-0.4005072116851806;-0.0592785030603408
1768421487253071400;6.1590712890625;0.0194244384765625;-1.0140380859375;-0.012451171875;-0.2803501784801483;-0.3948858082294464;-0.0593626573681831
1768421487263071200;6.1690712890625;0.0206756591796875;-1.019378662109375;-0.0347137451171875;-0.3278713524341583;-0.3441120982170105;-0.026845995336771
1768421487273071400;6.1790712890625;0.04974365234375;-1.0173187255859375;-0.064361572265625;-0.3804943561553955;-0.2860629260540008;-0.007105313707143
1768421487283071200;6.1890712890625;0.073699951171875;-1.0169525146484375;-0.0864715576171875;-0.4182837903499603;-0.3038302063941955;-0.0479398295283317
1768421487293071400;6.1990712890625;0.010711669921875;-1.034423828125;-0.0863037109375;-0.4078692495822906;-0.3786072134971618;-0.136600449681282
1768421487303071200;6.2090712890625;-0.1492919921875;-1.087310791015625;-0.0716705322265625;-0.3517748117446899;-0.3657412230968475;-0.1875379383563995
1768421487313071400;6.2190712890625;-0.26751708984375;-1.1620635986328125;-0.0443572998046875;-0.244663804769516;-0.2836492955684662;-0.1930626630783081
1768421487323071200;6.2290712890625;-0.2763214111328125;-1.23419189453125;-0.00872802734375;-0.1244633644819259;-0.192377969622612;-0.2259388566017151
1768421487333071000;6.239071044921875;-0.220001220703125;-1.2811737060546875;0.0078277587890625;-0.0156002650037407;-0.1116921752691268;-0.2873020768165588
1768421487343071200;6.2490712890625;-0.10552978515625;-1.229095458984375;0.0096588134765625;0.113212838768959;-0.0051063448190689;-0.2238922119140625
1768421487353071000;6.259071044921875;-0.0576934814453125;-1.133941650390625;-0.010040283203125;0.2572179436683655;0.1977977603673935;0.1888625919818878
1768421487363071200;6.2690712890625;0.07110595703125;-1.1721954345703125;-0.0659942626953125;0.4597231149673462;0.0908156558871269;0.5840227007865906
1768421487373070300;6.2790703125;0.315765380859375;-1.2832183837890625;-0.1747589111328125;0.5076882243156433;0.215402066707611;0.4877265393733978
1768421487383070200;6.2890703125;0.3190765380859375;-1.3516387939453125;-0.294952392578125;0.4491903185844421;0.3705929815769195;0.1677674353122711
1768421487393070300;6.2990703125;0.218414306640625;-1.3053436279296875;-0.3550872802734375;0.4158845543861389;0.5902433395385742;-0.0498093664646148
1768421487403070500;6.309070556640625;0.0888671875;-1.2244720458984375;-0.38043212890625;0.4264895319938659;0.7350087761878967;-0.0606729350984096
1768421487413070300;6.3190703125;0.0576171875;-1.173858642578125;-0.341217041015625;0.464961290359497;0.7521259784698486;-0.0032256206031888
1768421487423070500;6.329070556640625;0.0924530029296875;-1.1745758056640625;-0.286102294921875;0.4631032049655914;0.6986371874809265;0.075999692082405
1768421487433070300;6.3390703125;0.1695556640625;-1.1952362060546875;-0.2360076904296875;0.3879953920841217;0.4791924357414245;0.1923180520534515
1768421487443070500;6.349070556640625;0.2320404052734375;-1.228973388671875;-0.156524658203125;0.2435237020254135;0.2145242840051651;0.3373990654945373
1768421487453070300;6.3590703125;0.3168792724609375;-1.247406005859375;-0.0870208740234375;0.0615765452384948;0.0267586428672075;0.425808310508728
1768421487463070500;6.369070556640625;0.4496612548828125;-1.2104949951171875;-0.036285400390625;-0.0598388314247131;-0.1440831422805786;0.3965763747692108
1768421487473070300;6.3790703125;0.53143310546875;-1.118804931640625;0.0410919189453125;-0.0753746479749679;-0.3008772730827331;0.2901199758052826
1768421487483070500;6.389070556640625;0.55108642578125;-1.0161285400390625;0.1139373779296875;-0.0432582572102546;-0.3800983428955078;0.1776022166013717
1768421487493070300;6.3990703125;0.5556793212890625;-0.931732177734375;0.1629638671875;0.0121749071404337;-0.4337037801742553;0.1326770931482315
1768421487503070500;6.409070556640625;0.5604400634765625;-0.8770294189453125;0.1840972900390625;0.0687939748167991;-0.5106480717658997;0.131630465388298
1768421487513070300;6.4190703125;0.54815673828125;-0.8451995849609375;0.168487548828125;0.1175649762153625;-0.544397234916687;0.1412593871355056
1768421487523069400;6.4290693359375;0.5075225830078125;-0.824371337890625;0.1330718994140625;0.1675911247730255;-0.5596720576286316;0.1637524515390396
1768421487533069300;6.4390693359375;0.4518890380859375;-0.81060791015625;0.0867767333984375;0.2112893462181091;-0.5444987416267395;0.1670489013195037
1768421487543069400;6.4490693359375;0.39935302734375;-0.8005523681640625;0.02392578125;0.2277538031339645;-0.4748703837394714;0.1275129467248916
1768421487553069300;6.4590693359375;0.3410491943359375;-0.7990875244140625;-0.055206298828125;0.2228410691022873;-0.3426854610443115;0.0962586253881454
1768421487563069400;6.4690693359375;0.2795257568359375;-0.8103790283203125;-0.1345977783203125;0.2189291566610336;-0.187500923871994;0.1156680062413215
1768421487573069300;6.4790693359375;0.2289276123046875;-0.8377227783203125;-0.21142578125;0.2098839879035949;-0.0401615351438522;0.1637180894613266
1768421487583069400;6.4890693359375;0.205352783203125;-0.86572265625;-0.2751922607421875;0.1841512024402618;0.0762431025505065;0.207395538687706
1768421487593069300;6.4990693359375;0.2025909423828125;-0.897369384765625;-0.3126220703125;0.1377836912870407;0.1841919422149658;0.2148342728614807
1768421487603069200;6.509069091796875;0.2125091552734375;-0.944427490234375;-0.318572998046875;0.0679297819733619;0.2650740146636963;0.1745140105485916
1768421487613069300;6.5190693359375;0.238525390625;-0.9814300537109376;-0.2784271240234375;-0.0030301446095108;0.3672405779361725;0.0941446051001548
1768421487623069200;6.529069091796875;0.247833251953125;-0.9922637939453124;-0.212158203125;-0.0540749542415142;0.4831565320491791;-0.00028842035681
1768421487633069300;6.5390693359375;0.2454681396484375;-0.991729736328125;-0.148193359375;-0.0852504521608352;0.5777456164360046;-0.0704909414052963
1768421487643069200;6.549069091796875;0.229156494140625;-0.9678192138671876;-0.0953826904296875;-0.1162871941924095;0.6554441452026367;-0.1017876118421554
1768421487653069300;6.5590693359375;0.204559326171875;-0.917724609375;-0.056488037109375;-0.1401906609535217;0.7136467099189758;-0.0946591272950172
1768421487663069200;6.569069091796875;0.194610595703125;-0.853485107421875;-0.023529052734375;-0.1587310582399368;0.7217725515365601;-0.0587703734636306
1768421487673068300;6.579068359375;0.195953369140625;-0.7968292236328125;0.00457763671875;-0.1944744139909744;0.6898236870765686;-0.0167566090822219
1768421487683068200;6.589068115234375;0.1988983154296875;-0.7701263427734375;0.03387451171875;-0.2188231498003006;0.6300522685050964;0.0279099289327859
1768421487693068300;6.599068359375;0.1983184814453125;-0.766632080078125;0.0695343017578125;-0.2150667607784271;0.5634977221488953;0.0679644048213958
1768421487703068200;6.609068115234375;0.1960296630859375;-0.7839508056640625;0.0984344482421875;-0.1970345079898834;0.4920331239700317;0.1053234934806823
1768421487713068300;6.619068359375;0.182403564453125;-0.822235107421875;0.126922607421875;-0.1610970050096511;0.4389289021492004;0.1379879564046859
1768421487723068200;6.629068115234375;0.1733551025390625;-0.8628692626953125;0.153778076171875;-0.1203517094254493;0.4016126692295074;0.1607217639684677
1768421487733068300;6.639068359375;0.1752471923828125;-0.90887451171875;0.1519927978515625;-0.0749661177396774;0.367979347705841;0.1658115983009338
1768421487743068400;6.649068359375;0.173553466796875;-0.93621826171875;0.1355438232421875;-0.0455512404441833;0.3543426394462585;0.1416378319263458
1768421487753068500;6.659068603515625;0.16949462890625;-0.94769287109375;0.1077423095703125;-0.0221372600644826;0.3441041111946106;0.0946364924311637
1768421487763068400;6.669068359375;0.1584014892578125;-0.946258544921875;0.070037841796875;0.0030634342692792;0.3255855441093445;0.050511110574007
1768421487773068500;6.679068603515625;0.142913818359375;-0.9408416748046876;0.0276947021484375;0.0179896522313356;0.3022647798061371;0.0078869517892599
1768421487783068400;6.689068359375;0.12725830078125;-0.9328765869140624;-0.0025482177734375;0.0456756092607975;0.2799927592277527;-0.0312551259994506
1768421487793068300;6.699068359375;0.1165008544921875;-0.927703857421875;-0.0194854736328125;0.0711727142333984;0.2484729290008545;-0.0736886039376258
1768421487803068400;6.709068359375;0.0982666015625;-0.9344024658203124;-0.0261993408203125;0.094200000166893;0.2079097926616668;-0.1016459316015243
1768421487813068300;6.719068359375;0.075958251953125;-0.9415283203125;-0.0160675048828125;0.1198350563645362;0.179302379488945;-0.1208132356405258
1768421487823067400;6.7290673828125;0.0543670654296875;-0.9529876708984376;0.002716064453125;0.1505969613790512;0.1774757206439972;-0.1402929276227951
1768421487833067500;6.739067626953125;0.0369415283203125;-0.95556640625;0.0162200927734375;0.1915827542543411;0.2021720111370086;-0.1621015518903732
1768421487843067400;6.7490673828125;0.0150604248046875;-0.951690673828125;0.0184173583984375;0.232645496726036;0.2515099942684173;-0.1687248349189758
1768421487853067500;6.759067626953125;0.0023651123046875;-0.9449462890625;0.011199951171875;0.2597849667072296;0.2888160943984985;-0.1494408845901489
1768421487863067400;6.7690673828125;0.01190185546875;-0.9351348876953124;0.0054779052734375;0.2678498327732086;0.2979121208190918;-0.1126530468463897
1768421487873067300;6.7790673828125;0.0394744873046875;-0.93402099609375;0.0107269287109375;0.2517518103122711;0.2727580368518829;-0.0770617648959159
1768421487883067400;6.7890673828125;0.0776824951171875;-0.9443206787109376;0.027679443359375;0.2242757081985473;0.2173890471458435;-0.0611078292131423
1768421487893067300;6.7990673828125;0.123870849609375;-0.964141845703125;0.055389404296875;0.2229060530662536;0.1953298151493072;-0.0627075880765914
1768421487903067400;6.8090673828125;0.1533050537109375;-0.993682861328125;0.0800628662109375;0.3000362515449524;0.2452997714281082;-0.0861516594886779
1768421487913067300;6.8190673828125;0.1539154052734375;-1.023101806640625;0.03533935546875;0.4227621853351593;0.324798047542572;-0.1408029198646545
1768421487923067400;6.8290673828125;0.159942626953125;-1.041748046875;-0.07489013671875;0.5186969637870789;0.4015407860279083;-0.262929618358612
1768421487933067300;6.8390673828125;0.146453857421875;-1.056732177734375;-0.1840972900390625;0.5321451425552368;0.4685296714305877;-0.4635631442070007
1768421487943067400;6.8490673828125;0.0756072998046875;-1.087066650390625;-0.2547149658203125;0.4641631543636322;0.5207734107971191;-0.6613995432853699
1768421487953067300;6.8590673828125;-0.06146240234375;-1.1223602294921875;-0.2829132080078125;0.3295619189739227;0.5907029509544373;-0.7487786412239075
1768421487963067400;6.8690673828125;-0.205047607421875;-1.1583404541015625;-0.302093505859375;0.1536063402891159;0.6909297108650208;-0.7047600150108337
1768421487973067300;6.8790673828125;-0.2760009765625;-1.1854705810546875;-0.3092803955078125;-0.0422284118831157;0.7817517518997192;-0.5965709686279297
1768421487983066400;6.88906640625;-0.2336578369140625;-1.173248291015625;-0.2847900390625;-0.2018279284238815;0.8224983811378479;-0.5197270512580872
1768421487993066200;6.899066162109375;-0.1503448486328125;-1.1196136474609375;-0.2077484130859375;-0.2469634413719177;0.95928555727005;-0.4328049421310425
1768421488003066400;6.90906640625;-0.0131988525390625;-1.07489013671875;-0.1122283935546875;-0.2702184319496155;0.8876004219055176;-0.2673563361167907
1768421488013066200;6.919066162109375;0.21417236328125;-1.0883331298828125;-0.0241546630859375;-0.296992540359497;0.6353389024734497;0.0831534788012504
1768421488023066400;6.92906640625;0.3797149658203125;-1.215911865234375;0.0889434814453125;-0.4123052656650543;0.189123585820198;0.2738088965415954
1768421488033066200;6.939066162109375;0.4984588623046875;-1.3726959228515625;0.2628631591796875;-0.5905378460884094;-0.1851666569709777;0.0917714685201644
1768421488043066400;6.94906640625;0.4410400390625;-1.4205169677734375;0.462646484375;-0.6309643983840942;-0.3071165382862091;-0.1680087149143219
1768421488053066200;6.959066162109375;0.340057373046875;-1.3395538330078125;0.5943756103515625;-0.533108651638031;-0.3592375218868255;-0.2734560370445251
1768421488063066400;6.96906640625;0.33953857421875;-1.1382293701171875;0.516937255859375;-0.4385198354721069;-0.3615861535072326;-0.2216495722532272
1768421488073066200;6.979066162109375;0.4002227783203125;-0.9185333251953124;0.3515472412109375;-0.312350183725357;-0.2553465366363525;-0.1153958365321159
1768421488083066000;6.989066162109375;0.5048675537109375;-0.7570037841796875;0.189849853515625;-0.1170192956924438;-0.0871578082442283;-0.1321002393960952
1768421488093066500;6.99906640625;0.6052703857421875;-0.663543701171875;-0.00885009765625;0.1163215488195419;0.0442638657987117;-0.3485028445720672
1768421488103066400;7.00906640625;0.5970001220703125;-0.6588287353515625;-0.226043701171875;0.2551108598709106;0.072416678071022;-0.6213620901107788
1768421488113066500;7.01906640625;0.4217681884765625;-0.732513427734375;-0.3925933837890625;0.2445322424173355;-0.0097711374983191;-0.7333695888519287
1768421488123066400;7.02906640625;0.1364898681640625;-0.8406829833984375;-0.4326019287109375;0.1583648771047592;-0.1039381176233291;-0.574575662612915
1768421488133065500;7.0390654296875;-0.1161651611328125;-0.963592529296875;-0.3592376708984375;0.0877844467759132;-0.1498398333787918;-0.2159836888313293
1768421488143065300;7.0490654296875;-0.2023468017578125;-1.0837860107421875;-0.2257080078125;0.0648005679249763;-0.1949332654476165;0.1749020367860794
1768421488153065500;7.0590654296875;-0.0951690673828125;-1.1799163818359375;-0.06512451171875;0.0821630433201789;-0.3296213150024414;0.4223943948745727
1768421488163065300;7.0690654296875;0.102203369140625;-1.246063232421875;0.0906524658203125;0.1050909981131553;-0.5337997674942017;0.4784435331821441
1768421488173065500;7.0790654296875;0.2574005126953125;-1.276947021484375;0.1966400146484375;0.1250868141651153;-0.6965354084968567;0.4127878248691559
1768421488183065300;7.0890654296875;0.3597564697265625;-1.27398681640625;0.22662353515625;0.1649479418992996;-0.7999046444892883;0.2719079554080963
1768421488193065500;7.0990654296875;0.4413909912109375;-1.242828369140625;0.1890716552734375;0.2130480855703354;-0.8663734197616577;0.0647260025143623
1768421488203065300;7.1090654296875;0.4817047119140625;-1.1871490478515625;0.1021575927734375;0.2520490288734436;-0.8841843605041504;-0.1607049852609634
1768421488213065500;7.1190654296875;0.4810028076171875;-1.1089324951171875;0.0111541748046875;0.2722139358520508;-0.8915959596633911;-0.3902527093887329
1768421488223065300;7.1290654296875;0.43365478515625;-1.023284912109375;-0.0926666259765625;0.2613192200660705;-0.8809624910354614;-0.5653736591339111
1768421488233065500;7.1390654296875;0.3312225341796875;-0.923126220703125;-0.173797607421875;0.2512298226356506;-0.8684674501419067;-0.6444221138954163
1768421488243065300;7.1490654296875;0.207000732421875;-0.8265228271484375;-0.2297210693359375;0.260904312133789;-0.8671854138374329;-0.6203793883323669
1768421488253065500;7.1590654296875;0.1012115478515625;-0.750213623046875;-0.2586669921875;0.2908856272697449;-0.8756660223007202;-0.5133780837059021
1768421488263065300;7.1690654296875;0.023712158203125;-0.7162933349609375;-0.2645263671875;0.3181542754173279;-0.8899663686752319;-0.3617848455905914
1768421488273065200;7.179065185546875;0.0011444091796875;-0.71160888671875;-0.2596588134765625;0.3260521292686462;-0.906763195991516;-0.2132819145917892
1768421488283064300;7.189064208984375;0.0153656005859375;-0.7282867431640625;-0.2467193603515625;0.3165033757686615;-0.9095296859741212;-0.0957984328269958
1768421488293064400;7.199064453125;0.030731201171875;-0.7592315673828125;-0.2228546142578125;0.2880371212959289;-0.9286850094795228;-0.0124105969443917
1768421488303064300;7.209064208984375;0.0334014892578125;-0.7982940673828125;-0.1901702880859375;0.2391390800476074;-0.9519924521446228;0.052539374679327
1768421488313064400;7.219064453125;0.0410003662109375;-0.83477783203125;-0.14892578125;0.1819109469652176;-0.9699501395225524;0.0865324959158897
1768421488323064300;7.229064208984375;0.0532073974609375;-0.87066650390625;-0.1146392822265625;0.1280114948749542;-0.9676523804664612;0.0796407684683799
1768421488333064200;7.239064208984375;0.063201904296875;-0.8932342529296875;-0.0999755859375;0.0733570381999015;-0.952954113483429;0.0422510504722595
1768421488343064300;7.249064208984375;0.054962158203125;-0.9047698974609376;-0.103271484375;0.0253538265824317;-0.936211109161377;-0.0009909622604027
1768421488353064200;7.259064208984375;0.0369873046875;-0.9037628173828124;-0.1142425537109375;-0.014896391890943;-0.9313747882843018;-0.0268148370087146
1768421488363064300;7.269064208984375;0.0163421630859375;-0.90167236328125;-0.1203155517578125;-0.045776542276144;-0.9249595403671264;-0.0309773571789264
1768421488373064700;7.279064697265625;-0.0063323974609375;-0.9011383056640624;-0.1165924072265625;-0.0796716585755348;-0.9160879850387572;-0.0341028422117233
1768421488383064800;7.28906494140625;-0.020843505859375;-0.902679443359375;-0.1049652099609375;-0.1099390164017677;-0.9068934321403505;-0.0447458997368812
1768421488393064700;7.299064697265625;-0.0301666259765625;-0.9072265625;-0.0861053466796875;-0.1455175131559372;-0.8992067575454712;-0.0590811632573604
1768421488403064800;7.30906494140625;-0.04241943359375;-0.9107818603515624;-0.0662078857421875;-0.1877248883247375;-0.9021061062812804;-0.0723391771316528
1768421488413064700;7.319064697265625;-0.0553741455078125;-0.908843994140625;-0.04443359375;-0.2274403423070907;-0.8955856561660767;-0.075295552611351
1768421488423064800;7.32906494140625;-0.068572998046875;-0.892333984375;-0.0346527099609375;-0.2632811665534973;-0.8754311203956604;-0.0501332096755504
1768421488433064700;7.339064697265625;-0.0665283203125;-0.857940673828125;-0.0372161865234375;-0.2855870127677917;-0.8533995747566223;-0.0023299995809793
1768421488443063800;7.349063720703125;-0.05487060546875;-0.826904296875;-0.04168701171875;-0.2881156802177429;-0.8525026440620422;0.0564797855913639
1768421488453063700;7.359063720703125;-0.043182373046875;-0.8207855224609375;-0.044036865234375;-0.2850253582000732;-0.8485707640647888;0.1150634735822677
1768421488463063800;7.369063720703125;-0.0327606201171875;-0.834808349609375;-0.0388641357421875;-0.2898190319538116;-0.81449294090271;0.187722235918045
1768421488473063700;7.379063720703125;0.003082275390625;-0.861419677734375;-0.037567138671875;-0.3225705921649933;-0.706980288028717;0.2650132775306701
1768421488483063800;7.389063720703125;0.0961761474609375;-0.8787841796875;-0.0699310302734375;-0.3709170818328857;-0.5529995560646057;0.2981187701225281
1768421488493063700;7.399063720703125;0.233978271484375;-0.895233154296875;-0.109222412109375;-0.3722350895404815;-0.6173732280731201;0.1738000214099884
1768421488503063600;7.4090634765625;0.2042999267578125;-0.98211669921875;-0.1171417236328125;-0.3425709307193756;-0.8437634706497192;-0.0177497025579214
1768421488513063700;7.419063720703125;-0.0565032958984375;-1.1271514892578125;-0.0896453857421875;-0.3246984481811523;-0.9717304706573486;-0.0918401777744293
1768421488523063600;7.4290634765625;-0.238494873046875;-1.2493438720703125;-0.019134521484375;-0.2968489825725555;-0.9795167446136476;-0.094282291829586
1768421488533063700;7.439063720703125;-0.256866455078125;-1.34808349609375;0.0896759033203125;-0.2420922666788101;-0.8980474472045898;-0.1466184705495834
1768421488543063800;7.449063720703125;-0.200653076171875;-1.418487548828125;0.1649627685546875;-0.1825346648693084;-0.8486844301223755;-0.2694522440433502
1768421488553064000;7.45906396484375;-0.174163818359375;-1.4280242919921875;0.1856689453125;-0.1016725674271583;-0.890257716178894;-0.3902628123760223
1768421488563063800;7.469063720703125;-0.21923828125;-1.3277587890625;0.1591339111328125;-0.042916040867567;-0.8819976449012756;-0.3953153789043426
1768421488573064000;7.47906396484375;-0.197998046875;-1.1180419921875;0.05670166015625;0.0337409190833568;-0.863810658454895;-0.1616586744785308
1768421488583063800;7.489063720703125;-0.07275390625;-1.0040740966796875;0.0384521484375;0.1197522357106208;-0.7517440319061279;0.2852756977081299
1768421488593064000;7.49906396484375;0.1894989013671875;-1.1166229248046875;0.0512542724609375;0.3595693409442901;-0.7791386842727661;0.3853412866592407
1768421488603062800;7.509062744140625;0.3896942138671875;-1.26416015625;-0.08380126953125;0.3365777432918548;-0.5818226337432861;0.0857199653983116
1768421488613063000;7.51906298828125;0.2490234375;-1.29364013671875;-0.3305816650390625;0.1475423127412796;-0.3816653490066528;-0.1444288194179535
1768421488623062800;7.529062744140625;0.126861572265625;-1.205291748046875;-0.385955810546875;0.0514506734907627;-0.1795673668384552;-0.0998277962207794
1768421488633063000;7.53906298828125;0.1540374755859375;-1.118865966796875;-0.265228271484375;0.1283662319183349;-0.146782785654068;0.0582366734743118
1768421488643062800;7.549062744140625;0.292510986328125;-1.2067413330078125;-0.1595306396484375;0.202289193868637;-0.2887905240058899;0.0789693817496299
1768421488653063000;7.55906298828125;0.351531982421875;-1.2899322509765625;-0.1280975341796875;0.181747168302536;-0.4090530276298523;0.0322908274829387
1768421488663062800;7.569062744140625;0.3527069091796875;-1.2288665771484375;-0.060882568359375;0.1797194331884384;-0.6522669792175293;0.0580529160797596
1768421488673063000;7.57906298828125;0.37933349609375;-1.0853729248046875;0.0123291015625;0.2096965014934539;-0.9320392608642578;0.1815871000289917
1768421488683062800;7.589062744140625;0.4127655029296875;-0.9456787109375;0.0543975830078125;0.2259114235639572;-1.1398897171020508;0.3016248345375061
1768421488693062700;7.599062744140625;0.47943115234375;-0.8274078369140625;0.1125946044921875;0.26288703083992;-1.3417290449142456;0.3161744773387909
1768421488703062800;7.609062744140625;0.5308990478515625;-0.7698516845703125;0.1642303466796875;0.3356848061084747;-1.4179633855819702;0.2492436468601226
1768421488713062700;7.619062744140625;0.4990081787109375;-0.80487060546875;0.1513671875;0.3949406743049621;-1.2937021255493164;0.212136760354042
1768421488723062800;7.629062744140625;0.4444427490234375;-0.8938446044921875;0.0736236572265625;0.4127103388309479;-1.102602243423462;0.2657153010368347
1768421488733062700;7.639062744140625;0.410919189453125;-0.9668426513671876;-0.0076904296875;0.4143891930580139;-0.898553192615509;0.3393059074878692
1768421488743062800;7.649062744140625;0.401641845703125;-1.016937255859375;-0.079742431640625;0.3989383280277252;-0.7138416767120361;0.325133353471756
1768421488753062700;7.659062744140625;0.385894775390625;-1.074676513671875;-0.15618896484375;0.3412473499774933;-0.5596326589584351;0.1994142979383468
1768421488763061800;7.669061767578125;0.33441162109375;-1.1230621337890625;-0.2119140625;0.2448198646306991;-0.4403252005577087;0.043491818010807
1768421488773061600;7.6790615234375;0.2665863037109375;-1.1364898681640625;-0.2354888916015625;0.1296338886022567;-0.3635528981685638;-0.062786154448986
1768421488783061800;7.689061767578125;0.194122314453125;-1.119781494140625;-0.2462615966796875;-0.0084246434271335;-0.3105189800262451;-0.0766865238547325
1768421488793061600;7.6990615234375;0.1347808837890625;-1.074188232421875;-0.239044189453125;-0.14612977206707;-0.2840455770492553;-0.0178754031658172
1768421488803061800;7.709061767578125;0.1247100830078125;-1.0175628662109375;-0.1947021484375;-0.2182010412216186;-0.2852035164833069;0.0510599873960018
1768421488813061600;7.7190615234375;0.140228271484375;-0.949005126953125;-0.1335906982421875;-0.2165845036506652;-0.2657973170280456;0.0849753469228744
1768421488823061800;7.729061767578125;0.162322998046875;-0.88153076171875;-0.089508056640625;-0.1885880231857299;-0.2275122553110122;0.0852547064423561
1768421488833061600;7.7390615234375;0.179229736328125;-0.82598876953125;-0.0525360107421875;-0.1538830399513244;-0.1777649372816085;0.0863202437758445
1768421488843061800;7.749061767578125;0.170257568359375;-0.7858734130859375;-0.0144500732421875;-0.1228537485003471;-0.1235925108194351;0.1071690618991851
1768421488853061600;7.7590615234375;0.164520263671875;-0.7547760009765625;0.0184478759765625;-0.1020392850041389;-0.0775320753455162;0.1468014270067215
1768421488863061800;7.769061767578125;0.1675262451171875;-0.7297210693359375;0.0521697998046875;-0.0966479778289794;-0.0425751581788063;0.2004185765981674
1768421488873061600;7.7790615234375;0.1788330078125;-0.714508056640625;0.0777740478515625;-0.0977518633008003;-0.0369705334305763;0.2491397857666015
1768421488883061800;7.789061767578125;0.1899566650390625;-0.7124176025390625;0.10614013671875;-0.0835076794028282;-0.042992740869522;0.2731916010379791
1768421488893062000;7.799061767578125;0.201324462890625;-0.71771240234375;0.1303558349609375;-0.0504226945340633;-0.0683431029319763;0.2806537747383117
1768421488903061800;7.809061767578125;0.2166900634765625;-0.7468719482421875;0.14093017578125;-0.0072097098454833;-0.1137302964925766;0.2639469504356384
1768421488913060600;7.819060546875;0.218353271484375;-0.7899932861328125;0.150726318359375;0.0653819367289543;-0.1501847058534622;0.2146126925945282
1768421488923060700;7.829060791015625;0.2057342529296875;-0.8326416015625;0.15313720703125;0.1536388248205185;-0.1684231013059616;0.1559808105230331
1768421488933060600;7.839060546875;0.183837890625;-0.8683929443359375;0.134918212890625;0.2323474884033203;-0.1694774478673935;0.0951536819338798
1768421488943061000;7.84906103515625;0.149749755859375;-0.8981781005859375;0.092132568359375;0.2680639326572418;-0.1669136136770248;0.0412885844707489
1768421488953060900;7.859060791015625;0.118377685546875;-0.91009521484375;0.055938720703125;0.2811251580715179;-0.1452136486768722;0.0128849055618047
1768421488963060700;7.869060791015625;0.10308837890625;-0.9164886474609376;0.0288848876953125;0.2796537578105926;-0.1346209347248077;-0.0089697930961847
1768421488973060900;7.879060791015625;0.1071014404296875;-0.9225311279296876;0.005615234375;0.2764803171157837;-0.1382686644792556;-0.0368962325155735
1768421488983060700;7.889060791015625;0.1104736328125;-0.9296417236328124;-0.0148162841796875;0.2722070217132568;-0.1252167671918869;-0.0704464688897132
1768421488993060900;7.899060791015625;0.1123046875;-0.930389404296875;-0.030426025390625;0.2690295875072479;-0.1060039326548576;-0.1042073592543602
1768421489003060700;7.909060791015625;0.0983734130859375;-0.9414825439453124;-0.0401611328125;0.2694101631641388;-0.0755131319165229;-0.1339024007320404
1768421489013060900;7.919060791015625;0.0763092041015625;-0.9554443359375;-0.045196533203125;0.2735748291015625;-0.0369529575109481;-0.1608517318964004
1768421489023060700;7.929060791015625;0.05218505859375;-0.9680938720703124;-0.0490264892578125;0.2674578130245209;0.0144899934530258;-0.1906168162822723
1768421489033060900;7.939060791015625;0.0413665771484375;-0.97802734375;-0.051910400390625;0.2613461017608642;0.0673052743077278;-0.2194372862577438
1768421489043060700;7.949060791015625;0.039764404296875;-0.990386962890625;-0.0504302978515625;0.2576930522918701;0.1238159537315368;-0.2494471073150634
1768421489053060900;7.959060791015625;0.0419921875;-1.00860595703125;-0.0535125732421875;0.2495938539505005;0.1654305011034011;-0.2861697077751159
1768421489063060700;7.969060791015625;0.0547332763671875;-1.0324554443359375;-0.0511016845703125;0.2236703783273697;0.1897707283496856;-0.3246779441833496
1768421489073059800;7.979059814453125;0.0570831298828125;-1.04925537109375;-0.0403289794921875;0.1832473129034042;0.2034990638494491;-0.3387620747089386
