timestamp;seconds_elapsed;acc_z;acc_y;acc_x;gyro_z;gyro_y;gyro_x
1768421445862137300;0.070137451171875;0.0131988525390625;-0.9970245361328124;-0.0652923583984375;-0.0057795923203229;-0.0142532382160425;-0.019519904628396
1768421445872137200;0.08013720703125;0.014129638671875;-1.0009765625;-0.0682220458984375;-0.0069657638669013;-0.0135453697293996;-0.0208733230829238
1768421445882137300;0.090137451171875;0.0171356201171875;-1.0012969970703125;-0.0692901611328125;-0.0083721792325377;-0.013145362958312;-0.0194613151252269
1768421445892137200;0.10013720703125;0.0184478759765625;-0.9972686767578124;-0.0708160400390625;-0.0101852593943476;-0.0167776476591825;-0.0134204672649502
1768421445902137300;0.110137451171875;0.015533447265625;-0.995086669921875;-0.071990966796875;-0.0131746577098965;-0.0190360099077224;-0.0054411045275628
1768421445912137200;0.12013720703125;0.014892578125;-0.99298095703125;-0.068267822265625;-0.0149624375626444;-0.019138541072607;0.0013137373607605
1768421445922136300;0.13013623046875;0.0172119140625;-0.995391845703125;-0.0650177001953125;-0.0112374741584062;-0.0183830019086599;0.0029425267130136
1768421445932136200;0.14013623046875;0.020843505859375;-0.9986114501953124;-0.0619964599609375;-0.0061220745556056;-0.0168367698788642;-0.0022168152499943
1768421445942136300;0.15013623046875;0.0226593017578125;-1.00030517578125;-0.06207275390625;-0.0050448258407413;-0.0155014619231224;-0.0065314024686813
1768421445952136200;0.16013623046875;0.0247955322265625;-1.00238037109375;-0.06268310546875;-0.0025374598335474;-0.011911254376173;-0.0105847334489226
1768421445962136300;0.17013623046875;0.024261474609375;-1.0007171630859375;-0.0620880126953125;-0.0018977685831487;-0.012270781211555;-0.0156311579048633
1768421445972136200;0.18013623046875;0.0228118896484375;-1.000885009765625;-0.0635833740234375;-0.0024711471050977;-0.0100454436615109;-0.009949036873877
1768421445982136300;0.19013623046875;0.0198822021484375;-1.0000762939453125;-0.0662384033203125;-0.0027955202385783;-0.0143658900633454;-0.0031601069495081
1768421445992136200;0.20013623046875;0.019744873046875;-1.002105712890625;-0.0689239501953125;-0.0052845105528831;-0.0139448437839746;0.0001997370854951
1768421446002136300;0.21013623046875;0.021087646484375;-1.0013580322265625;-0.0698089599609375;-0.006403038278222;-0.015042332932353;-0.0061990399844944
1768421446012136200;0.22013623046875;0.0233612060546875;-0.999847412109375;-0.067352294921875;-0.0036011263728141;-0.0107216201722621;-0.0139549644663929
1768421446022136300;0.23013623046875;0.0222320556640625;-0.998138427734375;-0.066375732421875;-0.0014056164072826;-0.0074781561270356;-0.0203856993466615
1768421446032136200;0.24013623046875;0.0169219970703125;-0.998443603515625;-0.067291259765625;0.0006205165409483;-0.0056461677886545;-0.0165938902646303
1768421446042136300;0.25013623046875;0.01885986328125;-0.999786376953125;-0.0671844482421875;0.0013614079216495;2.66316110355e-05;-0.0155113153159618
1768421446052136200;0.26013623046875;0.0189208984375;-1.0015411376953125;-0.0676727294921875;0.0016801883466541;0.0024386565200984;-0.0153251606971025
1768421446062135300;0.27013525390625;0.021453857421875;-1.00390625;-0.0674896240234375;0.0015909724170342;0.0015531554818153;-0.016169648617506
1768421446072135200;0.28013525390625;0.0220794677734375;-1.0039520263671875;-0.066375732421875;-0.0038301581516861;-0.0024511734955012;-0.0175209362059831
1768421446082135300;0.29013525390625;0.0203857421875;-1.004669189453125;-0.0670013427734375;-0.0071961274370551;-0.002460760762915;-0.0177816599607467
1768421446092135200;0.30013525390625;0.019012451171875;-1.002349853515625;-0.06884765625;-0.0095461010932922;-0.0015422365395352;-0.0180194806307554
1768421446102135300;0.31013525390625;0.020294189453125;-1.00140380859375;-0.0693511962890625;-0.0116606503725051;-0.0026208166964352;-0.015952069312334
1768421446112135200;0.32013525390625;0.02008056640625;-0.999603271484375;-0.068389892578125;-0.0109511846676468;0.002200836315751;-0.0170503556728363
1768421446122135000;0.330135009765625;0.0190582275390625;-1.000457763671875;-0.0683746337890625;-0.0102534368634223;0.0067393952049314;-0.0172900408506393
1768421446132135200;0.34013525390625;0.017547607421875;-1.0000152587890625;-0.06890869140625;-0.0093176020309329;0.0127562750130891;-0.0156138474121689
1768421446142135000;0.350135009765625;0.0179443359375;-1.0016326904296875;-0.0695648193359375;-0.0075655081309378;0.0181134901940822;-0.0190621074289083
1768421446152135200;0.36013525390625;0.01629638671875;-1.0028076171875;-0.0707244873046875;-0.0076355491764843;0.0241777747869491;-0.0207084733992815
1768421446162135000;0.370135009765625;0.0185394287109375;-0.999481201171875;-0.0644989013671875;0.0002045307774096;0.0264321397989988;-0.0241444837301969
1768421446172135200;0.38013525390625;0.017333984375;-0.9951019287109376;-0.06524658203125;-0.0069151641800999;0.0256497040390968;-0.0209399033337831
1768421446182135300;0.39013525390625;0.0117034912109375;-0.9997100830078124;-0.069793701171875;-0.0066826702095568;0.0340019091963768;-0.0142074320465326
1768421446192135400;0.400135498046875;0.0154571533203125;-0.9957275390625;-0.0642547607421875;-0.0009299758239649;0.0353923439979553;-0.017755826935172
1768421446202135300;0.41013525390625;0.0177764892578125;-0.9918060302734376;-0.0594329833984375;0.0001243696169694;0.0374680124223232;-0.0159992072731256
1768421446212134100;0.420134033203125;0.0157012939453125;-0.9924774169921876;-0.061798095703125;-0.0001547296560602;0.0406568832695484;-0.0128452247008681
1768421446222134000;0.430134033203125;0.016510009765625;-0.9940032958984376;-0.0631103515625;0.0024756744969636;0.0418300032615661;-0.0097674094140529
1768421446232134400;0.440134521484375;0.01849365234375;-0.9975433349609376;-0.0606842041015625;0.0023736753500998;0.0438532084226608;-0.0056118131615221
1768421446242134300;0.45013427734375;0.0178680419921875;-0.99945068359375;-0.05816650390625;0.0042943470180034;0.0418816693127155;-0.0064331321045756
1768421446252134400;0.460134521484375;0.0175628662109375;-1.001251220703125;-0.05718994140625;0.0032661007717251;0.0394134521484375;-0.0093495594337582
1768421446262134300;0.47013427734375;0.0162506103515625;-1.00189208984375;-0.0584869384765625;0.0027648939285427;0.0387702994048595;-0.0105072353035211
1768421446272134400;0.480134521484375;0.0170745849609375;-1.0004425048828125;-0.0565185546875;0.000364320439985;0.037503432482481;-0.0131839793175458
1768421446282134300;0.49013427734375;0.0154571533203125;-0.9996185302734376;-0.0586700439453125;-8.92158932401e-05;0.0331310555338859;-0.0110579775646328
1768421446292134400;0.500134521484375;0.015380859375;-0.9988555908203124;-0.058685302734375;-0.0015936355339363;0.0289325825870037;-0.0100102899596095
1768421446302134300;0.51013427734375;0.0146636962890625;-0.9978179931640624;-0.05828857421875;-0.0028027107473462;0.0243964195251464;-0.009222793392837
1768421446312134100;0.520134033203125;0.0154266357421875;-0.996429443359375;-0.055267333984375;-0.0031675638165324;0.0185228176414966;-0.007694671396166
1768421446322134300;0.53013427734375;0.016082763671875;-0.998016357421875;-0.0546417236328125;-0.0027164241764694;0.0157909467816352;-0.0073945331387221
1768421446332134400;0.540134521484375;0.0157928466796875;-0.99658203125;-0.0576019287109375;-0.0047880974598228;0.0095168063417077;-0.0078885490074753
1768421446342133500;0.550133544921875;0.0143280029296875;-0.9982757568359376;-0.0570831298828125;-0.0083106607198715;0.0060770674608647;-0.0067508472129702
1768421446352133600;0.560133544921875;0.013641357421875;-1.0005950927734375;-0.0568084716796875;-0.0092177335172891;0.0032474587205797;-0.0060208747163414
1768421446362133500;0.570133544921875;0.0126495361328125;-1.0019378662109375;-0.0560302734375;-0.009171393699944;-0.001587243983522;-0.0060954429209232
1768421446372133400;0.58013330078125;0.0123443603515625;-1.0024566650390625;-0.055419921875;-0.0104449177160859;-0.0061630872078239;-0.0076382122933864
1768421446382133500;0.590133544921875;0.012298583984375;-1.0032806396484375;-0.0556793212890625;-0.0093407714739441;-0.0091018853709101;-0.0121064642444252
1768421446392133400;0.60013330078125;0.0121612548828125;-1.0019073486328125;-0.0565032958984375;-0.0099945776164531;-0.0125964852049946;-0.0157864205539226
1768421446402133500;0.610133544921875;0.013275146484375;-1.0044403076171875;-0.0586700439453125;-0.0102342618629336;-0.0158157143741846;-0.0168956257402896
1768421446412133400;0.62013330078125;0.011383056640625;-1.00555419921875;-0.0600738525390625;-0.0088169276714324;-0.0152087798342108;-0.014968829229474
1768421446422133500;0.630133544921875;0.010040283203125;-1.0042266845703125;-0.06146240234375;-0.0080382190644741;-0.0157755017280578;-0.0151126403361558
1768421446432133400;0.64013330078125;0.007354736328125;-1.003143310546875;-0.0646514892578125;-0.0065263425931334;-0.0123240444809198;-0.0148031804710626
1768421446442133500;0.650133544921875;0.00726318359375;-1.000457763671875;-0.0634307861328125;-0.0057614827528595;-0.0112710306420922;-0.0136737339198589
1768421446452133400;0.66013330078125;0.0089569091796875;-0.9993743896484376;-0.0608062744140625;-0.0046754456125199;-0.0083567332476377;-0.0103919208049774
1768421446462133500;0.670133544921875;0.009857177734375;-0.99932861328125;-0.0597381591796875;-9.40095851547e-05;-0.0061689461581408;-0.0053934338502585
1768421446472133400;0.68013330078125;0.0096893310546875;-0.998870849609375;-0.0551910400390625;0.0056240637786686;-0.002609631512314;-0.0045103295706212
1768421446482132500;0.690132568359375;0.0101318359375;-0.9985504150390624;-0.0534210205078125;0.0108566423878073;-0.0005384911783039;-0.0018239989876747
1768421446492132400;0.70013232421875;0.0117340087890625;-0.9973907470703124;-0.05462646484375;0.0100686131045222;-0.0009701895760372;-0.0010330402292311
1768421446502132500;0.710132568359375;0.010650634765625;-0.996795654296875;-0.0548553466796875;0.0119466744363307;-0.0032802154310047;0.0014921691035851
1768421446512132400;0.72013232421875;0.01153564453125;-0.9966278076171876;-0.05194091796875;0.0126526784151792;-0.0072115738876163;0.0040514669381082
1768421446522132500;0.730132568359375;0.0117034912109375;-0.994873046875;-0.0520172119140625;0.0121056651696562;-0.0069625684991478;0.0062786685302853
1768421446532132400;0.74013232421875;0.0135345458984375;-0.9967498779296876;-0.053741455078125;0.0115232318639755;-0.0074669709429144;0.0053508230485022
1768421446542132500;0.750132568359375;0.0122528076171875;-0.9990997314453124;-0.055999755859375;0.0093362433835864;-0.0108523815870285;0.0062219430692493
1768421446552132400;0.76013232421875;0.012939453125;-1.000579833984375;-0.0562591552734375;0.0064464476890861;-0.0150774866342544;0.0091591440141201
1768421446562132500;0.770132568359375;0.0120849609375;-1.0028076171875;-0.05731201171875;0.0041662491858005;-0.0213300567120313;0.0110044479370117
1768421446572132400;0.78013232421875;0.013580322265625;-1.004364013671875;-0.0557708740234375;-0.0021315941121429;-0.0295728053897619;0.0083564668893814
1768421446582132200;0.79013232421875;0.0125732421875;-1.0036468505859375;-0.0545196533203125;-0.0051982239820063;-0.033473003655672;0.0102494414895772
1768421446592132400;0.80013232421875;0.00885009765625;-1.0025177001953125;-0.052093505859375;-0.0058238008059561;-0.0337462462484836;0.013881460763514
1768421446602132200;0.81013232421875;0.008514404296875;-1.00372314453125;-0.053192138671875;-0.0059987702406942;-0.032519593834877;0.01104546058923
1768421446612132600;0.820132568359375;0.0153350830078125;-1.00341796875;-0.0565032958984375;-0.0061843926087021;-0.0317432805895805;0.0057351174764335
1768421446622131500;0.83013134765625;0.019256591796875;-1.0039825439453125;-0.060760498046875;-0.0052898367866873;-0.033214945346117;-0.0019811254460364
1768421446632131300;0.84013134765625;0.0149993896484375;-1.00164794921875;-0.0608062744140625;-0.0044946167618036;-0.0301291402429342;0.000532099569682
1768421446642131500;0.85013134765625;0.009613037109375;-0.997467041015625;-0.0625152587890625;-0.0052964948117733;-0.0272896774113178;0.0084805702790617
1768421446652131300;0.86013134765625;0.0058441162109375;-0.9961700439453124;-0.0653076171875;-0.0047737164422869;-0.0235378164798021;0.0115586519241333
1768421446662131500;0.87013134765625;0.00640869140625;-0.9985504150390624;-0.065673828125;-0.0051769185811281;-0.0220919866114854;0.010694189928472
1768421446672131600;0.880131591796875;0.0100555419921875;-1.002410888671875;-0.065521240234375;-0.0044868937693536;-0.0207526832818985;0.007757521700114
1768421446682131500;0.89013134765625;0.0118865966796875;-1.004302978515625;-0.0648956298828125;-0.0032104407437145;-0.0176048260182142;0.0039939428679645
1768421446692131600;0.900131591796875;0.0108489990234375;-1.002105712890625;-0.0621185302734375;-0.0002708434767555;-0.0137879839166998;0.0041076596826314
1768421446702131500;0.91013134765625;0.0118255615234375;-1.0001220703125;-0.0606231689453125;0.0036669063847512;-0.0094065507873892;0.0027939223218709
1768421446712131600;0.920131591796875;0.01361083984375;-0.9995880126953124;-0.06024169921875;0.0053289853967726;-0.0068826735951006;0.0036453348584473
1768421446722131500;0.93013134765625;0.011199951171875;-1.000518798828125;-0.0635833740234375;0.0073841465637087;-0.0067654945887625;0.0063918530941009
1768421446732131600;0.940131591796875;0.0092620849609375;-1.0030517578125;-0.06494140625;0.0082438150420784;-0.0048962216824293;0.0043310988694429
1768421446742131500;0.95013134765625;0.0111083984375;-1.005096435546875;-0.064300537109375;0.007433415390551;-0.002993392990902;-0.0037627802230417
1768421446752131600;0.960131591796875;0.012115478515625;-1.005218505859375;-0.0650787353515625;0.0068997177295386;-0.0007693872321397;-0.012369317933917
1768421446762131500;0.97013134765625;0.011627197265625;-1.0009765625;-0.0653533935546875;0.008231564424932;0.0042240396142005;-0.0130710611119866
1768421446772130600;0.980130615234375;0.0099334716796875;-0.998046875;-0.06292724609375;0.0091455616056919;0.004751079250127;-0.0119525333866477
1768421446782130400;0.99013037109375;0.0117340087890625;-0.998016357421875;-0.0616607666015625;0.0108427936211228;0.007013700902462;-0.0084262415766716
1768421446792130600;1.000130615234375;0.0134735107421875;-1.0005645751953125;-0.058319091796875;0.0100579606369137;0.0052317800000309;-0.0066405921243131
1768421446802130400;1.01013037109375;0.0140533447265625;-1.0045166015625;-0.05889892578125;0.0090928310528397;0.0026301378384232;-0.0071796160191297
1768421446812130600;1.020130615234375;0.0149993896484375;-1.0055999755859375;-0.0598907470703125;0.008741027675569;0.0016213324852287;-0.007987885735929
1768421446822130400;1.03013037109375;0.014404296875;-1.005340576171875;-0.0631103515625;0.0057830540463328;-0.0005313006113283;-0.0090638026595115
1768421446832130600;1.040130615234375;0.0136566162109375;-1.0039825439453125;-0.06317138671875;0.0039819586090743;-0.00266635697335;-0.0095306541770696
1768421446842130400;1.05013037109375;0.0181427001953125;-1.002044677734375;-0.0632476806640625;0.0049556102603673;-0.006434463430196;-0.0080062607303261
1768421446852130300;1.06013037109375;0.018768310546875;-1.003570556640625;-0.062103271484375;0.0050999536179006;-0.008665925823152;-0.0101754060015082
1768421446862130400;1.07013037109375;0.01995849609375;-1.005615234375;-0.058837890625;0.0018626148812472;-0.0097839208319783;-0.0128271151334047
1768421446872130300;1.08013037109375;0.020233154296875;-1.00579833984375;-0.0601959228515625;0.0006426207837648;-0.0122169852256774;-0.0133642749860882
1768421446882130400;1.09013037109375;0.019500732421875;-1.0036163330078125;-0.06060791015625;-0.0039350870065391;-0.0123472139239311;-0.0172777902334928
1768421446892130300;1.10013037109375;0.015167236328125;-0.9988555908203124;-0.0627593994140625;-0.0044346959330141;-0.0113661047071218;-0.0161701813340187
1768421446902129400;1.11012939453125;0.011871337890625;-0.9962158203125;-0.0643157958984375;-0.0053833136335015;-0.0123842312023043;-0.0128923626616597
1768421446912129300;1.12012939453125;0.008331298828125;-0.9922943115234376;-0.06298828125;-0.0047079361975193;-0.0138609539717435;-0.0061359233222901
1768421446922129400;1.13012939453125;0.008941650390625;-0.9913482666015624;-0.0610504150390625;-0.0041497377678751;-0.0122582642361521;0.000753674597945
1768421446932129300;1.14012939453125;0.0108489990234375;-0.99261474609375;-0.0583343505859375;-0.0019622170366346;-0.0121024688705801;0.0035396073944866
1768421446942129400;1.15012939453125;0.010467529296875;-0.995330810546875;-0.057952880859375;-0.0035950010642409;-0.0125307058915495;0.0025920546613633
1768421446952129300;1.16012939453125;0.0133209228515625;-0.9990386962890624;-0.055633544921875;-0.0019688750617206;-0.0126886311918497;0.0022921827621757
1768421446962129400;1.17012939453125;0.016937255859375;-1.00177001953125;-0.0553741455078125;0.0005627259379252;-0.0115440040826797;-0.002125735161826
1768421446972129300;1.18012939453125;0.020355224609375;-1.0017242431640625;-0.055419921875;0.0047894287854433;-0.0090350406244397;-0.0030879352707415
1768421446982129400;1.19012939453125;0.018829345703125;-1.000579833984375;-0.0576171875;0.0088355690240859;-0.0070850737392902;-0.0018317222129553
1768421446992129300;1.20012939453125;0.0181121826171875;-1.0001220703125;-0.0606689453125;0.0143773416057229;-0.0029603699222207;-0.0018042916199192
1768421447002129700;1.210129638671875;0.017547607421875;-0.9968719482421876;-0.0631103515625;0.016595222055912;-0.0014594122767448;-0.0002548645134083
1768421447012129500;1.220129638671875;0.0154571533203125;-0.995941162109375;-0.0657958984375;0.0174074862152338;0.0033593112602829;0.0037483992055058
1768421447022129400;1.23012939453125;0.01544189453125;-0.996856689453125;-0.0659027099609375;0.0150306150317192;0.0071252873167395;0.0075324848294258
1768421447032129500;1.240129638671875;0.0150604248046875;-0.995452880859375;-0.0643310546875;0.0128718568012118;0.0084211817011237;0.0106430565938353
1768421447042129400;1.25012939453125;0.0150909423828125;-0.9947357177734376;-0.0633697509765625;0.0118667790666222;0.0087388968095183;0.0128353713080286
1768421447052128500;1.26012841796875;0.014617919921875;-0.9949951171875;-0.059112548828125;0.0108814099803566;0.0062850601971149;0.0121514713391661
1768421447062128600;1.270128662109375;0.0147705078125;-0.995086669921875;-0.0532989501953125;0.012224175967276;0.0051654670387506;0.0125544080510735
1768421447072128500;1.28012841796875;0.017333984375;-0.9952392578125;-0.0491180419921875;0.0173781905323267;0.0112872757017612;0.0105293402448296
1768421447082128600;1.290128662109375;0.0182342529296875;-0.998687744140625;-0.052459716796875;0.0209790505468845;0.0149344746023416;0.0118036624044179
1768421447092128500;1.30012841796875;0.016815185546875;-1.005401611328125;-0.0604705810546875;0.0208648014813661;0.0172578170895576;0.0153107792139053
1768421447102128400;1.31012841796875;0.018646240234375;-1.0125732421875;-0.0662841796875;0.0181403886526823;0.0198820959776639;0.015034875832498
1768421447112128500;1.32012841796875;0.0213470458984375;-1.0165863037109375;-0.0653228759765625;0.0125866318121552;0.016766196116805;0.0116643793880939
1768421447122128400;1.33012841796875;0.02288818359375;-1.0157318115234375;-0.0608978271484375;0.0069788135588169;0.0114081827923655;0.0107799433171749
1768421447132128500;1.34012841796875;0.020050048828125;-1.009765625;-0.0584259033203125;0.0041992724873125;0.0064685516990721;0.0117336213588714
1768421447142128400;1.35012841796875;0.018646240234375;-1.001251220703125;-0.0550384521484375;0.0028597023338079;-0.0024282701779156;0.0157350208610296
1768421447152128500;1.36012841796875;0.0192718505859375;-0.9957122802734376;-0.0525360107421875;0.0043012714013457;-0.0053383065387606;0.0190131049603223
1768421447162128400;1.37012841796875;0.017364501953125;-0.9932098388671876;-0.0528564453125;0.0069228871725499;-0.0081229079514741;0.0206853039562702
1768421447172128500;1.38012841796875;0.0177459716796875;-0.9951934814453124;-0.0528564453125;0.0099679455161094;-0.0093061504885554;0.0206003505736589
1768421447182127400;1.39012744140625;0.0188140869140625;-0.99853515625;-0.0551910400390625;0.0081913508474826;-0.0069758840836584;0.0188943296670913
1768421447192127500;1.40012744140625;0.021881103515625;-1.0016632080078125;-0.056884765625;0.0097402455285191;-0.0089759184047579;0.0133930370211601
1768421447202127400;1.41012744140625;0.022979736328125;-1.003753662109375;-0.0578765869140625;0.0101831285282969;-0.0104052368551492;0.0063063655979931
1768421447212127500;1.42012744140625;0.02325439453125;-1.003692626953125;-0.0581207275390625;0.0069295451976358;-0.0123426858335733;0.0050139334052801
1768421447222127400;1.43012744140625;0.023345947265625;-1.0001220703125;-0.059722900390625;0.0064059677533805;-0.0137922447174787;0.0067471186630427
1768421447232127500;1.44012744140625;0.022125244140625;-0.9994659423828124;-0.061614990234375;0.0047604003921151;-0.0112305497750639;0.0064914552494883
1768421447242127400;1.45012744140625;0.020416259765625;-0.99981689453125;-0.064300537109375;0.0068901302292943;-0.0088435588404536;0.0034160367213189
1768421447252127500;1.46012744140625;0.0186309814453125;-0.99786376953125;-0.0659942626953125;0.0079940110445022;-0.0084153227508068;0.0034700988326221
1768421447262127400;1.47012744140625;0.0186309814453125;-0.9963226318359376;-0.0677490234375;0.0087053412571549;-0.0089972233399748;0.0041920817457139
1768421447272127500;1.48012744140625;0.0204315185546875;-0.9987945556640624;-0.069793701171875;0.0064152888953685;-0.008780974894762;0.0047185886651277
1768421447282127400;1.49012744140625;0.017822265625;-1.0002593994140625;-0.069549560546875;0.0055897086858749;-0.0090659325942397;0.0051002199761569
1768421447292127500;1.50012744140625;0.01873779296875;-1.00311279296875;-0.0677032470703125;0.0025015072897076;-0.0067766797728836;0.0035694348625838
1768421447302127400;1.51012744140625;0.0198516845703125;-1.0020294189453125;-0.0682525634765625;0.0034019220620393;-0.0064096958376467;0.0006564692012034
1768421447312127200;1.520127197265625;0.01971435546875;-0.9998321533203124;-0.066131591796875;0.0053508230485022;-0.0060131512582302;8.01611458882e-05
1768421447322126300;1.530126220703125;0.019683837890625;-0.9959716796875;-0.066741943359375;0.0079580582678318;-0.0077348849736154;0.0025635587517172
1768421447332126700;1.540126708984375;0.021514892578125;-0.9958953857421876;-0.0682525634765625;0.0092339785769581;-0.0054791877046227;0.004284493625164
1768421447342126600;1.550126708984375;0.023406982421875;-0.99517822265625;-0.0700225830078125;0.0115077849477529;-0.0044213798828423;0.0057087522000074
1768421447352126700;1.560126708984375;0.02252197265625;-0.9966278076171876;-0.072906494140625;0.0088289119303226;-0.003369963960722;0.0074621774256229
1768421447362126600;1.570126708984375;0.0202484130859375;-0.99542236328125;-0.07379150390625;0.0077964039519429;-0.0042717102915048;0.0102465124800801
1768421447372126500;1.58012646484375;0.018890380859375;-0.9981689453125;-0.0753326416015625;0.0051806471310555;-0.0052059474401175;0.0127096697688102
1768421447382126600;1.590126708984375;0.0211334228515625;-0.997833251953125;-0.0748748779296875;0.0028884646017104;-0.007005977910012;0.0148425959050655
1768421447392126500;1.60012646484375;0.0198974609375;-0.9963531494140624;-0.072906494140625;0.0027507790364325;-0.0116513296961784;0.0164042729884386
1768421447402126600;1.610126708984375;0.0164337158203125;-0.9938201904296876;-0.070526123046875;0.0038376150187104;-0.0110776843503117;0.0234731007367372
1768421447412126500;1.62012646484375;0.0182952880859375;-0.9962615966796876;-0.0702667236328125;0.0076185050420463;-0.0126446885988116;0.0239442139863967
1768421447422126600;1.630126708984375;0.0232391357421875;-0.99871826171875;-0.07098388671875;0.0092134717851877;-0.012198076583445;0.0217745378613472
1768421447432126500;1.64012646484375;0.025726318359375;-0.9966278076171876;-0.0725250244140625;0.0111197624355554;-0.0131176663562655;0.0196706410497427
1768421447442126600;1.650126708984375;0.022857666015625;-0.9936065673828124;-0.072296142578125;0.0112910037860274;-0.0089788474142551;0.0246885679662227
1768421447452125400;1.66012548828125;0.0170745849609375;-0.992706298828125;-0.0738067626953125;0.0123240444809198;-0.0035739622544497;0.0306460596621036
1768421447462125600;1.67012548828125;0.018280029296875;-0.9965057373046876;-0.0766448974609375;0.0138886515051126;-0.0012932310346513;0.0332759320735931
1768421447472125400;1.68012548828125;0.0183563232421875;-1.0022735595703125;-0.0798797607421875;0.0159454103559255;0.0031278827227652;0.0317273028194904
1768421447482125600;1.69012548828125;0.022369384765625;-1.00689697265625;-0.080810546875;0.0134383104741573;0.0046892939135432;0.0291016921401023
1768421447492125400;1.70012548828125;0.0224456787109375;-1.006683349609375;-0.0796966552734375;0.0086635295301675;0.0023062974214553;0.0300308689475059
1768421447502125600;1.71012548828125;0.0177459716796875;-1.0011138916015625;-0.0752105712890625;0.0034623756073415;-0.0008000136003829;0.0320082679390907
1768421447512125400;1.72012548828125;0.0187835693359375;-0.9972991943359376;-0.0718536376953125;0.0011792477453127;-0.0038211036007851;0.0364932976663112
1768421447522125800;1.730125732421875;0.01605224609375;-0.995880126953125;-0.0680999755859375;-0.0005970807396806;-0.0092696649953722;0.0422047115862369
1768421447532125700;1.740125732421875;0.012359619140625;-0.995697021484375;-0.063385009765625;0.0059497682377696;-0.0123655898496508;0.0461163632571697
1768421447542125800;1.750125732421875;0.015106201171875;-0.9973602294921876;-0.0604705810546875;0.0121930167078971;-0.0126558737829327;0.0396374240517616
1768421447552125700;1.760125732421875;0.0210113525390625;-0.998931884765625;-0.05816650390625;0.0210789199918508;-0.0076398099772632;0.0286862403154373
1768421447562125600;1.77012548828125;0.0284881591796875;-0.9994964599609376;-0.062591552734375;0.0240390226244926;0.0007539408979937;0.0179544985294342
1768421447572125700;1.780125732421875;0.029449462890625;-1.0064544677734375;-0.0689697265625;0.0273163095116615;0.0036679718177765;0.0103200152516365
1768421447582124800;1.790124755859375;0.0283050537109375;-1.0109405517578125;-0.07366943359375;0.0226158294826746;0.0048288437537848;0.0099716736003756
1768421447592124700;1.800124755859375;0.023284912109375;-1.0116729736328125;-0.0777435302734375;0.0188570450991392;0.004063983913511;0.006564958486706
1768421447602124800;1.810124755859375;0.0238037109375;-1.009307861328125;-0.0757293701171875;0.0115320198237895;-0.0041657164692878;0.0067465859465301
1768421447612124700;1.820124755859375;0.0208740234375;-1.004913330078125;-0.0718994140625;0.0051947617903351;-0.012556005269289;0.011633220128715
1768421447622124500;1.83012451171875;0.020660400390625;-0.9971923828125;-0.065887451171875;0.0053484262898564;-0.0165621992200613;0.0171915031969547
1768421447632124700;1.840124755859375;0.0210723876953125;-0.9931640625;-0.0615692138671875;0.0066949208267033;-0.0193728990852832;0.0199036672711372
1768421447642124500;1.85012451171875;0.024383544921875;-0.9956817626953124;-0.0605010986328125;0.0096941730007529;-0.0187766179442405;0.0225015804171562
1768421447652124700;1.860124755859375;0.0264129638671875;-1.003021240234375;-0.0621795654296875;0.0117522636428475;-0.016490826383233;0.017992315813899
1768421447662124500;1.87012451171875;0.029327392578125;-1.0081024169921875;-0.0683746337890625;0.0096081523224711;-0.0139797311276197;0.0135943721979856
1768421447672124700;1.880124755859375;0.02813720703125;-1.0092010498046875;-0.0727691650390625;0.0108502507209777;-0.0106395948678255;0.0068736188113689
1768421447682124500;1.89012451171875;0.0263214111328125;-1.0044097900390625;-0.0748291015625;0.0077053238637745;-0.0132548185065388;0.0037665087729692
1768421447692124700;1.900124755859375;0.024871826171875;-0.998565673828125;-0.07257080078125;0.0047920919023454;-0.0175110828131437;0.0078278295695781
1768421447702124500;1.91012451171875;0.021270751953125;-0.9911651611328124;-0.06982421875;0.0050637344829738;-0.0182735454291105;0.0162303689867258
1768421447712123600;1.92012353515625;0.0234527587890625;-0.9888916015625;-0.0687103271484375;0.0051982239820063;-0.01887116022408;0.0226645655930042
1768421447722123500;1.93012353515625;0.02520751953125;-0.9888153076171876;-0.067535400390625;0.0084664551541209;-0.0191918034106493;0.0251764599233865
1768421447732123600;1.94012353515625;0.027008056640625;-0.99261474609375;-0.068328857421875;0.0121099259704351;-0.0203923564404249;0.0285339057445526
1768421447742123500;1.95012353515625;0.0303192138671875;-0.99603271484375;-0.0693359375;0.015409049578011;-0.0210397709161043;0.0241623278707265
1768421447752123600;1.96012353515625;0.031341552734375;-0.99652099609375;-0.0694122314453125;0.0155683066695928;-0.0250433012843132;0.0211662724614143
1768421447762123500;1.97012353515625;0.0298614501953125;-0.9977569580078124;-0.07122802734375;0.0137661462649703;-0.025937857106328;0.0181499756872653
1768421447772123600;1.98012353515625;0.0264434814453125;-0.9945068359375;-0.070068359375;0.0155214350670576;-0.0270039197057485;0.0211446993052959
1768421447782123500;1.99012353515625;0.0268096923828125;-0.9928741455078124;-0.070526123046875;0.0202999450266361;-0.0264659617096185;0.027544543147087
1768421447792123600;2.00012353515625;0.0281829833984375;-0.9952545166015624;-0.073638916015625;0.0214986335486173;-0.0224805418401956;0.0327169336378574
1768421447802123500;2.01012353515625;0.0305328369140625;-1.0010833740234375;-0.0797882080078125;0.0222280733287334;-0.0203313697129488;0.0358597300946712
1768421447812123600;2.02012353515625;0.033233642578125;-1.00640869140625;-0.0822906494140625;0.0197806283831596;-0.0171683337539434;0.0365233905613422
1768421447822123500;2.03012353515625;0.034271240234375;-1.01300048828125;-0.084075927734375;0.0151030523702502;-0.0130585441365838;0.0286169964820146
1768421447832123400;2.040123291015625;0.0330047607421875;-1.014556884765625;-0.085693359375;0.0128508172929286;-0.0066035743802785;0.0221050363034009
1768421447842122500;2.05012255859375;0.03265380859375;-1.0073699951171875;-0.0855255126953125;0.0088315745815634;-0.00504429358989;0.0181928519159555
1768421447852122600;2.06012255859375;0.029083251953125;-0.9965667724609376;-0.082977294921875;0.0056602824479341;-0.003802461316809;0.0186802111566066
1768421447862122500;2.07012255859375;0.0269622802734375;-0.9873046875;-0.0795440673828125;0.0075519257225096;-0.0025808694772422;0.0238619223237037
1768421447872122600;2.08012255859375;0.025177001953125;-0.9816741943359376;-0.0746002197265625;0.0120404176414012;0.0017092167399823;0.0308234263211488
1768421447882122500;2.09012255859375;0.021514892578125;-0.9808349609375;-0.073883056640625;0.0167113356292247;0.0076187714003026;0.0321209169924259
1768421447892122600;2.10012255859375;0.0240325927734375;-0.9873809814453124;-0.07537841796875;0.0200930181890726;0.0097245322540402;0.0330556891858577
1768421447902122500;2.11012255859375;0.0238494873046875;-0.991973876953125;-0.07501220703125;0.0201127249747514;0.0148127684369683;0.0323110669851303
1768421447912122400;2.120122314453125;0.028717041015625;-0.99786376953125;-0.0758514404296875;0.0208434965461492;0.0196264311671257;0.0306292809545993
1768421447922122800;2.130122802734375;0.0327911376953125;-1.0043792724609375;-0.0778961181640625;0.0182490441948175;0.0216110199689865;0.0291118118911981
1768421447932122600;2.14012255859375;0.0319671630859375;-1.0091400146484375;-0.0749359130859375;0.017348363995552;0.0186495836824178;0.0260595642030239
1768421447942122800;2.150122802734375;0.033935546875;-1.0096588134765625;-0.074859619140625;0.014078002423048;0.0182527732104063;0.024494158104062
1768421447952122600;2.16012255859375;0.032684326171875;-1.0082244873046875;-0.0750579833984375;0.0129789151251316;0.0155970687046647;0.0245210547000169
1768421447962122800;2.170122802734375;0.028594970703125;-1.0023345947265625;-0.0723114013671875;0.0090326434001326;0.0150726931169629;0.0244422256946563
1768421447972121600;2.18012158203125;0.0276031494140625;-0.99591064453125;-0.0699920654296875;0.0080320937559008;0.0089500853791832;0.0247460920363664
1768421447982121700;2.190121826171875;0.023712158203125;-0.988922119140625;-0.0635223388671875;0.0070848073810338;-0.0007139935041777;0.0290457662194967
1768421447992121600;2.20012158203125;0.0208282470703125;-0.9795379638671876;-0.0565185546875;0.006712497677654;-0.0113906059414148;0.0376387201249599
1768421448002121700;2.210121826171875;0.0219573974609375;-0.9708709716796876;-0.0492401123046875;0.0102859269827604;-0.019647205248475;0.0398821681737899
1768421448012121600;2.22012158203125;0.0207366943359375;-0.9649810791015624;-0.0408172607421875;0.0207100715488195;-0.0219119563698768;0.0416433177888393
1768421448022121700;2.230121826171875;0.017486572265625;-0.9594268798828124;-0.0371551513671875;0.0411245338618755;-0.0175947062671184;0.0397388897836208
1768421448032121600;2.24012158203125;0.0161285400390625;-0.9537200927734376;-0.039520263671875;0.0632170513272285;-0.0032929987646639;0.0373921133577823
1768421448042121700;2.250121826171875;0.014312744140625;-0.95208740234375;-0.0468597412109375;0.0857362076640129;0.0145970517769455;0.0328711308538913
1768421448052121600;2.26012158203125;0.0107574462890625;-0.961212158203125;-0.0579071044921875;0.0977614447474479;0.0393250361084938;0.0295118186622858
1768421448062121700;2.270121826171875;0.0040283203125;-0.9830474853515624;-0.069183349609375;0.0985289737582206;0.0615946538746356;0.029477996751666
1768421448072121600;2.28012158203125;1.52587890625e-05;-1.0091705322265625;-0.076141357421875;0.0936798900365829;0.0785968080163002;0.0260550361126661
1768421448082121700;2.290121826171875;0.0016021728515625;-1.0300140380859375;-0.072235107421875;0.089243859052658;0.0911064743995666;0.0116252303123474
1768421448092121600;2.30012158203125;-0.00030517578125;-1.0441436767578125;-0.061767578125;0.0834070071578025;0.0984008684754371;-0.0112297516316175
1768421448102120700;2.31012060546875;-0.00958251953125;-1.050445556640625;-0.0464019775390625;0.0752974152565002;0.1020153164863586;-0.0352565236389637
1768421448112120600;2.32012060546875;-0.0157623291015625;-1.050323486328125;-0.0303955078125;0.0689769387245178;0.1196638196706771;-0.05411197245121
1768421448122120700;2.33012060546875;-0.0194091796875;-1.0494232177734375;-0.020721435546875;0.0696989223361015;0.1617657244205474;-0.063910536468029
1768421448132120600;2.34012060546875;-0.011199951171875;-1.0540924072265625;-0.028900146484375;0.0710869580507278;0.1903273314237594;-0.0740460008382797
1768421448142120700;2.35012060546875;0.001922607421875;-1.0640869140625;-0.0461883544921875;0.0577618330717086;0.1984025686979293;-0.0971891358494758
1768421448152120600;2.36012060546875;-0.0033721923828125;-1.0645599365234375;-0.050567626953125;0.0425200313329696;0.2084836959838867;-0.1310365796089172
1768421448162120700;2.37012060546875;-0.0228118896484375;-1.04364013671875;-0.0466461181640625;0.0366080775856971;0.2195675075054168;-0.1576796472072601
1768421448172120600;2.38012060546875;-0.0375518798828125;-1.014129638671875;-0.0373687744140625;0.0360975489020347;0.2258232682943344;-0.1632054299116134
1768421448182120400;2.390120361328125;-0.0473175048828125;-0.981597900390625;-0.0233917236328125;0.0319225117564201;0.2200218439102172;-0.143940657377243
1768421448192120600;2.40012060546875;-0.04608154296875;-0.95928955078125;-0.003204345703125;0.0329337157309055;0.2121498137712478;-0.1221283078193664
1768421448202120400;2.410120361328125;-0.038726806640625;-0.94757080078125;0.015716552734375;0.044005274772644;0.2072088420391082;-0.1050119027495384
1768421448212120600;2.42012060546875;-0.02423095703125;-0.95050048828125;0.0311126708984375;0.0584164373576641;0.2055518329143524;-0.0924332588911056
1768421448222119700;2.43011962890625;-0.010223388671875;-0.962432861328125;0.031951904296875;0.0666259005665779;0.2020455151796341;-0.0910867676138877
1768421448232119600;2.44011962890625;0.006500244140625;-0.9766693115234376;0.02545166015625;0.0697460547089576;0.1970765888690948;-0.1040321290493011
1768421448242119400;2.450119384765625;0.0177459716796875;-0.9870147705078124;0.0141754150390625;0.0675079375505447;0.1934738606214523;-0.1271038949489593
1768421448252119600;2.46011962890625;0.0156097412109375;-0.9808502197265624;-0.0005340576171875;0.058777030557394;0.2037704437971115;-0.1480547040700912
1768421448262119400;2.470119384765625;0.0050506591796875;-0.9671173095703124;-0.018096923828125;0.0455373898148536;0.2368937730789184;-0.1792219579219818
1768421448272119600;2.48011962890625;-0.003692626953125;-0.9499664306640624;-0.0439453125;0.0250073485076427;0.2848900556564331;-0.2196330279111862
1768421448282119400;2.490119384765625;-0.01397705078125;-0.931884765625;-0.074371337890625;-0.0021318604703992;0.3387386500835418;-0.2585724294185638
1768421448292119600;2.50011962890625;-0.025787353515625;-0.920623779296875;-0.101959228515625;-0.0320519432425498;0.3826909065246582;-0.2863300144672394
1768421448302119400;2.510119384765625;-0.0463409423828125;-0.9163665771484376;-0.1186370849609375;-0.0643398389220237;0.3994312882423401;-0.2939091324806213
1768421448312119600;2.52011962890625;-0.0807647705078125;-0.925079345703125;-0.1186065673828125;-0.0908910259604454;0.414231538772583;-0.267192006111145
1768421448322119700;2.53011962890625;-0.1114959716796875;-0.948516845703125;-0.1052398681640625;-0.1105323731899261;0.4245166480541229;-0.2227374762296676
1768421448332119800;2.540119873046875;-0.1239013671875;-0.9883880615234376;-0.0869293212890625;-0.1179828271269798;0.4329636693000793;-0.1671019047498703
1768421448342119700;2.55011962890625;-0.1171875;-1.029327392578125;-0.0628814697265625;-0.1148754507303237;0.4270802140235901;-0.1091515198349952
1768421448352118800;2.560118896484375;-0.095550537109375;-1.060760498046875;-0.047088623046875;-0.1002333909273147;0.4165612757205963;-0.0634926930069923
1768421448362118700;2.57011865234375;-0.063568115234375;-1.07440185546875;-0.0389556884765625;-0.0740824863314628;0.4040382802486419;-0.0470543280243873
1768421448372118800;2.580118896484375;-0.0386810302734375;-1.0697784423828125;-0.0363922119140625;-0.0431661121547222;0.3965010046958923;-0.066347062587738
1768421448382118700;2.59011865234375;-0.0491485595703125;-1.056915283203125;-0.040679931640625;-0.0106750149279832;0.3857849836349487;-0.0925331264734268
1768421448392118800;2.600118896484375;-0.087615966796875;-1.047760009765625;-0.048553466796875;0.0190139040350914;0.3703905642032623;-0.1060569286346435
1768421448402118700;2.61011865234375;-0.1256103515625;-1.04437255859375;-0.0618438720703125;0.0465315505862236;0.3618892431259155;-0.1158855929970741
1768421448412118800;2.620118896484375;-0.1378021240234375;-1.051544189453125;-0.07562255859375;0.0786069259047508;0.3556052446365356;-0.1170312836766243
1768421448422118700;2.63011865234375;-0.135498046875;-1.0679931640625;-0.0973663330078125;0.1017657741904258;0.3113658726215362;-0.1149897053837776
1768421448432118500;2.640118408203125;-0.1441802978515625;-1.0809783935546875;-0.1070098876953125;0.1230779886245727;0.251981109380722;-0.1090394034981727
1768421448442118700;2.65011865234375;-0.1518707275390625;-1.0912322998046875;-0.099365234375;0.1418519467115402;0.1845003366470337;-0.1125622317194938
1768421448452118500;2.660118408203125;-0.1495208740234375;-1.091156005859375;-0.0850830078125;0.1519128382205963;0.1153806522488594;-0.1246817409992218
1768421448462118700;2.67011865234375;-0.1365966796875;-1.0792236328125;-0.06597900390625;0.15243561565876;0.0333190746605396;-0.1387983560562133
1768421448472118500;2.680118408203125;-0.122467041015625;-1.0557708740234375;-0.04949951171875;0.1552564352750778;-0.0432958081364631;-0.1434064358472824
1768421448482117600;2.69011767578125;-0.1133575439453125;-1.0205230712890625;-0.0399322509765625;0.156116634607315;-0.1127409264445304;-0.1326858699321746
1768421448492117800;2.70011767578125;-0.10516357421875;-0.9844512939453124;-0.042449951171875;0.1555832028388977;-0.1773691922426223;-0.1142967492341995
1768421448502117600;2.71011767578125;-0.0988922119140625;-0.9453887939453124;-0.0484161376953125;0.1467665433883667;-0.224056527018547;-0.081529214978218
1768421448512117500;2.720117431640625;-0.087799072265625;-0.9127197265625;-0.058868408203125;0.1419755071401596;-0.2548466622829437;-0.0458812043070793
1768421448522117600;2.73011767578125;-0.07806396484375;-0.8873138427734375;-0.0782623291015625;0.1301281750202179;-0.284523606300354;-0.0163235794752836
1768421448532117500;2.740117431640625;-0.07635498046875;-0.8702545166015625;-0.1002044677734375;0.1199482455849647;-0.3166274726390838;0.0126550747081637
1768421448542117600;2.75011767578125;-0.0866546630859375;-0.8670196533203125;-0.1154632568359375;0.1008981168270111;-0.334882915019989;0.0425416007637977
1768421448552117500;2.760117431640625;-0.1019439697265625;-0.8704986572265625;-0.1230621337890625;0.0916039496660232;-0.3420273661613464;0.0688099563121795
1768421448562117600;2.77011767578125;-0.102081298828125;-0.878082275390625;-0.131256103515625;0.0811406597495079;-0.3515931963920593;0.0841782614588737
1768421448572117800;2.78011767578125;-0.099884033203125;-0.8898162841796875;-0.1397552490234375;0.0624703019857406;-0.3650330901145935;0.0916476249694824
1768421448582118000;2.790117919921875;-0.1009368896484375;-0.907379150390625;-0.1420440673828125;0.0398645922541618;-0.3775262534618377;0.1013018563389778
1768421448592117800;2.80011767578125;-0.104034423828125;-0.92657470703125;-0.1372833251953125;0.0136471027508378;-0.3858608901500702;0.1209956631064415
1768421448602116600;2.81011669921875;-0.1106414794921875;-0.948394775390625;-0.125335693359375;-0.0102568985894322;-0.3917981386184692;0.1383512169122696
1768421448612116500;2.820116455078125;-0.1036224365234375;-0.9541015625;-0.1210479736328125;-0.0302218180149793;-0.3920961320400238;0.1412809640169143
1768421448622116900;2.830116943359375;-0.10870361328125;-0.9555511474609376;-0.1181640625;-0.044006872922182;-0.3899949193000793;0.1378883570432663
1768421448632116700;2.84011669921875;-0.12176513671875;-0.9510650634765624;-0.1193389892578125;-0.0527146086096763;-0.3923030793666839;0.1355777978897094
1768421448642116900;2.850116943359375;-0.1356201171875;-0.944183349609375;-0.119903564453125;-0.0588643811643123;-0.4047512114048004;0.1369248330593109
1768421448652116700;2.86011669921875;-0.141937255859375;-0.9410552978515624;-0.1179046630859375;-0.0676208585500717;-0.4129894375801086;0.1434924453496933
1768421448662116900;2.870116943359375;-0.138214111328125;-0.9423370361328124;-0.1139373779296875;-0.0836855769157409;-0.4336483776569366;0.1372199058532714
1768421448672116700;2.88011669921875;-0.1297607421875;-0.9495697021484376;-0.1085052490234375;-0.1142184510827064;-0.4623657763004303;0.1221514716744422
1768421448682116900;2.890116943359375;-0.130889892578125;-0.96417236328125;-0.0950469970703125;-0.1507050842046737;-0.5036098957061768;0.0989396274089813
1768421448692116700;2.90011669921875;-0.1427764892578125;-0.97723388671875;-0.0785369873046875;-0.1908005774021148;-0.559041440486908;0.079265259206295
1768421448702116600;2.91011669921875;-0.165618896484375;-0.9890594482421876;-0.0583038330078125;-0.2261420488357544;-0.6136447787284851;0.0747280344367027
1768421448712116700;2.92011669921875;-0.1867218017578125;-0.9918670654296876;-0.0395050048828125;-0.2536945939064026;-0.6689261198043823;0.0711721777915954
1768421448722115800;2.93011572265625;-0.2048492431640625;-0.9854583740234376;-0.0247039794921875;-0.2774665057659149;-0.7249366641044617;0.0627368837594986
1768421448732115700;2.94011572265625;-0.2213287353515625;-0.9745330810546876;-0.0044403076171875;-0.3001984357833862;-0.7663765549659729;0.057976484298706
1768421448742115800;2.95011572265625;-0.2318878173828125;-0.96429443359375;0.013458251953125;-0.3205575048923492;-0.7840327620506287;0.0556640625
1768421448752115700;2.96011572265625;-0.2366485595703125;-0.953582763671875;0.0185546875;-0.336637943983078;-0.7966710329055786;0.0578214861452579
1768421448762115800;2.97011572265625;-0.239532470703125;-0.9451446533203124;0.0192718505859375;-0.3493044674396515;-0.8172378540039062;0.0659550502896308
1768421448772115700;2.98011572265625;-0.2450103759765625;-0.93994140625;0.01800537109375;-0.3526355624198913;-0.833844780921936;0.0696619004011154
1768421448782115600;2.990115478515625;-0.249908447265625;-0.94464111328125;0.0204315185546875;-0.3521814942359924;-0.8634120225906372;0.0621523186564445
1768421448792115700;3.00011572265625;-0.2528839111328125;-0.9560699462890624;0.02740478515625;-0.3658717274665832;-0.888842761516571;0.0384765528142452
1768421448802115600;3.010115478515625;-0.24981689453125;-0.971466064453125;0.033111572265625;-0.3900684118270874;-0.9207996726036072;-0.0054807853884994
1768421448812115700;3.02011572265625;-0.2429351806640625;-0.9920196533203124;0.0318145751953125;-0.4102021753787994;-0.9604466557502748;-0.059712067246437
1768421448822115600;3.030115478515625;-0.236663818359375;-1.0102386474609375;0.0238189697265625;-0.3932815194129944;-0.9313535094261168;-0.083036832511425
1768421448832115700;3.04011572265625;-0.1872711181640625;-1.0218658447265625;-0.021026611328125;-0.3124553859233856;-0.7874898314476013;-0.0164625961333513
1768421448842115600;3.050115478515625;-0.075469970703125;-1.0542449951171875;-0.10699462890625;-0.1647295653820037;-0.6005862355232239;0.2210258543491363
1768421448852114700;3.06011474609375;0.0749359130859375;-1.2140960693359375;-0.1829376220703125;0.0017651431262493;-0.6079855561256409;0.4015493094921112
1768421448862114600;3.070114501953125;0.177154541015625;-1.537628173828125;-0.2123565673828125;0.0112161692231893;-0.7093697190284729;0.2117372900247573
1768421448872114700;3.08011474609375;0.068817138671875;-1.75140380859375;-0.1690521240234375;-0.0330407731235027;-0.5110744833946228;-0.0697367340326309
1768421448882114600;3.090114501953125;-0.0533447265625;-1.6820068359375;-0.0826568603515625;0.072078987956047;-0.253623217344284;-0.1857317835092544
1768421448892114700;3.10011474609375;-0.1058197021484375;-1.421722412109375;-0.092926025390625;0.1761305481195449;-0.1579507440328598;-0.2470590621232986
1768421448902114600;3.110114501953125;-0.121246337890625;-1.1397247314453125;-0.2019195556640625;0.141013041138649;-0.191440001130104;-0.3161249458789825
1768421448912114700;3.12011474609375;-0.12945556640625;-0.935394287109375;-0.2063751220703125;0.064896173775196;-0.2926680743694305;-0.2701151072978973
1768421448922114600;3.130114501953125;-0.1066436767578125;-0.8280792236328125;-0.16241455078125;0.0078608524054288;-0.4209616184234619;-0.0549953430891037
1768421448932114700;3.14011474609375;-0.08489990234375;-0.845458984375;-0.1468658447265625;-0.0112545182928442;-0.4799250662326813;0.2727351188659668
1768421448942114600;3.150114501953125;-0.0087432861328125;-0.933746337890625;-0.135223388671875;-0.0022959110792726;-0.4699589908123016;0.5907520055770874
1768421448952114700;3.16011474609375;0.1426849365234375;-1.067413330078125;-0.152496337890625;0.0211913045495748;-0.4271582663059234;0.7261452078819275
1768421448962114600;3.170114501953125;0.289764404296875;-1.219879150390625;-0.1817169189453125;0.0736073777079582;-0.424846351146698;0.6079948544502258
1768421448972113700;3.18011376953125;0.3375244140625;-1.3753814697265625;-0.1983489990234375;0.0961542278528213;-0.4276938140392303;0.3737115263938904
1768421448982113500;3.190113525390625;0.327484130859375;-1.436614990234375;-0.1676025390625;0.0751924887299537;-0.4219773411750793;0.2061326652765274
1768421448992113700;3.20011376953125;0.3561248779296875;-1.322509765625;-0.097869873046875;0.0623920038342475;-0.4698008000850677;0.1083243414759635
1768421449002113500;3.210113525390625;0.368408203125;-1.143310546875;-0.0381927490234375;0.0254608858376741;-0.5453823804855347;0.0257232058793306
1768421449012113700;3.22011376953125;0.3016815185546875;-1.01214599609375;-0.0081634521484375;-0.0479470193386077;-0.616500198841095;-0.0441075414419174
1768421449022113800;3.23011376953125;0.22515869140625;-0.90478515625;0.03125;-0.0976962000131607;-0.6505439281463623;-0.0945986732840538
1768421449032113700;3.24011376953125;0.1525421142578125;-0.83367919921875;0.0599212646484375;-0.1198984384536743;-0.6260865330696106;-0.0846152827143669
1768421449042113800;3.25011376953125;0.108489990234375;-0.7977447509765625;0.0494537353515625;-0.1165987849235534;-0.5661294460296631;-0.0200900882482528
1768421449052113700;3.26011376953125;0.0870819091796875;-0.79339599609375;-0.002227783203125;-0.1148557439446449;-0.4942408800125122;0.0744928792119026
1768421449062113800;3.27011376953125;0.086761474609375;-0.8317108154296875;-0.0828094482421875;-0.1320070326328277;-0.4400340914726257;0.1473503112792968
1768421449072113700;3.28011376953125;0.11065673828125;-0.8866424560546875;-0.141693115234375;-0.1438066959381103;-0.4038225710391998;0.1530244350433349
1768421449082113800;3.29011376953125;0.134124755859375;-0.9364776611328124;-0.1626434326171875;-0.1465308517217636;-0.3531985282897949;0.0968980491161346
1768421449092113700;3.30011376953125;0.1334381103515625;-0.9790496826171876;-0.1656494140625;-0.1519471853971481;-0.274433434009552;0.0168287809938192
1768421449102112800;3.31011279296875;0.12225341796875;-1.0006866455078125;-0.14764404296875;-0.1519996523857116;-0.179058164358139;-0.0591171160340309
1768421449112112600;3.320112548828125;0.1095733642578125;-1.006744384765625;-0.1166229248046875;-0.1300711780786514;-0.0862523317337036;-0.1096961349248886
1768421449122112800;3.33011279296875;0.08538818359375;-0.9911346435546876;-0.0830230712890625;-0.1067972853779792;-0.0171888396143913;-0.1313108801841735
1768421449132112600;3.340112548828125;0.0655059814453125;-0.9659881591796876;-0.05120849609375;-0.0971611738204956;0.0274113845080137;-0.1344305127859115
1768421449142112800;3.35011279296875;0.059234619140625;-0.92694091796875;-0.019378662109375;-0.0942556634545326;0.0465259552001953;-0.1258982717990875
1768421449152112600;3.360112548828125;0.0682373046875;-0.8843994140625;0.0091094970703125;-0.1029335707426071;0.0441373661160469;-0.1071791872382164
1768421449162112800;3.37011279296875;0.0767669677734375;-0.850616455078125;0.0334930419921875;-0.1131438687443733;0.0230430010706186;-0.0738478600978851
1768421449172112600;3.380112548828125;0.078582763671875;-0.8249969482421875;0.0576324462890625;-0.1234542950987815;-0.0068155620247125;-0.0269314832985401
1768421449182112800;3.39011279296875;0.0854034423828125;-0.81591796875;0.07550048828125;-0.1243302077054977;-0.0397740453481674;0.0288798511028289
1768421449192112600;3.400112548828125;0.09619140625;-0.8235321044921875;0.0872650146484375;-0.1188049465417862;-0.0787081271409988;0.0765680149197578
1768421449202112800;3.41011279296875;0.1024322509765625;-0.8413848876953125;0.098968505859375;-0.1120953783392906;-0.1151183322072029;0.1005391255021095
1768421449212112600;3.420112548828125;0.100433349609375;-0.8631439208984375;0.102752685546875;-0.1124016419053077;-0.142370194196701;0.1041298657655716
1768421449222111700;3.43011181640625;0.08929443359375;-0.8809814453125;0.106475830078125;-0.1153132766485214;-0.1523778140544891;0.1061131209135055
1768421449232111600;3.440111572265625;0.07684326171875;-0.8970794677734375;0.10211181640625;-0.1285968571901321;-0.1485074460506439;0.1217951476573944
1768421449242111700;3.45011181640625;0.069732666015625;-0.909759521484375;0.085968017578125;-0.1427752673625946;-0.1159835904836654;0.1513818055391311
1768421449252111600;3.460111572265625;0.0649566650390625;-0.9196319580078124;0.056671142578125;-0.1488400846719741;-0.0613565668463707;0.1904575675725937
1768421449262111700;3.47011181640625;0.06591796875;-0.9298553466796876;0.0186309814453125;-0.140892669558525;-0.0115261608734726;0.2240083366632461
1768421449272111600;3.480111572265625;0.058807373046875;-0.944427490234375;-0.0260009765625;-0.1316749453544616;0.0412342548370361;0.2487882524728775
1768421449282111700;3.49011181640625;0.0330657958984375;-0.96002197265625;-0.06378173828125;-0.117779366672039;0.0985169857740402;0.2620640993118286
1768421449292111600;3.500111572265625;-0.0036468505859375;-0.97320556640625;-0.075347900390625;-0.1050811484456062;0.1640022546052932;0.2755519449710846
1768421449302111700;3.51011181640625;-0.03643798828125;-0.9776153564453124;-0.0647430419921875;-0.0859830826520919;0.2110168933868408;0.280487596988678
1768421449312111600;3.520111572265625;-0.0597381591796875;-0.9759368896484376;-0.036529541015625;-0.0759874433279037;0.2152100503444671;0.2743772268295288
1768421449322111500;3.530111572265625;-0.0691070556640625;-0.96630859375;-0.0024566650390625;-0.0786695107817649;0.1831764727830886;0.2594579458236694
1768421449332111000;3.540111083984375;-0.0571136474609375;-0.9582672119140624;0.0512237548828125;-0.0673476159572601;0.109509453177452;0.223611518740654
1768421449342110200;3.550110107421875;-0.0306549072265625;-0.9564208984375;0.1092987060546875;-0.0451152808964252;0.0417772755026817;0.1620879769325256
1768421449352110000;3.560110107421875;-0.01983642578125;-0.947418212890625;0.1567230224609375;-0.0037510623224079;-0.0007779093575663;0.1026949509978294
1768421449362110200;3.570110107421875;-0.02960205078125;-0.9429473876953124;0.179107666015625;0.0471102558076381;-0.0174943059682846;0.0698283463716507
1768421449372110000;3.580110107421875;-0.0540313720703125;-0.9339447021484376;0.1681060791015625;0.1040233373641967;-0.0146708218380808;0.0676751807332038
1768421449382110200;3.590110107421875;-0.07611083984375;-0.9267425537109376;0.1318206787109375;0.1564290225505828;-2.6631610126e-06;0.0708960071206092
1768421449392110000;3.600110107421875;-0.083953857421875;-0.912628173828125;0.088287353515625;0.2035762965679168;0.0104353306815028;0.0742065832018852
1768421449402110500;3.6101103515625;-0.091400146484375;-0.89874267578125;0.0497283935546875;0.2425412684679031;0.0298918522894382;0.0830003470182418
1768421449412110300;3.6201103515625;-0.090423583984375;-0.8852691650390625;0.024169921875;0.2764009535312652;0.0587179064750671;0.0952921658754348
1768421449422110200;3.630110107421875;-0.0848846435546875;-0.8732147216796875;0.004425048828125;0.3033167421817779;0.0904374867677688;0.1004517748951911
1768421449432110300;3.6401103515625;-0.07537841796875;-0.8729705810546875;-0.0086669921875;0.3243487775325775;0.1171154379844665;0.0971047133207321
1768421449442110200;3.650110107421875;-0.0618743896484375;-0.878875732421875;-0.0115203857421875;0.3397535681724548;0.1407872140407562;0.0900510624051094
1768421449452110300;3.6601103515625;-0.0531005859375;-0.9029083251953124;-0.013397216796875;0.3351452350616455;0.1692143231630325;0.0837409719824791
1768421449462110200;3.670110107421875;-0.04693603515625;-0.9350433349609376;-0.0147552490234375;0.3386153280735016;0.2086509466171264;0.0786258354783058
1768421449472109300;3.680109375;-0.03619384765625;-0.96160888671875;-0.0162353515625;0.362382709980011;0.2541659772396087;0.0652642250061035
1768421449482109200;3.690109130859375;-0.0300750732421875;-0.9923095703125;-0.03509521484375;0.383933275938034;0.2996208071708679;0.0375630892813205
1768421449492109300;3.700109375;-0.0229339599609375;-1.016082763671875;-0.0442657470703125;0.4235877394676208;0.3463590145111084;-0.0346890054643154
1768421449502109200;3.710109130859375;-0.0403594970703125;-1.0395355224609375;-0.0550384521484375;0.4067312777042389;0.4031418561935425;-0.1308530867099762
1768421449512109300;3.720109375;-0.0978240966796875;-1.0839691162109375;-0.0892486572265625;0.3272196650505066;0.4599873125553131;-0.2289287894964218
1768421449522109200;3.730109130859375;-0.1550750732421875;-1.1215972900390625;-0.099334716796875;0.2190644443035125;0.513380229473114;-0.3327209651470184
1768421449532109300;3.740109375;-0.2084197998046875;-1.1605072021484375;-0.101470947265625;0.0875815153121948;0.5901786088943481;-0.4362590610980987
1768421449542109200;3.750109130859375;-0.248138427734375;-1.1775360107421875;-0.105255126953125;-0.0404432974755764;0.6498879790306091;-0.5043414831161499
1768421449552109300;3.760109375;-0.2528076171875;-1.1580963134765625;-0.1042327880859375;-0.1423981636762619;0.6659484505653381;-0.5044525265693665
1768421449562109200;3.770109130859375;-0.1823577880859375;-1.1184234619140625;-0.082183837890625;-0.2055571526288986;0.5757365226745605;-0.3945731520652771
1768421449572109300;3.780109375;-0.04620361328125;-1.1024322509765625;-0.0460205078125;-0.2704671621322632;0.5090379118919373;-0.0705444738268852
1768421449582108200;3.790108154296875;0.1285247802734375;-1.17694091796875;-0.00164794921875;-0.3366009294986725;0.3972722589969635;0.3280599117279053
1768421449592108300;3.8001083984375;0.3979339599609375;-1.3523712158203125;0.0413665771484375;-0.4241536855697632;0.0867649912834167;0.3969798386096954
1768421449602108200;3.810108154296875;0.559478759765625;-1.52264404296875;0.079132080078125;-0.6660872101783752;-0.3194546997547149;0.2916659414768219
1768421449612108300;3.8201083984375;0.5558013916015625;-1.6092987060546875;0.183013916015625;-0.9423350691795348;-0.6886577606201172;0.1749089658260345
1768421449622108200;3.830108154296875;0.611053466796875;-1.540374755859375;0.35992431640625;-0.9516840577125548;-0.8779030442237854;-0.0941355526447296
1768421449632108300;3.8401083984375;0.64031982421875;-1.2825927734375;0.505279541015625;-0.7082636952400208;-0.8098766207695007;-0.416441947221756
1768421449642108200;3.850108154296875;0.52044677734375;-1.054290771484375;0.4044647216796875;-0.4386926591396332;-0.5686695575714111;-0.556272566318512
1768421449652108300;3.8601083984375;0.3206329345703125;-0.9180145263671876;0.195709228515625;-0.1215807572007179;-0.2499555051326751;-0.5027512907981873
1768421449662108200;3.870108154296875;0.15264892578125;-0.854156494140625;0.00238037109375;0.1920008659362793;0.0630809664726257;-0.4046156704425812
1768421449672108300;3.8801083984375;0.0889892578125;-0.8632049560546875;-0.195159912109375;0.3853961527347564;0.2451892495155334;-0.363159030675888
1768421449682108200;3.890108154296875;0.0838623046875;-0.9212188720703124;-0.2971343994140625;0.454130470752716;0.254189133644104;-0.3979883790016174
1768421449692108000;3.90010791015625;0.0402069091796875;-1.008758544921875;-0.2703704833984375;0.4250873923301697;0.1499961614608764;-0.454841285943985
1768421449702108200;3.910108154296875;-0.03997802734375;-1.094024658203125;-0.156341552734375;0.3486208319664001;-0.008688828907907;-0.4547672569751739
1768421449712107300;3.920107177734375;-0.091796875;-1.1509246826171875;-0.0043792724609375;0.2537364065647125;-0.2179328650236129;-0.3681796193122864
1768421449722107100;3.930107177734375;-0.0785980224609375;-1.1739349365234375;0.136993408203125;0.1709821373224258;-0.4691539108753204;-0.2087566703557968
1768421449732107300;3.940107177734375;0.0102081298828125;-1.1527252197265625;0.2392425537109375;0.1028374284505844;-0.7548950910568237;-0.084888257086277
1768421449742107100;3.950107177734375;0.1099090576171875;-1.1017608642578125;0.2872314453125;0.0761072859168052;-0.997922420501709;-0.0579900667071342
1768421449752107300;3.960107177734375;0.155609130859375;-1.0399932861328125;0.284515380859375;0.1190401017665863;-1.1339061260223389;-0.0813313424587249
1768421449762107100;3.970107177734375;0.17254638671875;-0.982269287109375;0.2330474853515625;0.2015735954046249;-1.1541796922683716;-0.1139377504587173
1768421449772107000;3.98010693359375;0.17730712890625;-0.9297943115234376;0.1486968994140625;0.279739499092102;-1.1018911600112915;-0.1352683454751968
1768421449782107100;3.990107177734375;0.1749114990234375;-0.8668670654296875;0.0711822509765625;0.3457169234752655;-1.029456615447998;-0.1445342749357223
1768421449792107300;4.000107177734375;0.16375732421875;-0.812774658203125;-0.01055908203125;0.406051903963089;-0.9711347222328186;-0.1295121908187866
1768421449802107400;4.010107421875;0.140106201171875;-0.77166748046875;-0.095733642578125;0.4428988695144653;-0.9346678256988524;-0.0988831669092178
1768421449812107300;4.020107177734375;0.1180419921875;-0.7519683837890625;-0.1801605224609375;0.4505378901958465;-0.8869114518165588;-0.0500357374548912
1768421449822107400;4.030107421875;0.1073760986328125;-0.761077880859375;-0.248443603515625;0.4305889308452606;-0.8268784880638123;-0.0042661176994442
1768421449832106200;4.040106201171875;0.09881591796875;-0.78826904296875;-0.31573486328125;0.3872672915458679;-0.7622281312942505;0.021474665030837
1768421449842106400;4.0501064453125;0.079193115234375;-0.8263397216796875;-0.3600921630859375;0.3184187114238739;-0.7021712064743042;0.0356951467692852
1768421449852106200;4.060106201171875;0.0632171630859375;-0.86376953125;-0.3642730712890625;0.2544527947902679;-0.652954638004303;0.044539239257574
1768421449862106400;4.0701064453125;0.051422119140625;-0.893585205078125;-0.3475799560546875;0.1922594606876373;-0.5939693450927734;0.0434537343680858
1768421449872106200;4.080106201171875;0.04083251953125;-0.9114227294921876;-0.3022003173828125;0.1519208252429962;-0.5403212904930115;0.0352181755006313
1768421449882106400;4.0901064453125;0.025146484375;-0.92010498046875;-0.2382965087890625;0.1264474242925644;-0.4723856449127197;0.0195816904306411
1768421449892106200;4.100106201171875;0.0096893310546875;-0.919158935546875;-0.1783905029296875;0.107638843357563;-0.40302574634552;0.0007009439868852
1768421449902106400;4.1101064453125;-0.001556396484375;-0.920623779296875;-0.1389617919921875;0.0874238535761833;-0.3584247231483459;-0.0194759629666805
1768421449912106200;4.120106201171875;-0.0124969482421875;-0.9215240478515624;-0.1184234619140625;0.0591386891901493;-0.3477563858032226;-0.044998899102211
1768421449922106400;4.1301064453125;-0.0203094482421875;-0.918853759765625;-0.0950927734375;0.0295491032302379;-0.3528957366943359;-0.0576800741255283
1768421449932106200;4.140106201171875;-0.0267791748046875;-0.9083251953125;-0.0673675537109375;0.0114614460617303;-0.3658205866813659;-0.0484032183885574
1768421449942106400;4.1501064453125;-0.0313720703125;-0.891845703125;-0.03729248046875;-0.0006085322820581;-0.3786921799182892;-0.0167259834706783
1768421449952105200;4.160105224609375;-0.034393310546875;-0.879669189453125;-0.0175323486328125;-0.013078517280519;-0.3797537088394165;0.017985126003623
1768421449962105300;4.170105224609375;-0.0343170166015625;-0.869873046875;-0.0077056884765625;-0.0195614509284496;-0.3670597672462463;0.0450819917023181
1768421449972105200;4.180105224609375;-0.0339813232421875;-0.862274169921875;-0.0059661865234375;-0.0089018819853663;-0.3281855881214142;0.0637659281492233
1768421449982105300;4.190105224609375;-0.04644775390625;-0.8634796142578125;-0.023162841796875;0.0036985981278121;-0.266211450099945;0.0828956812620163
1768421449992105200;4.200105224609375;-0.0640411376953125;-0.8701324462890625;-0.060272216796875;0.0016879114555194;-0.2232368141412735;0.0969188213348388
1768421450002105300;4.210105224609375;-0.07928466796875;-0.8767852783203125;-0.1050262451171875;-0.0281749125570058;-0.1996846199035644;0.1028805747628212
1768421450012105200;4.220105224609375;-0.1043548583984375;-0.886322021484375;-0.138580322265625;-0.0753818377852439;-0.1935782581567764;0.0997825190424919
1768421450022105300;4.230105224609375;-0.1256103515625;-0.8964691162109375;-0.1406097412109375;-0.1327878683805465;-0.176512986421585;0.0883873850107193
1768421450032105200;4.240105224609375;-0.129150390625;-0.9080963134765624;-0.121490478515625;-0.1739534139633178;-0.1486866772174835;0.0781328827142715
1768421450042105000;4.25010498046875;-0.11602783203125;-0.922119140625;-0.087921142578125;-0.1811950802803039;-0.1273291856050491;0.0631656497716903
1768421450052105200;4.260105224609375;-0.107818603515625;-0.941986083984375;-0.061920166015625;-0.1789660155773162;-0.115237645804882;0.0470181070268154
1768421450062105000;4.27010498046875;-0.1056671142578125;-0.9586029052734376;-0.042938232421875;-0.1790166199207306;-0.0864539295434951;0.045801043510437
1768421450072105200;4.280105224609375;-0.0874481201171875;-0.97064208984375;-0.0414276123046875;-0.1948746740818023;-0.0182722136378288;0.0489350520074367
1768421450082104300;4.290104248046875;-0.048919677734375;-0.96392822265625;-0.067413330078125;-0.2401966154575348;0.0827542692422866;0.0426627732813358
1768421450092104200;4.300104248046875;0.00732421875;-0.9297332763671876;-0.1004791259765625;-0.2898720204830169;0.0958990976214408;0.0273378808051347
1768421450102104000;4.31010400390625;0.014312744140625;-0.9165191650390624;-0.086517333984375;-0.3171752989292145;-0.1480555087327957;-0.0268505234271287
1768421450112104200;4.320104248046875;-0.104644775390625;-0.9809417724609376;-0.031280517578125;-0.3502570688724518;-0.476926326751709;-0.1018070578575134
1768421450122104000;4.33010400390625;-0.26153564453125;-1.0635528564453125;0.0498199462890625;-0.4141527116298675;-0.7012137770652771;-0.1602605134248733
1768421450132104200;4.340104248046875;-0.320587158203125;-1.1400909423828125;0.1469879150390625;-0.4847520291805267;-0.8022615313529968;-0.2337823957204818
1768421450142104000;4.35010400390625;-0.3169403076171875;-1.204864501953125;0.2480010986328125;-0.4915774464607239;-0.8274369239807129;-0.3310780525207519
1768421450152104200;4.360104248046875;-0.301300048828125;-1.2227020263671875;0.32427978515625;-0.4233696460723877;-0.8430675864219666;-0.4047363102436065
1768421450162104000;4.37010400390625;-0.298370361328125;-1.185028076171875;0.3327789306640625;-0.322743684053421;-0.8369410037994385;-0.4069110453128814
1768421450172104200;4.380104248046875;-0.2820587158203125;-1.0962066650390625;0.278839111328125;-0.1945708096027374;-0.7537710070610046;-0.28915536403656
1768421450182104000;4.39010400390625;-0.1918487548828125;-1.0011444091796875;0.1780548095703125;-0.0282364320009946;-0.6101802587509155;0.0171230603009462
1768421450192104400;4.4001044921875;-0.0315399169921875;-1.0256805419921875;0.055694580078125;0.1985194832086563;-0.3867173492908478;0.4532598853111267
1768421450202103000;4.41010302734375;0.1966705322265625;-1.1962432861328125;-0.0854644775390625;0.4059821367263794;-0.3060539364814758;0.6171561479568481
1768421450212103200;4.420103271484375;0.297576904296875;-1.429046630859375;-0.28875732421875;0.3070177435874939;-0.2512157261371612;0.4154352843761444
1768421450222103000;4.43010302734375;0.264984130859375;-1.5512847900390625;-0.403167724609375;0.1424695253372192;0.1002701446413993;0.1801098436117172
1768421450232103200;4.440103271484375;0.2568359375;-1.5134735107421875;-0.3395843505859375;0.172257512807846;0.3461408913135528;0.0542568452656269
1768421450242103300;4.450103271484375;0.2460784912109375;-1.450439453125;-0.2696075439453125;0.2009807825088501;0.2255665510892868;-0.0568361170589923
1768421450252103400;4.460103515625;0.1957244873046875;-1.3922882080078125;-0.2716827392578125;0.1068819761276245;-0.0791102647781372;-0.120590329170227
1768421450262103300;4.470103271484375;0.19781494140625;-1.2351837158203125;-0.185455322265625;0.0114840827882289;-0.4544537961483001;-0.1017932072281837
1768421450272103400;4.480103515625;0.2682342529296875;-1.1175537109375;-0.076416015625;-0.0623541884124279;-0.7941045761108398;-0.1182704493403434
1768421450282103300;4.490103271484375;0.2677459716796875;-1.1145172119140625;0.0011138916015625;-0.118906944990158;-0.9800403714179992;-0.1236577555537223
1768421450292103200;4.500103271484375;0.2374114990234375;-1.1340484619140625;0.0659332275390625;-0.1360739469528198;-1.0521955490112305;-0.0678616017103195
1768421450302103300;4.510103271484375;0.2333831787109375;-1.1613922119140625;0.090911865234375;-0.1134096458554267;-1.0985994338989258;-0.0241940189152956
1768421450312103200;4.520103271484375;0.247955322265625;-1.1551666259765625;0.0714111328125;-0.0911381691694259;-1.0925378799438477;-0.0335694104433059
1768421450322102300;4.530102294921875;0.2570648193359375;-1.0704345703125;0.0483245849609375;-0.0651270747184753;-1.0345726013183594;-0.0142055675387382
1768421450332102400;4.540102294921875;0.2535858154296875;-0.9674224853515624;0.0223541259765625;-0.0365044809877872;-0.9498544931411744;0.052986517548561
1768421450342102300;4.550102294921875;0.2525482177734375;-0.8931732177734375;-0.015594482421875;-0.0096355834975838;-0.8306005001068115;0.1097400784492492
1768421450352102400;4.560102294921875;0.2461700439453125;-0.8595123291015625;-0.0606231689453125;0.0118465395644307;-0.6918841600418091;0.0984442830085754
1768421450362102300;4.570102294921875;0.2254791259765625;-0.8594970703125;-0.0853271484375;0.0277711767703294;-0.5437828898429871;0.0433429479598999
1768421450372102100;4.58010205078125;0.184844970703125;-0.8665313720703125;-0.0910797119140625;0.0447461642324924;-0.3949126899242401;0.000191481274669
1768421450382102300;4.590102294921875;0.142425537109375;-0.8724365234375;-0.0933990478515625;0.057792991399765;-0.3035210072994232;-0.0245040114969015
1768421450392102100;4.60010205078125;0.1222686767578125;-0.88037109375;-0.1041717529296875;0.0552366226911544;-0.2371952384710312;-0.0465131737291812
1768421450402102500;4.6101025390625;0.11322021484375;-0.8845977783203125;-0.1202392578125;0.0363689251244068;-0.1927950233221054;-0.076622873544693
1768421450412102400;4.620102294921875;0.1002960205078125;-0.8943939208984375;-0.134765625;0.0025635587517172;-0.16480652987957;-0.0901088565587997
1768421450422102500;4.6301025390625;0.090362548828125;-0.9104156494140624;-0.1391448974609375;-0.0501204244792461;-0.1735134720802307;-0.0640210583806037
1768421450432102400;4.640102294921875;0.09130859375;-0.9293060302734376;-0.11895751953125;-0.1070974245667457;-0.2102986425161361;-0.024898424744606
1768421450442101200;4.650101318359375;0.097625732421875;-0.951019287109375;-0.0772247314453125;-0.151546910405159;-0.2395095229148864;-0.0056506949476897
1768421450452101400;4.660101318359375;0.1056365966796875;-0.95880126953125;-0.018585205078125;-0.1709206104278564;-0.2632968723773956;-0.0212826523929834
1768421450462101500;4.6701015625;0.1083984375;-0.95050048828125;0.0438385009765625;-0.1634999811649322;-0.2780409455299377;-0.0554025396704673
1768421450472101400;4.680101318359375;0.103363037109375;-0.924163818359375;0.0885467529296875;-0.154085174202919;-0.2800918519496918;-0.0781720355153083
1768421450482101500;4.6901015625;0.0929718017578125;-0.883575439453125;0.1064453125;-0.1453582644462585;-0.2587237060070038;-0.0783736333250999
1768421450492101400;4.700101318359375;0.086700439453125;-0.8420257568359375;0.1070404052734375;-0.1390841156244278;-0.223757728934288;-0.059133093804121
1768421450502101500;4.7101015625;0.092376708984375;-0.8158721923828125;0.102752685546875;-0.1231725290417671;-0.1946232765913009;-0.0288191307336092
1768421450512101400;4.720101318359375;0.1012115478515625;-0.802154541015625;0.1008453369140625;-0.0885610282421112;-0.1665170788764953;0.004931641742587
1768421450522101500;4.7301015625;0.1025543212890625;-0.7996673583984375;0.086151123046875;-0.052927128970623;-0.1433875262737274;0.0411367826163768
1768421450532101400;4.740101318359375;0.0933074951171875;-0.7993927001953125;0.069915771484375;-0.0157970730215311;-0.1303478926420211;0.0809539705514907
1768421450542101500;4.7501015625;0.0787811279296875;-0.81011962890625;0.0511932373046875;0.0233527272939682;-0.1237589567899704;0.1072982251644134
1768421450552101400;4.760101318359375;0.0648651123046875;-0.8305816650390625;0.028472900390625;0.0442343056201934;-0.1102141216397285;0.1097422093152999
1768421450562100500;4.7701005859375;0.052337646484375;-0.854705810546875;0.0115203857421875;0.0504855439066886;-0.0961204096674919;0.0945288985967636
1768421450572100400;4.780100341796875;0.038055419921875;-0.8782806396484375;0.00836181640625;0.0447427034378051;-0.0723567530512809;0.0751027390360832
1768421450582100500;4.7901005859375;0.021453857421875;-0.8949127197265625;0.0116119384765625;0.0417964495718479;-0.0309304855763912;0.0626173093914985
1768421450592100400;4.800100341796875;0.006317138671875;-0.9048309326171876;0.0089263916015625;0.0422398634254932;0.0300535056740045;0.0609184764325618
1768421450602100500;4.8101005859375;-0.0005035400390625;-0.9165191650390624;-0.0016021728515625;0.0505587831139564;0.1061970070004463;0.063956081867218
1768421450612100400;4.820100341796875;-0.0029144287109375;-0.925811767578125;-0.0222320556640625;0.0694504454731941;0.1797074526548385;0.0757112726569175
1768421450622100500;4.8301005859375;-0.00360107421875;-0.9293060302734376;-0.04302978515625;0.0861697718501091;0.2432105243206024;0.0827540010213851
1768421450632100400;4.840100341796875;-0.001708984375;-0.93145751953125;-0.058929443359375;0.0914790481328964;0.2824085354804992;0.0818764865398407
1768421450642100200;4.850100341796875;-0.0162200927734375;-0.9329986572265624;-0.069732666015625;0.078223168849945;0.3208706974983215;0.0760843828320503
1768421450652100400;4.860100341796875;-0.0357666015625;-0.936859130859375;-0.065277099609375;0.0557197220623493;0.3563003242015838;0.0731807351112365
1768421450662100200;4.870100341796875;-0.057037353515625;-0.9373016357421876;-0.048248291015625;0.0339822024106979;0.4082165062427521;0.0607179403305053
1768421450672100400;4.880100341796875;-0.0706634521484375;-0.9465789794921876;-0.031951904296875;0.0114209661260247;0.4666436016559601;0.027974909171462
1768421450682099500;4.890099365234375;-0.0795135498046875;-0.9536285400390624;-0.012542724609375;0.0018434401135891;0.5202229619026184;-0.0062829297967255
1768421450692099300;4.900099365234375;-0.094451904296875;-0.9527435302734376;0.010162353515625;0.0017574200173839;0.5602356195449829;-0.0209918338805437
1768421450702099200;4.91009912109375;-0.0977020263671875;-0.9538421630859376;0.03582763671875;0.0026218821294605;0.5818343758583069;-0.03731594607234
1768421450712099300;4.920099365234375;-0.0795745849609375;-0.9580535888671876;0.06634521484375;0.0025768745690584;0.5863958597183228;-0.0671801045536995
1768421450722099200;4.93009912109375;-0.05609130859375;-0.965484619140625;0.1044921875;-0.0126657281070947;0.5663962960243225;-0.0958058908581733
1768421450732099300;4.940099365234375;-0.0431671142578125;-0.968780517578125;0.148651123046875;-0.0297373887151479;0.5252832174301147;-0.100058689713478
1768421450742099200;4.95009912109375;-0.031494140625;-0.95904541015625;0.1925201416015625;-0.0445083454251289;0.4505504071712494;-0.0758974254131317
1768421450752099300;4.960099365234375;-0.0093841552734375;-0.9434814453125;0.2290496826171875;-0.0508964695036411;0.3443049192428589;-0.0560941621661186
1768421450762099200;4.97009912109375;0.00689697265625;-0.9411773681640624;0.256500244140625;-0.0599293783307075;0.2401100695133209;-0.0495076328516006
1768421450772099300;4.980099365234375;-0.0142974853515625;-0.9764556884765624;0.2661285400390625;-0.1085981130599975;0.1957415342330932;-0.0607160776853561
1768421450782099200;4.99009912109375;-0.0662384033203125;-1.050567626953125;0.248443603515625;-0.1821634173393249;0.1844270974397659;-0.1411565840244293
1768421450792099300;5.000099365234375;-0.119873046875;-1.1102752685546875;0.2109222412109375;-0.2153581231832504;0.2529481053352356;-0.3061346113681793
1768421450802099500;5.010099365234375;-0.1886749267578125;-1.15582275390625;0.127777099609375;-0.2398615926504135;0.4001689851284027;-0.4751132726669311
1768421450812098300;5.020098388671875;-0.227630615234375;-1.1911773681640625;0.0209197998046875;-0.2522205412387848;0.6111810803413391;-0.5521795749664307
1768421450822098200;5.03009814453125;-0.1890716552734375;-1.19635009765625;-0.091827392578125;-0.2163626551628112;0.8009592890739441;-0.5042940378189087
1768421450832098300;5.040098388671875;-0.0331268310546875;-1.209228515625;-0.1879425048828125;-0.1752477139234542;0.8045780062675476;-0.379753977060318
1768421450842098200;5.05009814453125;0.175750732421875;-1.2982177734375;-0.245697021484375;-0.2331096827983856;0.6591757535934448;-0.3509172797203064
1768421450852098600;5.0600986328125;0.3241729736328125;-1.4046478271484375;-0.2426910400390625;-0.4206849038600921;0.4446810483932495;-0.5700714588165283
1768421450862098400;5.070098388671875;0.2942352294921875;-1.446319580078125;-0.1689910888671875;-0.6331052780151367;0.2693366706371307;-0.7399446368217468
1768421450872098600;5.0800986328125;0.09442138671875;-1.4754638671875;-0.0668487548828125;-0.8696736097335815;0.1144882291555404;-0.5747056603431702
1768421450882098400;5.090098388671875;0.0260009765625;-1.5072021484375;0.00189208984375;-1.039781928062439;-0.018793661147356;-0.3440905213356018
1768421450892098300;5.100098388671875;0.1527862548828125;-1.4198150634765625;0.1020050048828125;-0.9180704355239868;0.0465906709432601;-0.3187686502933502
1768421450902098400;5.110098388671875;0.28973388671875;-1.1907501220703125;0.17169189453125;-0.6015700101852417;0.3304466307163238;-0.404853492975235
1768421450912098300;5.120098388671875;0.3282470703125;-1.009979248046875;0.03900146484375;-0.2722885012626648;0.651242733001709;-0.4473764300346374
1768421450922097400;5.130097412109375;0.2915496826171875;-0.8617706298828125;-0.1357574462890625;0.0110260192304849;1.0272587537765503;-0.3527801632881164
1768421450932097500;5.14009765625;0.2440185546875;-0.7946624755859375;-0.31268310546875;0.2268925309181213;1.4004597663879397;-0.2123892307281494
1768421450942097400;5.150097412109375;0.2432708740234375;-0.83746337890625;-0.4884490966796875;0.3813311159610748;1.6835774183273315;-0.1351120173931121
1768421450952097500;5.16009765625;0.2219085693359375;-0.9570465087890624;-0.6026458740234375;0.4567970931529999;1.8098478317260744;-0.1834494471549987
1768421450962097400;5.170097412109375;0.1677398681640625;-1.071380615234375;-0.619293212890625;0.4405582249164581;1.7411110401153564;-0.3382193148136139
1768421450972097300;5.18009716796875;0.0634918212890625;-1.12799072265625;-0.54632568359375;0.3469704687595367;1.549493432044983;-0.416697084903717
1768421450982097400;5.190097412109375;-0.067169189453125;-1.140716552734375;-0.37213134765625;0.2425878793001175;1.299332857131958;-0.2962686717510223
1768421450992097300;5.20009716796875;-0.135833740234375;-1.151947021484375;-0.150360107421875;0.1499269157648086;1.0031592845916748;-0.0443898364901542
1768421451002097400;5.210097412109375;-0.103240966796875;-1.1593170166015625;0.0624847412109375;0.0743634477257728;0.6958680152893066;0.1912637054920196
1768421451012097300;5.22009716796875;0.0208740234375;-1.1499481201171875;0.251251220703125;0.0379423238337039;0.4233307540416717;0.2943277657032013
1768421451022097400;5.230097412109375;0.1465301513671875;-1.113739013671875;0.3455352783203125;0.0538083687424659;0.2640007436275482;0.2451082915067672
1768421451032097300;5.24009716796875;0.2156829833984375;-1.0708160400390625;0.3386077880859375;0.1311612129211425;0.2140566259622573;0.126120388507843
1768421451042096400;5.250096435546875;0.2233428955078125;-1.0421142578125;0.2344970703125;0.2101415246725082;0.2373715341091156;0.0080808298662304
1768421451052096300;5.26009619140625;0.2013092041015625;-1.0030059814453125;0.076263427734375;0.2374498397111892;0.2897929251194;-0.0771459192037582
1768421451062096400;5.270096435546875;0.161468505859375;-0.9406585693359376;-0.07354736328125;0.2250440418720245;0.3334051370620727;-0.1034784540534019
1768421451072096300;5.28009619140625;0.1082916259765625;-0.874908447265625;-0.186859130859375;0.1967506110668182;0.3901387155056;-0.0788029357790947
1768421451082096400;5.290096435546875;0.0612945556640625;-0.8185577392578125;-0.2734222412109375;0.1728058606386184;0.4495397210121155;-0.0345960594713687
1768421451092096300;5.30009619140625;0.0210113525390625;-0.77337646484375;-0.3399810791015625;0.1564343422651291;0.5228309631347656;0.0202597323805093
1768421451102096400;5.310096435546875;-0.00299072265625;-0.736724853515625;-0.3874053955078125;0.140675351023674;0.6002914309501648;0.0877940356731414
1768421451112096300;5.32009619140625;-0.0180816650390625;-0.722412109375;-0.405853271484375;0.119334653019905;0.6958386898040771;0.1651854962110519
1768421451122096400;5.330096435546875;-0.019805908203125;-0.7186279296875;-0.3881072998046875;0.1011127680540084;0.7926424741744995;0.2477080672979354
1768421451132096300;5.34009619140625;-0.004180908203125;-0.72296142578125;-0.3407135009765625;0.0868400931358337;0.8766382932662964;0.3237879276275635
1768421451142096400;5.350096435546875;0.012847900390625;-0.747222900390625;-0.266021728515625;0.0802269279956817;0.9463103413581848;0.3894915580749511
1768421451152096300;5.36009619140625;0.032257080078125;-0.7847900390625;-0.2015380859375;0.0576678216457366;0.980804681777954;0.4290943741798401
1768421451162095400;5.370095458984375;0.044464111328125;-0.8231048583984375;-0.1598052978515625;0.0219689477235078;0.9978326559066772;0.4405078887939453
1768421451172095200;5.38009521484375;0.0408172607421875;-0.8615570068359375;-0.1253814697265625;-0.0012841762509196;1.0040138959884644;0.4203338921070099
1768421451182095400;5.390095458984375;0.0397796630859375;-0.894317626953125;-0.0971832275390625;-0.0241210479289293;1.019958257675171;0.3736926317214966
1768421451192095200;5.40009521484375;0.026214599609375;-0.92144775390625;-0.0819854736328125;-0.040787111967802;1.0366370677947998;0.3143824338912964
1768421451202095400;5.410095458984375;0.007965087890625;-0.936431884765625;-0.07794189453125;-0.0528104826807975;1.0429562330245972;0.2548056542873382
1768421451212095200;5.42009521484375;-0.0262603759765625;-0.9422149658203124;-0.0819549560546875;-0.0610622875392437;1.039926290512085;0.2193699032068252
1768421451222095400;5.430095458984375;-0.0600128173828125;-0.94281005859375;-0.087615966796875;-0.0627669766545295;1.0412088632583618;0.2125823050737381
1768421451232095200;5.44009521484375;-0.0721588134765625;-0.9381561279296876;-0.0976715087890625;-0.0682674720883369;1.0308561325073242;0.2243564128875732
1768421451242095400;5.450095458984375;-0.0720062255859375;-0.93072509765625;-0.1002044677734375;-0.0857266187667846;1.0086251497268677;0.2446893751621246
1768421451252095500;5.460095458984375;-0.0642547607421875;-0.9251861572265624;-0.0899658203125;-0.1112836450338363;0.9812344908714294;0.2610659599304199
1768421451262095400;5.470095458984375;-0.0509033203125;-0.922637939453125;-0.068389892578125;-0.1385546773672104;0.951825737953186;0.250118225812912
1768421451272095500;5.480095458984375;-0.0463714599609375;-0.9243927001953124;-0.0440216064453125;-0.1658438295125961;0.9332855939865112;0.2127319723367691
1768421451282095400;5.490095458984375;-0.059814453125;-0.935272216796875;-0.0383453369140625;-0.1872908025979995;0.9304720163345336;0.1595124304294586
1768421451292094500;5.500094482421875;-0.0823974609375;-0.9534759521484376;-0.049072265625;-0.2068714201450348;0.9231509566307068;0.114666923880577
1768421451302094300;5.51009423828125;-0.1115570068359375;-0.97381591796875;-0.0626373291015625;-0.2336817383766174;0.8977696895599365;0.0875567495822906
1768421451312094500;5.520094482421875;-0.13153076171875;-0.9866790771484376;-0.0716094970703125;-0.265470027923584;0.8640498518943787;0.0634926930069923
1768421451322094300;5.53009423828125;-0.1455230712890625;-0.9905242919921876;-0.06781005859375;-0.3023588061332702;0.8340072631835938;0.052208874374628
1768421451332094000;5.540093994140625;-0.1588287353515625;-0.9834442138671876;-0.0523681640625;-0.3457592725753784;0.7920629978179932;0.0468511283397674
1768421451342093800;5.55009375;-0.1690673828125;-0.97418212890625;-0.027313232421875;-0.4206936955451965;0.7085481286048889;0.0507212355732917
1768421451352094200;5.56009423828125;-0.194427490234375;-0.9810943603515624;0.0185089111328125;-0.5215606689453125;0.5727987885475159;0.0580518506467342
1768421451362094000;5.570093994140625;-0.2441864013671875;-0.9975738525390624;0.0796661376953125;-0.6127867102622986;0.5173659324645996;0.1059256345033645
1768421451372094200;5.58009423828125;-0.2236328125;-1.0100860595703125;0.13409423828125;-0.6239488124847412;0.5940537452697754;0.1455550640821457
1768421451382094000;5.590093994140625;-0.1619720458984375;-1.02142333984375;0.125091552734375;-0.5406491160392761;0.6943385601043701;0.0893391966819763
1768421451392094200;5.60009423828125;-0.14288330078125;-1.014190673828125;0.0645751953125;-0.4077954590320587;0.752923309803009;-0.008298410102725
1768421451402094000;5.610093994140625;-0.16998291015625;-0.9961090087890624;-0.0356292724609375;-0.3164706230163574;0.7741659879684448;-0.0787531360983848
1768421451412093200;5.62009326171875;-0.2302703857421875;-0.973724365234375;-0.1281890869140625;-0.2821241021156311;0.7875763773918152;-0.0979308262467384
1768421451422093000;5.630093017578125;-0.2835235595703125;-0.9535369873046876;-0.182769775390625;-0.2804675996303558;0.7956750392913818;-0.0670197829604148
1768421451432093200;5.64009326171875;-0.3222808837890625;-0.9458160400390624;-0.187469482421875;-0.2475053966045379;0.8348610401153564;0.0164652597159147
1768421451442093000;5.650093017578125;-0.2994842529296875;-0.9473114013671876;-0.154937744140625;-0.1519266813993454;0.920512855052948;0.1347642093896865
1768421451452093200;5.66009326171875;-0.21435546875;-0.9803314208984376;-0.1330108642578125;-0.0055396412499248;1.097521185874939;0.3507247269153595
1768421451462093000;5.670093017578125;-0.0626068115234375;-1.0545806884765625;-0.156158447265625;0.1435555666685104;1.1811667680740356;0.6367327570915222
1768421451472093200;5.68009326171875;0.087799072265625;-1.1851043701171875;-0.2210235595703125;0.1983711421489715;1.216547966003418;0.8125861287117004
1768421451482093000;5.690093017578125;0.1953277587890625;-1.3234100341796875;-0.29254150390625;0.1652201116085052;1.2920382022857666;0.7216386198997498
1768421451492093200;5.70009326171875;0.2347564697265625;-1.4068603515625;-0.3172760009765625;0.1028408929705619;1.3765581846237185;0.4717976152896881
1768421451502093000;5.710093017578125;0.1761016845703125;-1.4503021240234375;-0.2727508544921875;0.0672706514596939;1.4788386821746826;0.2352391481399536
1768421451512093200;5.72009326171875;0.1009979248046875;-1.41168212890625;-0.2164306640625;0.0441030114889144;1.607264518737793;-0.0021694109309464
1768421451522093000;5.730093017578125;0.056243896484375;-1.2820281982421875;-0.2065277099609375;-0.0032879386562854;1.6802674531936646;-0.1810797750949859
1768421451532092200;5.740092041015625;0.000274658203125;-1.118408203125;-0.2082061767578125;-0.0144649595022201;1.764684796333313;-0.1509863138198852
1768421451542092000;5.750092041015625;0.020721435546875;-1.0027313232421875;-0.220306396484375;0.0394613891839981;1.834613800048828;0.0327446311712265
1768421451552092200;5.760092041015625;0.1422882080078125;-0.969482421875;-0.2588043212890625;0.0922388508915901;1.7771196365356443;0.1901153475046157
1768421451562092000;5.770092041015625;0.18817138671875;-0.98858642578125;-0.2819976806640625;0.1121262684464454;1.6599421501159668;0.2660391330718994
1768421451572092200;5.780092041015625;0.173492431640625;-1.0220947265625;-0.2732391357421875;0.0977151095867157;1.5874581336975098;0.2991816401481628
1768421451582092000;5.790092041015625;0.2276153564453125;-1.06292724609375;-0.245513916015625;0.067681573331356;1.5472843647003174;0.304509550333023
1768421451592092200;5.800092041015625;0.3194580078125;-1.1015472412109375;-0.1935577392578125;0.0311153084039688;1.494487166404724;0.2683904469013214
1768421451602092000;5.810092041015625;0.3981170654296875;-1.1287078857421875;-0.1267547607421875;-0.0081564635038375;1.420764684677124;0.18587426841259
1768421451612092000;5.820091796875;0.436859130859375;-1.132476806640625;-0.0599517822265625;-0.0294540282338857;1.3457504510879517;0.0883623510599136
1768421451622092000;5.830092041015625;0.432861328125;-1.11456298828125;0.0023193359375;-0.0469954721629619;1.297325611114502;-0.0079553946852684
1768421451632092000;5.840091796875;0.3771514892578125;-1.075469970703125;0.0516815185546875;-0.0475145205855369;1.305751919746399;-0.042321890592575
1768421451642092000;5.850092041015625;0.3075408935546875;-1.027496337890625;0.0646514892578125;-0.0355470739305019;1.337277054786682;-0.0007387608638964
1768421451652091100;5.860091064453125;0.2625885009765625;-0.9821014404296876;0.030548095703125;-0.0277924817055463;1.3778988122940063;0.076004222035408
1768421451662091000;5.870091064453125;0.238983154296875;-0.95184326171875;-0.0231781005859375;-0.0366134047508239;1.4274290800094604;0.1242449879646301
1768421451672091000;5.8800908203125;0.2165679931640625;-0.94744873046875;-0.086151123046875;-0.062185876071453;1.4872002601623535;0.1455665230751037
1768421451682091000;5.890091064453125;0.2051239013671875;-0.9718170166015624;-0.15087890625;-0.0998168736696243;1.543738842010498;0.1660374402999878
1768421451692091000;5.9000908203125;0.205535888671875;-1.0186614990234375;-0.2011260986328125;-0.1432045549154281;1.5918115377426147;0.1695171296596527
1768421451702091000;5.910091064453125;0.19830322265625;-1.055450439453125;-0.22210693359375;-0.1898876428604126;1.6479331254959106;0.1491490006446838
1768421451712091000;5.9200908203125;0.190032958984375;-1.07598876953125;-0.2168426513671875;-0.2277040034532547;1.706605315208435;0.114356406033039
1768421451722091000;5.930091064453125;0.18511962890625;-1.07281494140625;-0.1898345947265625;-0.2616632878780365;1.7597758769989014;0.0849875956773758
1768421451732091000;5.9400908203125;0.184539794921875;-1.05145263671875;-0.1479949951171875;-0.2924771308898926;1.8009037971496582;0.0643132105469703
1768421451742091300;5.95009130859375;0.1918487548828125;-1.0080718994140625;-0.0933837890625;-0.3268516361713409;1.820407152175903;0.0464236922562122
1768421451752091100;5.960091064453125;0.1969451904296875;-0.9571533203125;-0.0385894775390625;-0.3583317697048187;1.843339443206787;0.0458780080080032
1768421451762091300;5.97009130859375;0.1889801025390625;-0.9029541015625;0.004791259765625;-0.3711636960506439;1.8869116306304932;0.0583019219338893
1768421451772089900;5.98008984375;0.186981201171875;-0.8525848388671875;0.0340423583984375;-0.3642280101776123;1.931581974029541;0.0873916298151016
1768421451782090000;5.990090087890625;0.1866607666015625;-0.81317138671875;0.050323486328125;-0.3449467420578003;1.96581768989563;0.1261464804410934
1768421451792090000;6.000090087890625;0.1840667724609375;-0.7829742431640625;0.051422119140625;-0.3190693259239197;2.00203537940979;0.1715033054351806
1768421451802090200;6.01009033203125;0.1872100830078125;-0.7691497802734375;0.0343780517578125;-0.2926047146320343;2.028959274291992;0.2046516835689544
1768421451812090000;6.020090087890625;0.1953125;-0.7758636474609375;0.01947021484375;-0.2695150971412658;2.0300049781799316;0.2257124930620193
1768421451822090200;6.03009033203125;0.195098876953125;-0.793212890625;0.0157470703125;-0.2620079219341278;1.9996200799942017;0.2371640801429748
1768421451832090000;6.040090087890625;0.190460205078125;-0.820098876953125;0.0218505859375;-0.2572650909423828;1.9519060850143433;0.241016611456871
1768421451842090200;6.05009033203125;0.18035888671875;-0.8515472412109375;0.047027587890625;-0.243373766541481;1.8764801025390625;0.2425173074007034
1768421451852090000;6.060090087890625;0.1655120849609375;-0.885894775390625;0.088470458984375;-0.2263737469911575;1.7883610725402832;0.2336223423480987
1768421451862090000;6.070090087890625;0.155059814453125;-0.9091949462890624;0.1405792236328125;-0.1967956125736236;1.6837340593338013;0.2042482048273086
1768421451872090000;6.080090087890625;0.1501617431640625;-0.922393798828125;0.1944732666015625;-0.1569989323616027;1.5816471576690674;0.1581909656524658
1768421451882090000;6.090090087890625;0.1439361572265625;-0.9176483154296876;0.2284698486328125;-0.1190446317195892;1.4707618951797483;0.1052153706550598
1768421451892089000;6.100089111328125;0.1364898681640625;-0.901397705078125;0.2532806396484375;-0.0825880840420723;1.3380413055419922;0.0605123452842235
1768421451902089200;6.110089111328125;0.1140899658203125;-0.889801025390625;0.2618560791015625;-0.0506586506962776;1.2001372575759888;0.0288068801164627
1768421451912089000;6.120089111328125;0.1002655029296875;-0.8840789794921875;0.2598114013671875;-0.0209566801786422;1.0647187232971191;0.0059316586703062
1768421451922089200;6.130089111328125;0.08282470703125;-0.88165283203125;0.246246337890625;0.0105344001203775;0.945620596408844;-0.0083127906545996
1768421451932089000;6.140089111328125;0.050994873046875;-0.8848876953125;0.2193756103515625;0.0562534183263778;0.8519731760025024;-0.0143163548782467
1768421451942089000;6.1500888671875;0.0258636474609375;-0.886505126953125;0.1793975830078125;0.1027833670377731;0.7671903967857361;-0.0261213481426239
1768421451952089000;6.160089111328125;0.001068115234375;-0.8942718505859375;0.13519287109375;0.1368377357721328;0.695166826248169;-0.038436871021986
1768421451962089000;6.1700888671875;-0.0259857177734375;-0.9085235595703124;0.102294921875;0.1597864627838134;0.6315745115280151;-0.061777614057064
1768421451972089000;6.180089111328125;-0.0488128662109375;-0.919403076171875;0.07354736328125;0.1815194636583328;0.5751285552978516;-0.0934228897094726
1768421451982089000;6.1900888671875;-0.0664825439453125;-0.937042236328125;0.060577392578125;0.2032716274261474;0.5215329527854919;-0.1254202425479889
1768421451992089000;6.200089111328125;-0.083251953125;-0.9473419189453124;0.0596771240234375;0.2197549939155578;0.5111485123634338;-0.1350161433219909
1768421452002089000;6.2100888671875;-0.0886993408203125;-0.960418701171875;0.055145263671875;0.238474890589714;0.5277921557426453;-0.1446788907051086
1768421452012089000;6.220089111328125;-0.078704833984375;-0.9691925048828124;0.0443267822265625;0.2504961192607879;0.5656487345695496;-0.1729544699192047
1768421452022088000;6.230087890625;-0.06390380859375;-0.9762115478515624;0.024383544921875;0.2602129280567169;0.6028538942337036;-0.1954006552696228
1768421452032088000;6.240088134765625;-0.0523834228515625;-0.986541748046875;3.0517578125e-05;0.2637698650360107;0.6158884763717651;-0.2211765944957733
1768421452042088000;6.250087890625;-0.021514892578125;-0.9935455322265624;-0.0042266845703125;0.2668277025222778;0.5454130172729492;-0.2531680762767792
1768421452052088000;6.260088134765625;0.042327880859375;-0.9886627197265624;0.014617919921875;0.2804186046123504;0.3926348984241485;-0.2422448545694351
1768421452062088000;6.270087890625;0.114410400390625;-0.9643096923828124;0.0625457763671875;0.3073490262031555;0.3373000025749206;-0.1719070523977279
1768421452072088000;6.280088134765625;0.129302978515625;-0.96844482421875;0.105316162109375;0.3327667713165283;0.4351674318313598;-0.1786531060934066
1768421452082088000;6.290087890625;0.0609130859375;-1.0208740234375;0.09112548828125;0.3336344361305237;0.5976991057395935;-0.2873891592025757
1768421452092088000;6.300088134765625;-0.09381103515625;-1.1120758056640625;0.0278778076171875;0.2898389995098114;0.7755069136619568;-0.4141297936439514
1768421452102088000;6.310087890625;-0.2076416015625;-1.201812744140625;-0.051361083984375;0.2050381004810333;0.9241619110107422;-0.5283858180046082
1768421452112088000;6.320088134765625;-0.2451934814453125;-1.258758544921875;-0.1302032470703125;0.1048148274421691;1.0196921825408936;-0.6139105558395386
1768421452122088000;6.330087890625;-0.2113189697265625;-1.2866668701171875;-0.212982177734375;0.0143256764858961;1.094099760055542;-0.6210308074951172
1768421452132088000;6.340088134765625;-0.1125335693359375;-1.2857666015625;-0.2780303955078125;-0.0446510910987854;1.0744377374649048;-0.4912280440330505
1768421452142087000;6.3500869140625;0.036468505859375;-1.3087615966796875;-0.28839111328125;-0.1454440206289291;0.8937216997146606;-0.3286543190479278
1768421452152087000;6.360087158203125;0.176971435546875;-1.3949127197265625;-0.21673583984375;-0.3288511335849762;0.6174227595329285;-0.280748039484024
1768421452162087000;6.3700869140625;0.238494873046875;-1.4864654541015625;-0.07586669921875;-0.5547404289245605;0.3319129645824432;-0.3120154142379761
1768421452172087000;6.380087158203125;0.223052978515625;-1.53997802734375;0.1058807373046875;-0.6718159317970276;0.1284690201282501;-0.3009723424911499
1768421452182087000;6.3900869140625;0.2927703857421875;-1.491729736328125;0.32745361328125;-0.5695511102676392;0.0763200744986534;-0.3069487512111664
1768421452192087300;6.40008740234375;0.4471282958984375;-1.395416259765625;0.4067535400390625;-0.4260991215705871;0.1935601383447647;-0.4084716439247131
1768421452202087200;6.410087158203125;0.5358428955078125;-1.271209716796875;0.3204498291015625;-0.2527148127555847;0.43451789021492;-0.572558581829071
1768421452212087000;6.420087158203125;0.53466796875;-1.0937347412109375;0.1538543701171875;-0.0323171950876712;0.7438568472862244;-0.7171549201011658
1768421452222087200;6.430087158203125;0.4115447998046875;-0.9282684326171876;-0.060577392578125;0.1451601237058639;1.0639504194259644;-0.7425063252449036
1768421452232087000;6.440087158203125;0.2748565673828125;-0.80718994140625;-0.2828216552734375;0.2397295087575912;1.2653183937072754;-0.6901012063026428
1768421452242087200;6.450087158203125;0.1789703369140625;-0.7580718994140625;-0.430267333984375;0.2236424088478088;1.3172409534454346;-0.6215908527374268
1768421452252087000;6.460087158203125;0.09649658203125;-0.7977294921875;-0.45672607421875;0.1109978929162025;1.2199487686157229;-0.5596159100532532
1768421452262086100;6.470086181640625;0.010986328125;-0.888458251953125;-0.3544769287109375;-0.0246494207531213;1.024299144744873;-0.4729718267917633
1768421452272086000;6.4800859375;-0.078643798828125;-0.991973876953125;-0.1777191162109375;-0.1364481300115585;0.7877281308174133;-0.3191425800323486
1768421452282086100;6.490086181640625;-0.1327667236328125;-1.0626373291015625;0.0094451904296875;-0.205036774277687;0.5222602486610413;-0.1079757362604141
1768421452292086000;6.5000859375;-0.0875244140625;-1.106170654296875;0.1786956787109375;-0.2192330211400985;0.2024977058172226;0.0651289373636245
1768421452302086100;6.510086181640625;0.025482177734375;-1.1334381103515625;0.3093414306640625;-0.195139929652214;-0.1310488283634185;0.128286600112915
1768421452312086000;6.5200859375;0.1327667236328125;-1.152496337890625;0.3687744140625;-0.1502496898174286;-0.4179588854312897;0.0698190256953239
1768421452322086100;6.530086181640625;0.2117462158203125;-1.1546630859375;0.362518310546875;-0.0734433233737945;-0.6305673122406006;-0.066197395324707
1768421452332086000;6.5400859375;0.253204345703125;-1.128692626953125;0.3019561767578125;0.0244922935962677;-0.7293708324432373;-0.2209672629833221
1768421452342086100;6.550086181640625;0.245147705078125;-1.0803680419921875;0.1966705322265625;0.0983305647969245;-0.7342138290405273;-0.3481073677539825
1768421452352086000;6.5600859375;0.2144622802734375;-1.0050811767578125;0.0937042236328125;0.135630801320076;-0.6755185127258301;-0.4294147491455078
1768421452362086100;6.570086181640625;0.1650238037109375;-0.9014434814453124;0.0051422119140625;0.1545397788286209;-0.5822479724884033;-0.4725968539714813
1768421452372086000;6.5800859375;0.1070404052734375;-0.79986572265625;-0.08380126953125;0.1705965101718902;-0.4939223825931549;-0.4715502262115478
1768421452382085000;6.590085205078125;0.05548095703125;-0.7098846435546875;-0.1681671142578125;0.1793106347322464;-0.4296464323997497;-0.4249824583530426
1768421452392085000;6.6000849609375;0.0211029052734375;-0.643768310546875;-0.237213134765625;0.1933806538581848;-0.4285731911659241;-0.3417845070362091
1768421452402085000;6.610085205078125;-0.0091552734375;-0.6083831787109375;-0.250885009765625;0.2230242937803268;-0.4226780235767364;-0.2270139753818512
1768421452412085000;6.6200849609375;-0.032562255859375;-0.619598388671875;-0.256378173828125;0.2438552677631378;-0.4237430095672607;-0.0995356440544128
1768421452422085000;6.630085205078125;-0.036285400390625;-0.649627685546875;-0.2357330322265625;0.2601735293865204;-0.4229344725608825;0.0219156853854656
1768421452432085000;6.6400849609375;-0.037322998046875;-0.698486328125;-0.206085205078125;0.2539057731628418;-0.4259686172008514;0.1229046136140823
1768421452442085000;6.650085205078125;-0.0265045166015625;-0.7562255859375;-0.1699676513671875;0.239059716463089;-0.4337016344070434;0.1777178049087524
1768421452452085000;6.6600849609375;-0.0121917724609375;-0.8070068359375;-0.1168212890625;0.2235944718122482;-0.4304943978786468;0.1798752248287201
1768421452462085000;6.670085205078125;-0.0042266845703125;-0.85845947265625;-0.076385498046875;0.2092088758945465;-0.4478773772716522;0.1433779299259185
1768421452472085000;6.6800849609375;0.002532958984375;-0.8975067138671875;-0.054290771484375;0.1942951828241348;-0.4769239425659179;0.0920351147651672
1768421452482084900;6.6900849609375;-0.001434326171875;-0.911712646484375;-0.042510986328125;0.1844233721494674;-0.5062983632087708;0.0546161085367202
1768421452492085000;6.7000849609375;-0.0044403076171875;-0.911590576171875;-0.0413665771484375;0.1728407442569732;-0.5552824139595032;0.0237783007323741
1768421452502084000;6.710083984375;-0.008880615234375;-0.9020843505859376;-0.0431976318359375;0.1491732448339462;-0.6019971966743469;-0.0101261371746659
1768421452512084000;6.720083984375;-0.0328369140625;-0.894073486328125;-0.040740966796875;0.1167769506573677;-0.6398603916168213;-0.0301134269684553
1768421452522084000;6.730083984375;-0.062835693359375;-0.894744873046875;-0.033599853515625;0.0795464888215065;-0.6680925488471985;-0.0345787480473518
1768421452532084000;6.740083984375;-0.0962677001953125;-0.8999786376953125;-0.027557373046875;0.0488050915300846;-0.6857730150222778;-0.020567325875163
1768421452542084000;6.750083984375;-0.11737060546875;-0.911529541015625;-0.0289306640625;0.0181326642632484;-0.7074666023254395;-0.0051585431210696
1768421452552084000;6.760083984375;-0.1329193115234375;-0.9243621826171876;-0.0451202392578125;-0.0312926769256591;-0.7467663288116455;-0.009769007563591
1768421452562083800;6.770083740234375;-0.155609130859375;-0.9268951416015624;-0.047607421875;-0.085675224661827;-0.796633243560791;-0.0188919324427843
1768421452572084000;6.780083984375;-0.1871337890625;-0.9282684326171876;-0.0319671630859375;-0.1361405253410339;-0.8255375623703003;-0.0094315847381949
1768421452582084000;6.790083984375;-0.21087646484375;-0.92449951171875;-0.0140380859375;-0.1689890176057815;-0.8111844658851624;0.0341830030083656
1768421452592084200;6.800084228515625;-0.2147064208984375;-0.9119415283203124;0.0007476806640625;-0.1688846200704574;-0.7705078721046448;0.0975342765450477
1768421452602084000;6.810083984375;-0.1923828125;-0.905242919921875;0.000946044921875;-0.1556748151779174;-0.7287247776985168;0.1600312143564224
1768421452612084200;6.820084228515625;-0.1545867919921875;-0.910430908203125;-0.0093841552734375;-0.1426932364702224;-0.6942828893661499;0.2211014926433563
1768421452622084000;6.830083984375;-0.0953521728515625;-0.919677734375;-0.023223876953125;-0.1691490709781646;-0.6247658729553223;0.2776936590671539
1768421452632083200;6.840083251953125;-0.0027313232421875;-0.9104156494140624;-0.0538482666015625;-0.2356066703796386;-0.4243249297142029;0.323343425989151
1768421452642083000;6.8500830078125;0.1262359619140625;-0.86883544921875;-0.1008453369140625;-0.2521574199199676;-0.4001173079013824;0.2825363576412201
1768421452652083200;6.860083251953125;0.0875396728515625;-0.8980255126953125;-0.127105712890625;-0.2005477398633957;-0.7113484144210815;0.2019648104906082
1768421452662083000;6.8700830078125;-0.1832427978515625;-1.0279998779296875;-0.081817626953125;-0.1308384388685226;-0.9237991571426392;0.1798957288265228
1768421452672083200;6.880083251953125;-0.32421875;-1.1611175537109375;0.0157012939453125;-0.0798026844859123;-0.974029302597046;0.1298301666975021
1768421452682083000;6.8900830078125;-0.2741546630859375;-1.2713165283203125;0.1126708984375;-0.0573383904993534;-0.998582363128662;-0.0117698404937982
1768421452692083200;6.900083251953125;-0.2202301025390625;-1.360931396484375;0.209686279296875;0.0007009439868852;-1.0755466222763062;-0.162448301911354
1768421452702083000;6.9100830078125;-0.2238006591796875;-1.392730712890625;0.2855987548828125;0.0864781662821769;-1.1689460277557373;-0.2675448954105377
1768421452712083200;6.920083251953125;-0.2468109130859375;-1.329742431640625;0.2615966796875;0.127818152308464;-1.2350773811340332;-0.3723778426647186
1768421452722083000;6.9300830078125;-0.2630615234375;-1.1680755615234375;0.1316986083984375;0.0999305918812751;-1.312349557876587;-0.456820547580719
1768421452732083200;6.940083251953125;-0.3060455322265625;-1.008941650390625;0.0149993896484375;0.0703644454479217;-1.3940268754959106;-0.476845383644104
1768421452742083000;6.9500830078125;-0.3340301513671875;-0.91448974609375;-0.061676025390625;0.0632194504141807;-1.3894957304000854;-0.4136059582233429
1768421452752082200;6.960082275390625;-0.2694091796875;-0.86456298828125;-0.1193695068359375;0.1010168939828872;-1.3270467519760132;-0.2540498673915863
1768421452762082000;6.97008203125;-0.118621826171875;-0.8754730224609375;-0.1663665771484375;0.1668933779001236;-1.2456011772155762;0.0456772074103355
1768421452772082200;6.980082275390625;0.03717041015625;-1.0139007568359375;-0.2078704833984375;0.2248091399669647;-1.1949201822280884;0.424060195684433
1768421452782082000;6.99008203125;0.2293853759765625;-1.253509521484375;-0.2086334228515625;0.1839450746774673;-1.0943880081176758;0.4487820565700531
1768421452792082200;7.000082275390625;0.3398590087890625;-1.444610595703125;-0.1819915771484375;0.1059804931282997;-0.8969388008117676;0.1276317238807678
1768421452802082000;7.01008203125;0.31512451171875;-1.509246826171875;-0.0991973876953125;0.1392897218465805;-0.6150234937667847;-0.1790089011192321
1768421452812082200;7.020082275390625;0.2458038330078125;-1.4724884033203125;-0.0029144287109375;0.3010322749614715;-0.5040149688720703;-0.3081346452236175
1768421452822082000;7.03008203125;0.129241943359375;-1.38995361328125;7.62939453125e-05;0.36054328083992;-0.6126183867454529;-0.3712840676307678
1768421452832082000;7.04008203125;0.0602264404296875;-1.25274658203125;-0.04364013671875;0.2972393929958343;-0.7957285642623901;-0.3056747019290924
1768421452842082000;7.05008203125;0.141510009765625;-1.028564453125;-0.032684326171875;0.2375829964876175;-1.1497327089309692;-0.1648315638303756
1768421452852082000;7.06008203125;0.219268798828125;-0.956573486328125;-0.031463623046875;0.1954493969678878;-1.5129410028457642;-0.0262710191309452
1768421452862082000;7.07008203125;0.2128448486328125;-0.9947967529296876;-0.019256591796875;0.1381932944059372;-1.6919690370559692;0.1511809974908828
1768421452872082000;7.08008203125;0.275604248046875;-1.034515380859375;0.05108642578125;0.1640320867300033;-1.8106088638305664;0.2937812805175781
1768421452882081000;7.0900810546875;0.3277587890625;-1.096160888671875;0.0982818603515625;0.2199515402317047;-1.8788843154907229;0.2993281185626983
1768421452892081000;7.100080810546875;0.33392333984375;-1.1540679931640625;0.0930938720703125;0.221121460199356;-1.8031160831451416;0.1626046299934387
1768421452902081000;7.1100810546875;0.3406524658203125;-1.1562957763671875;0.0882415771484375;0.1932570785284042;-1.640426516532898;0.0698768198490142
1768421452912081000;7.120080810546875;0.306182861328125;-1.1180572509765625;0.0751953125;0.177847757935524;-1.4595047235488892;0.1645327508449554
1768421452922081000;7.1300810546875;0.2762603759765625;-1.06292724609375;0.05169677734375;0.1836108416318893;-1.2651625871658323;0.3016836941242218
1768421452932081000;7.140080810546875;0.2382049560546875;-1.0360870361328125;0.01953125;0.1836206912994384;-1.070159077644348;0.3009180128574371
1768421452942081000;7.1500810546875;0.1714019775390625;-1.0289459228515625;-0.0237579345703125;0.1457854360342025;-0.8742790222167969;0.2128587365150451
1768421452952081000;7.160080810546875;0.09661865234375;-1.0179290771484375;-0.060089111328125;0.0992096737027168;-0.7059025168418884;0.1510531604290008
1768421452962081000;7.1700810546875;0.047454833984375;-0.9943695068359376;-0.0990142822265625;0.0442971587181091;-0.5829811096191406;0.1408098489046096
1768421452972081000;7.180080810546875;0.02520751953125;-0.96966552734375;-0.163055419921875;-0.0297158174216747;-0.487004816532135;0.1693687885999679
1768421452982081300;7.190081298828125;0.0186767578125;-0.9421844482421876;-0.216094970703125;-0.0964282676577568;-0.4097606241703033;0.2078977972269058
1768421452992081200;7.2000810546875;0.0239715576171875;-0.9010009765625;-0.2308807373046875;-0.1167881339788436;-0.342618852853775;0.2514492869377136
1768421453002080000;7.210080078125;0.0233306884765625;-0.87945556640625;-0.230987548828125;-0.1130237579345703;-0.2679488956928253;0.3313278555870056
1768421453012079900;7.220079833984375;0.0157012939453125;-0.8580780029296875;-0.2024383544921875;-0.07637520134449;-0.1795364767313003;0.430699735879898
1768421453022080000;7.230080078125;0.02911376953125;-0.8279876708984375;-0.157440185546875;-0.036879189312458;-0.1221450865268707;0.5026125311851501
1768421453032080100;7.240080078125;0.0512847900390625;-0.8160247802734375;-0.109466552734375;-0.0007835020078346;-0.0727551653981208;0.5306375026702881
1768421453042080300;7.250080322265625;0.0591583251953125;-0.818695068359375;-0.0587615966796875;0.0276121869683265;-0.0212195347994565;0.5264270305633545
1768421453052080000;7.260080078125;0.06915283203125;-0.815673828125;-0.0005035400390625;0.0347015224397182;0.0114177707582712;0.4987746477127075
1768421453062080300;7.270080322265625;0.081817626953125;-0.8065948486328125;0.0527801513671875;0.0191696994006633;0.0324916318058967;0.4666356146335602
1768421453072080100;7.280080078125;0.0896453857421875;-0.793243408203125;0.0937042236328125;0.0021283982787281;0.0323161296546459;0.4461782872676849
1768421453082080000;7.290080078125;0.09234619140625;-0.770111083984375;0.1331024169921875;-0.0024176177103072;0.0245474204421043;0.4301841259002685
1768421453092080000;7.300080078125;0.0955810546875;-0.7486572265625;0.155517578125;-0.0061013018712401;-0.0084408894181251;0.4089158773422241
1768421453102080000;7.310080078125;0.0917510986328125;-0.743377685546875;0.1511993408203125;-0.0172945670783519;-0.0553926862776279;0.3905664086341858
1768421453112080100;7.320080078125;0.0738067626953125;-0.75384521484375;0.1275177001953125;-0.0327164009213447;-0.0893932655453682;0.3902628123760223
1768421453122080000;7.330080078125;0.0485076904296875;-0.772705078125;0.0996551513671875;-0.0356275029480457;-0.0899586528539657;0.4028912484645843
1768421453132079000;7.3400791015625;0.0455169677734375;-0.809600830078125;0.0644073486328125;-0.0318335629999637;-0.0429061874747276;0.4009924232959747
1768421453142079200;7.350079345703125;0.060791015625;-0.8591156005859375;0.019439697265625;-0.0131805166602134;0.0484394393861293;0.3658746480941772
1768421453152079000;7.3600791015625;0.083648681640625;-0.9146728515625;-0.01220703125;0.0174077525734901;0.1536414921283722;0.2868869006633758
1768421453162079000;7.370078857421875;0.087646484375;-0.95513916015625;-0.0545196533203125;0.0533878579735755;0.2361816465854644;0.1724583208560943
1768421453172079000;7.3800791015625;0.0588226318359375;-0.953399658203125;-0.0930023193359375;0.0785677805542945;0.2906555235385895;0.0473062619566917
1768421453182079000;7.390078857421875;0.0149993896484375;-0.9250640869140624;-0.1122589111328125;0.0960618183016777;0.3142207860946655;-0.066849872469902
1768421453192079000;7.4000791015625;-0.036712646484375;-0.8912353515625;-0.1123504638671875;0.1178326234221458;0.336859256029129;-0.1346771270036697
1768421453202079000;7.410078857421875;-0.073760986328125;-0.8663177490234375;-0.101043701171875;0.1388644129037857;0.362113744020462;-0.1433395892381668
1768421453212079000;7.4200791015625;-0.077545166015625;-0.8665313720703125;-0.0829315185546875;0.1481361985206604;0.371264100074768;-0.1016882807016372
1768421453222079000;7.430078857421875;-0.045257568359375;-0.8816375732421875;-0.04736328125;0.1575531363487243;0.3558052480220794;-0.0313994660973548
1768421453232079000;7.4400791015625;-0.0031890869140625;-0.907196044921875;-0.0164031982421875;0.1585931032896042;0.3235341310501098;0.0456678867340087
1768421453242079000;7.450078857421875;0.03662109375;-0.94091796875;0.0040130615234375;0.1497652530670166;0.2647509574890136;0.1214992702007293
1768421453252079000;7.4600791015625;0.0797271728515625;-0.9771575927734376;0.033599853515625;0.1191959008574485;0.1843240410089492;0.2209869772195816
1768421453262078000;7.470077880859375;0.100067138671875;-1.03131103515625;0.0620269775390625;0.0387340784072876;0.1404902637004852;0.3406286835670471
1768421453272078000;7.480078125;0.113128662109375;-1.12994384765625;0.076904296875;-0.0528925098478794;0.1206539794802665;0.3578886389732361
1768421453282078000;7.490077880859375;0.1011810302734375;-1.2386016845703125;0.0592498779296875;-0.122801549732685;0.1753236204385757;0.2468886077404022
1768421453292078000;7.500078125;0.0464324951171875;-1.3124237060546875;-0.0291748046875;-0.163123145699501;0.2875665426254272;0.1199019029736518
1768421453302078000;7.510077880859375;-0.005126953125;-1.3188018798828125;-0.1687469482421875;-0.1609990000724792;0.4207104742527008;0.0754878297448158
1768421453312078000;7.520078125;-0.002197265625;-1.258056640625;-0.3012237548828125;-0.1356995105743408;0.4908291101455688;0.1055746302008628
1768421453322078000;7.530077880859375;0.0492706298828125;-1.14886474609375;-0.375762939453125;-0.1196023002266883;0.4925042390823364;0.2191491276025772
1768421453332078000;7.540078125;0.1082611083984375;-1.0249481201171875;-0.3496856689453125;-0.136372223496437;0.4712042808532715;0.4065262079238891
1768421453342078200;7.550078125;0.1528167724609375;-0.960601806640625;-0.2334747314453125;-0.1944451183080673;0.4612917304039001;0.6557155251502991
1768421453352078000;7.560078125;0.20989990234375;-0.9571990966796876;-0.050262451171875;-0.1836704909801483;0.4890024363994598;0.9056217670440674
1768421453362078200;7.570078125;0.303314208984375;-0.985748291015625;0.11260986328125;-0.0828658565878868;0.5241345763206482;1.0628905296325684
1768421453372078000;7.580078125;0.3999786376953125;-1.0189208984375;0.1812896728515625;0.0396800339221954;0.5354479551315308;1.0864427089691162
1768421453382077200;7.5900771484375;0.456390380859375;-1.051239013671875;0.1591339111328125;0.1436405181884765;0.5168710947036743;1.0101231336593628
1768421453392077300;7.600077392578125;0.4475860595703125;-1.065032958984375;0.0604248046875;0.2131687402725219;0.5908252000808716;0.8853529691696167
1768421453402077200;7.6100771484375;0.4306488037109375;-1.0491790771484375;-0.08526611328125;0.2570485770702362;0.5040631294250488;0.7402431964874268
1768421453412077300;7.620077392578125;0.421173095703125;-0.9698944091796876;-0.1693572998046875;0.2959815859794616;0.5585618019104004;0.6295806169509888
1768421453422077200;7.6300771484375;0.355865478515625;-0.889892578125;-0.279449462890625;0.314521461725235;0.5787903666496277;0.568756103515625
1768421453432077000;7.6400771484375;0.3032379150390625;-0.7953033447265625;-0.3127899169921875;0.3334980607032776;0.623066246509552;0.5914827585220337
1768421453442077200;7.6500771484375;0.243896484375;-0.7350616455078125;-0.3144378662109375;0.3370209038257599;0.6498928070068359;0.7075278759002686
1768421453452077000;7.6600771484375;0.2093353271484375;-0.7061309814453125;-0.2875518798828125;0.3260617256164551;0.6483747959136963;0.876061737537384
1768421453462077200;7.6700771484375;0.1965484619140625;-0.6986541748046875;-0.23419189453125;0.3187625408172607;0.6498134136199951;1.037900447845459
1768421453472077000;7.6800771484375;0.203399658203125;-0.70721435546875;-0.1694183349609375;0.3276990354061126;0.6477692127227783;1.1549005508422852
1768421453482077200;7.6900771484375;0.2261962890625;-0.7309417724609375;-0.117950439453125;0.3453275561332702;0.6154307126998901;1.2357333898544312
1768421453492077000;7.7000771484375;0.25213623046875;-0.769073486328125;-0.0792236328125;0.3531394302845001;0.5647464990615845;1.2804052829742432
1768421453502077400;7.710077392578125;0.277191162109375;-0.8003387451171875;-0.06048583984375;0.3591054379940033;0.5025501847267151;1.2933231592178345
1768421453512076000;7.720075927734375;0.296661376953125;-0.8208465576171875;-0.0538787841796875;0.3673886656761169;0.4380452632904053;1.2874597311019895
1768421453522076200;7.730076171875;0.307373046875;-0.836456298828125;-0.0565185546875;0.3788900673389435;0.3999223709106445;1.2949501276016235
1768421453532076000;7.740075927734375;0.3207550048828125;-0.8423919677734375;-0.06951904296875;0.3934831023216247;0.3841372728347778;1.3289618492126465
1768421453542076200;7.750076171875;0.3455047607421875;-0.837615966796875;-0.0960845947265625;0.402725338935852;0.3640282750129699;1.3530479669570925
1768421453552076300;7.760076171875;0.365081787109375;-0.8242034912109375;-0.1259765625;0.3904087543487549;0.3295672535896301;1.349690556526184
1768421453562076400;7.770076416015625;0.3694610595703125;-0.808135986328125;-0.1386260986328125;0.3727288246154785;0.2985430061817169;1.3382943868637085
1768421453572076300;7.780076171875;0.354888916015625;-0.7977142333984375;-0.139190673828125;0.3532760441303253;0.2686168253421783;1.3518365621566772
1768421453582076400;7.790076416015625;0.3360595703125;-0.793182373046875;-0.138671875;0.337277889251709;0.2269082516431808;1.3896979093551636
1768421453592076300;7.800076171875;0.321533203125;-0.7849273681640625;-0.1338958740234375;0.3257176578044891;0.1924283057451248;1.4437174797058103
1768421453602076400;7.810076416015625;0.2678070068359375;-0.7807464599609375;-0.1706390380859375;0.3038315176963806;0.177734836935997;1.5174928903579712
1768421453612076300;7.820076171875;0.34228515625;-0.766876220703125;-0.0932464599609375;0.3401740789413452;0.1967740505933761;1.5384212732315063
1768421453622076200;7.830076171875;0.31805419921875;-0.7664794921875;-0.1234893798828125;0.3546443581581116;0.1932006180286407;1.559267520904541
1768421453632076300;7.840076171875;0.3347930908203125;-0.767364501953125;-0.146209716796875;0.3826895952224731;0.1909766048192978;1.575000882148743
1768421453642075400;7.850075439453125;0.3470458984375;-0.7652587890625;-0.1517486572265625;0.3910204768180847;0.1711395233869552;1.5813943147659302
1768421453652075300;7.8600751953125;0.3434906005859375;-0.772918701171875;-0.15313720703125;0.3803673088550567;0.1489292979240417;1.6112127304077148
1768421453662075400;7.870075439453125;0.34228515625;-0.7843017578125;-0.1288299560546875;0.3604553937911987;0.1232345849275589;1.643476128578186
1768421453672075300;7.8800751953125;0.3665924072265625;-0.796875;-0.0999603271484375;0.3365668356418609;0.0637211874127388;1.654829740524292
1768421453682075100;7.8900751953125;0.376068115234375;-0.8003692626953125;-0.0718994140625;0.3145656585693359;-0.0352147109806537;1.6787408590316772
1768421453692075300;7.9000751953125;0.3404541015625;-0.775543212890625;-0.0558319091796875;0.2821419537067413;-0.1575776487588882;1.749887228012085
1768421453702075100;7.9100751953125;0.293853759765625;-0.706787109375;-0.0453643798828125;0.2574544250965118;-0.2506878674030304;1.8210666179656985
1768421453712075300;7.9200751953125;0.2062225341796875;-0.6474761962890625;-0.0475921630859375;0.2428563237190246;-0.3148365020751953;1.8550517559051511
1768421453722075100;7.9300751953125;0.193695068359375;-0.6314849853515625;0.0522613525390625;0.3067202568054199;-0.3870518505573272;1.8530490398406985
1768421453732075300;7.9400751953125;0.089569091796875;-0.6522979736328125;0.0680694580078125;0.3696504831314087;-0.4162834882736206;1.8965851068496704
1768421453742075100;7.9500751953125;0.021881103515625;-0.6987457275390625;0.0289306640625;0.4212532341480255;-0.4364905059337616;2.0100958347320557
1768421453752075300;7.9600751953125;0.0867919921875;-0.69769287109375;0.0607757568359375;0.4965485036373138;-0.4332411885261535;2.1167826652526855
1768421453762075100;7.9700751953125;0.1202545166015625;-0.6767578125;0.015899658203125;0.5539630651473999;-0.413927674293518;2.1675002574920654
1768421453772074200;7.98007421875;0.1639251708984375;-0.6302490234375;-0.05474853515625;0.5766990184783936;-0.3746007680892944;2.1612823009490967
1768421453782074000;7.99007421875;0.170318603515625;-0.557708740234375;-0.1306610107421875;0.5657193064689636;-0.2690839171409607;2.1614015102386475
