timestamp;seconds_elapsed;acc_z;acc_y;acc_x;gyro_z;gyro_y;gyro_x
1768418375202179600;14.1901796875;0.36761474609375;-1.916900634765625;-0.148712158203125;0.0470580570399761;0.4939122498035431;-0.0953709930181503
1768418375212180700;14.2001806640625;0.4688720703125;-1.1021270751953125;-0.2094879150390625;0.1435821950435638;0.0667207092046737;0.1271853893995285
1768418375222182400;14.210182373046877;0.6350250244140625;-0.7303009033203125;-0.1329193115234375;0.2862160503864288;-0.3914050459861755;0.1744375824928283
1768418375232183800;14.220183837890623;0.6335296630859375;-0.6524658203125;-0.067413330078125;0.362082839012146;-0.6178048849105835;0.1957849562168121
1768418375242184700;14.230184814453125;0.52227783203125;-0.7465362548828125;0.02069091796875;0.5462364554405212;-0.8539679050445557;0.2254261970520019
1768418375252186600;14.2401865234375;0.35296630859375;-1.0560150146484375;0.1241607666015625;0.6365506052970886;-0.9010014533996582;0.1843152493238449
1768418375262187800;14.250187744140623;0.181915283203125;-1.362945556640625;0.127593994140625;0.4379914700984955;-0.4887020289897918;0.1034323796629905
1768418375272188700;14.260188720703123;0.171478271484375;-1.4478912353515625;0.1003265380859375;0.1329918652772903;0.0254470370709896;0.192767858505249
1768418375282189600;14.270189453125;0.22918701171875;-1.342132568359375;0.0090179443359375;-0.0433860905468463;0.4795714020729065;0.4197205901145935
1768418375292191700;14.280191650390623;0.228851318359375;-1.2183074951171875;-0.140289306640625;-0.0816541165113449;0.7682716250419617;0.5909732580184937
1768418375302192600;14.290192626953123;0.2294464111328125;-1.1450347900390625;-0.2906341552734375;-0.1345210522413253;0.8603085875511169;0.5751485228538513
1768418375312193500;14.300193603515623;0.2386474609375;-1.1148223876953125;-0.3755340576171875;-0.2581282258033752;0.8604255318641663;0.4351365566253662
1768418375322195500;14.310195556640624;0.233917236328125;-1.062713623046875;-0.36407470703125;-0.3592439293861389;0.8216027617454529;0.2957112789154053
1768418375332196600;14.320196533203124;0.2078704833984375;-0.9699859619140624;-0.3164825439453125;-0.4281702637672424;0.7919186353683472;0.1889725774526596
1768418375342197800;14.33019775390625;0.1612091064453125;-0.8614959716796875;-0.27349853515625;-0.4639317095279693;0.7782291769981384;0.1423787176609039
1768418375352199700;14.34019970703125;0.106903076171875;-0.740325927734375;-0.214752197265625;-0.4612357914447784;0.8183193802833557;0.1688558608293533
1768418375362200800;14.350200927734376;0.0800323486328125;-0.623046875;-0.152008056640625;-0.4326571524143219;0.8270758390426636;0.2273511290550232
1768418375372201700;14.36020166015625;0.0921630859375;-0.5228729248046875;-0.07537841796875;-0.3788469135761261;0.8463435173034668;0.2694184184074402
1768418375382202600;14.37020263671875;0.116455078125;-0.448455810546875;-0.00640869140625;-0.3492967486381531;0.8929083943367004;0.291957288980484
1768418375392204500;14.38020458984375;0.1134185791015625;-0.397216796875;0.0302581787109375;-0.3523431420326233;0.9718101024627686;0.3102220594882965
1768418375402205700;14.390205810546876;0.1190185546875;-0.3828887939453125;0.0579681396484375;-0.36244797706604;1.016371726989746;0.3330325484275818
1768418375412206600;14.40020654296875;0.1118316650390625;-0.4007568359375;0.10015869140625;-0.3168812692165375;1.00788152217865;0.3641766309738159
1768418375422208500;14.41020849609375;0.13006591796875;-0.4492645263671875;0.1789398193359375;-0.2565164864063263;0.9440138936042786;0.4051600098609924
1768418375432209700;14.420209716796874;0.1448974609375;-0.530609130859375;0.2370758056640625;-0.1602392047643661;0.8398821949958801;0.4171263873577118
1768418375442210600;14.43021044921875;0.1767730712890625;-0.599700927734375;0.2734527587890625;-0.0619754865765571;0.6954144835472107;0.3810104727745056
1768418375452212500;14.44021240234375;0.1747283935546875;-0.6607666015625;0.2926788330078125;0.0323643311858177;0.5517792701721191;0.3055761754512787
1768418375462213600;14.450213623046874;0.1547088623046875;-0.7084197998046875;0.28900146484375;0.0790277048945427;0.3952051103115082;0.21208456158638
1768418375472214800;14.46021484375;0.1230621337890625;-0.7212066650390625;0.2795867919921875;0.0808474421501159;0.2571870684623718;0.1319873332977295
1768418375482215700;14.470215576171874;0.0783843994140625;-0.729644775390625;0.271148681640625;0.0598518811166286;0.1324912011623382;0.0949635282158851
1768418375492217600;14.480217529296874;0.046875;-0.74530029296875;0.2783660888671875;0.0506868809461593;-0.0016796556301414;0.1065999493002891
1768418375502218800;14.49021875;0.0278472900390625;-0.7433929443359375;0.2865753173828125;0.0630404874682426;-0.1145849004387855;0.1472512334585189
1768418375512219600;14.5002197265625;0.030242919921875;-0.75030517578125;0.26092529296875;0.0793856382369995;-0.1888716518878936;0.1842169761657714
1768418375522221600;14.5102216796875;0.04241943359375;-0.77337646484375;0.2166290283203125;0.0966783389449119;-0.1961559206247329;0.1994486600160598
1768418375532222500;14.520222412109376;0.041168212890625;-0.812347412109375;0.1640777587890625;0.1387381702661514;-0.0957590192556381;0.1867453753948211
1768418375542223600;14.5302236328125;0.0326080322265625;-0.877288818359375;0.093505859375;0.1866300702095031;0.102236621081829;0.1226284503936767
1768418375552225500;14.5402255859375;0.015655517578125;-0.9529571533203124;0.0120697021484375;0.2402717173099517;0.3039976954460144;0.0316932164132595
1768418375562226400;14.550226318359377;-0.0177459716796875;-1.019744873046875;-0.05810546875;0.2863553166389465;0.4106732904911041;-0.0183766111731529
1768418375572228000;14.56022802734375;-0.03717041015625;-1.081329345703125;-0.1138458251953125;0.2911314368247986;0.371799111366272;-0.073544256389141
1768418375582229200;14.570229248046877;-0.031646728515625;-1.138702392578125;-0.1362762451171875;0.2218053638935089;0.1616093963384628;-0.2099753320217132
1768418375592231200;14.580231201171877;-0.04718017578125;-1.18133544921875;-0.0933990478515625;0.0524064823985099;-0.0740550532937049;-0.3753967881202698
1768418375602232300;14.590232421875;-0.112335205078125;-1.1904754638671875;0.039520263671875;-0.159965693950653;-0.1843237727880478;-0.4331253170967102
1768418375612233200;14.600233154296877;-0.1728363037109375;-1.1895751953125;0.2044677734375;-0.3529005348682403;-0.1598674356937408;-0.4093531668186188
1768418375622235100;14.610235107421875;-0.2006683349609375;-1.2096710205078125;0.3171539306640625;-0.5097910761833191;-0.1357170790433883;-0.4228521883487701
1768418375632236300;14.620236328125;-0.192657470703125;-1.2366943359375;0.3898468017578125;-0.6044262647628784;-0.1489841490983963;-0.5202799439430237
1768418375642237200;14.6302373046875;-0.2535400390625;-1.229522705078125;0.3485260009765625;-0.6087197661399841;-0.0071756211109459;-0.6127150654792786
1768418375652239000;14.640239013671875;-0.2728729248046875;-1.1450958251953125;0.2451934814453125;-0.4883015155792236;0.2153019309043884;-0.5302859544754028
1768418375662240300;14.650240234375;-0.155242919921875;-1.0085906982421875;0.112945556640625;-0.2717873156070709;0.4011085331439972;-0.1792358011007309
1768418375672241200;14.6602412109375;0.175750732421875;-0.9195098876953124;-0.0067291259765625;-0.0962109565734863;0.3391724824905395;0.3471603691577911
1768418375682242000;14.670241943359375;0.7724609375;-1.0023956298828125;-0.0956268310546875;-0.1296956837177276;-0.1047543734312057;0.6787803769111633
1768418375692244000;14.680243896484376;1.190582275390625;-1.375640869140625;-0.0212249755859375;-0.3232022821903229;-0.6739293932914734;0.6360483765602112
1768418375702245000;14.6902451171875;1.135467529296875;-1.72430419921875;0.1354827880859375;-0.5769948959350586;-1.0400443077087402;0.3454508781433105
1768418375712246300;14.700246337890626;0.9631500244140624;-1.9060211181640625;0.1794891357421875;-0.7896288633346558;-1.09228515625;-0.0185209531337022
1768418375722248200;14.710248291015626;0.7657623291015625;-1.9201812744140625;0.1251373291015625;-0.8284971714019775;-0.9498973488807678;-0.4543707072734833
1768418375732249300;14.720249267578126;0.551666259765625;-1.795166015625;0.0204925537109375;-0.6765598058700562;-0.6876471042633057;-0.7946326732635498
1768418375742250200;14.730250244140626;0.46185302734375;-1.51251220703125;-0.0656280517578125;-0.3783092200756073;-0.4251526296138763;-0.8344096541404724
1768418375752251100;14.740251220703126;0.371826171875;-1.29547119140625;-0.229827880859375;-0.1379219144582748;-0.1477955877780914;-0.6718652248382568
1768418375762253300;14.75025341796875;0.2456207275390625;-1.197418212890625;-0.4149932861328125;-0.000672181835398;0.0122603941708803;-0.5067641139030457
1768418375772254200;14.760254150390624;0.15704345703125;-1.1660308837890625;-0.4859771728515625;0.0329140089452266;-0.0419844686985015;-0.3969737291336059
1768418375782255000;14.770255126953124;0.064300537109375;-1.18505859375;-0.4174041748046875;0.0302625652402639;-0.1993602365255355;-0.3193889260292053
1768418375792257000;14.780257080078124;0.0394287109375;-1.20587158203125;-0.2097015380859375;0.1063986122608184;-0.2624910175800323;-0.2690868675708771
1768418375802258200;14.790258056640624;0.089874267578125;-1.202972412109375;0.027618408203125;0.2354404777288437;-0.2564704120159149;-0.2183866649866104
1768418375812259000;14.800259033203124;0.1597442626953125;-1.18280029296875;0.18035888671875;0.3071937561035156;-0.3255453407764435;-0.1307375133037567
1768418375822261000;14.810260986328124;0.2160186767578125;-1.15496826171875;0.2555694580078125;0.2889916002750397;-0.4912022054195404;-0.0221417881548404
1768418375832262400;14.820262451171876;0.239990234375;-1.1161346435546875;0.2478485107421875;0.2190657705068588;-0.6502051949501038;0.045832734555006
1768418375842263300;14.83026318359375;0.2370452880859375;-1.0383453369140625;0.18450927734375;0.1556665599346161;-0.7437977194786072;0.0647784620523452
1768418375852265200;14.84026513671875;0.2201690673828125;-0.9211578369140624;0.1204986572265625;0.1603982001543045;-0.7554911375045776;0.0435259044170379
1768418375862266000;14.85026611328125;0.194366455078125;-0.7979583740234375;0.051849365234375;0.1842207014560699;-0.716235876083374;0.0101727424189448
1768418375872267300;14.860267333984376;0.1640472412109375;-0.6730804443359375;-0.0350494384765625;0.2020481675863266;-0.6520313024520874;0.008823319338262
1768418375882268200;14.87026806640625;0.132049560546875;-0.5518951416015625;-0.1067657470703125;0.2079223096370697;-0.5884256958961487;0.0489052236080169
1768418375892270000;14.88027001953125;0.114044189453125;-0.4386444091796875;-0.1527099609375;0.2143021672964096;-0.5549343228340149;0.1007053032517433
1768418375902271200;14.890271240234377;0.103485107421875;-0.3496551513671875;-0.186492919921875;0.2304574400186538;-0.5182940363883972;0.1505048125982284
1768418375912272100;14.900272216796877;0.07598876953125;-0.28363037109375;-0.21197509765625;0.2842929661273956;-0.4400961697101593;0.2065308094024658
1768418375922274000;14.910274169921877;0.0556793212890625;-0.255828857421875;-0.213470458984375;0.3610767126083374;-0.3821510970592499;0.2614470422267914
1768418375932275000;14.92027490234375;0.0446319580078125;-0.2788543701171875;-0.2187957763671875;0.4053168594837188;-0.3210826814174652;0.3046163618564605
1768418375942276400;14.9302763671875;0.0281829833984375;-0.3394622802734375;-0.232452392578125;0.4077081084251404;-0.2244224548339843;0.3138394057750702
1768418375952277200;14.94027734375;0.0191802978515625;-0.4221038818359375;-0.24383544921875;0.3873668909072876;-0.1093507260084152;0.2863140404224396
1768418375962279200;14.950279052734375;0.041107177734375;-0.5257415771484375;-0.2561187744140625;0.3365409970283508;-0.0791382268071174;0.2118020057678222
1768418375972280300;14.9602802734375;0.058135986328125;-0.6265106201171875;-0.242919921875;0.2698474526405334;-0.104130133986473;0.1129971221089363
1768418375982281200;14.97028125;0.05047607421875;-0.711029052734375;-0.181488037109375;0.2082392275333404;-0.1166941225528717;0.0365689285099506
1768418375992283100;14.980283203125;0.0184478759765625;-0.765838623046875;-0.1252899169921875;0.1588189452886581;-0.1141891553997993;-0.0163414217531681
1768418376002284000;14.990283935546875;-0.024200439453125;-0.7914276123046875;-0.0989990234375;0.0999553576111793;-0.1135217696428299;-0.0507958009839057
1768418376012285200;15.00028515625;-0.0572052001953125;-0.800933837890625;-0.1004638671875;0.0118321580812335;-0.120890736579895;-0.0782189071178436
1768418376022287000;15.010287109375;-0.091827392578125;-0.7972259521484375;-0.0958251953125;-0.0683047547936439;-0.1247328743338584;-0.0841140747070312
1768418376032288000;15.0202880859375;-0.1323699951171875;-0.798828125;-0.082489013671875;-0.1176491379737854;-0.1229341775178909;-0.067562535405159
1768418376042289200;15.0302890625;-0.14996337890625;-0.8355865478515625;-0.074554443359375;-0.1385168731212616;-0.1448570489883422;-0.0746132507920265
1768418376052291000;15.040291015625;-0.1270599365234375;-0.917999267578125;-0.0648956298828125;-0.1567451357841491;-0.2399630695581436;-0.1480496525764465
1768418376062292200;15.050292236328126;-0.0864715576171875;-1.03204345703125;-0.0377655029296875;-0.2069718241691589;-0.4204699993133545;-0.2865523993968963
1768418376072293400;15.06029345703125;-0.0582733154296875;-1.144775390625;0.0093841552734375;-0.3151648640632629;-0.5824780464172363;-0.4218891859054565
1768418376082294300;15.070294189453126;-0.0268402099609375;-1.2292327880859375;0.05078125;-0.4339493215084076;-0.637636125087738;-0.5052961707115173
1768418376092296200;15.080296142578124;0.0455169677734375;-1.2677764892578125;0.0908203125;-0.5180578231811523;-0.631061315536499;-0.5466103553771973
1768418376102297000;15.090297119140626;0.0929718017578125;-1.2725677490234375;0.120758056640625;-0.605054497718811;-0.6093448400497437;-0.5454620122909546
1768418376112298200;15.10029833984375;0.0387725830078125;-1.2177734375;0.1327667236328125;-0.6540747284889221;-0.6707884669303894;-0.5334623456001282
1768418376122300200;15.110300048828124;-0.181365966796875;-1.1674346923828125;0.15325927734375;-0.5680285692214966;-0.897289514541626;-0.5163496732711792
1768418376132301000;15.120301025390624;-0.516815185546875;-1.178070068359375;0.13189697265625;-0.3384856283664703;-0.8397862911224365;-0.3723304271697998
1768418376142302200;15.13030224609375;-0.6784210205078125;-1.2615509033203125;0.103240966796875;-0.0257570277899503;-0.4575739502906799;-0.1741587519645691
1768418376152304000;15.14030419921875;-0.6046295166015625;-1.3827972412109375;0.10748291015625;0.3181816935539245;-0.0699812173843383;-0.0079862875863909
1768418376162305000;15.150304931640624;-0.483489990234375;-1.3409271240234375;0.0998992919921875;0.6488831639289856;0.1335005313158035;0.1877264827489853
1768418376172306200;15.16030615234375;-0.2977142333984375;-1.108428955078125;0.0298309326171875;0.8300529718399048;0.1436501145362854;0.4112514555454254
1768418376182307300;15.170307373046874;-0.0035400390625;-0.943603515625;-0.0381927490234375;0.8813784718513489;-0.0809294730424881;0.5738773941993713
1768418376192309200;15.180309326171876;0.3607940673828125;-1.087158203125;-0.1324310302734375;0.8899538516998291;0.0054006241261959;0.4887020289897918
1768418376202310100;15.19031005859375;0.58673095703125;-1.4874267578125;-0.3065032958984375;0.792223334312439;0.2596254348754883;0.2683259844779968
1768418376212311300;15.200311279296876;0.5446929931640625;-1.794952392578125;-0.3465423583984375;0.5732829570770264;0.3356901109218597;0.1848569363355636
1768418376222313200;15.210313232421877;0.4797515869140625;-1.78875732421875;-0.378173828125;0.3783701956272125;0.3809079229831695;0.1073070168495178
1768418376232314000;15.220314208984377;0.501708984375;-1.6936492919921875;-0.4025726318359375;0.3798557221889496;0.4715491533279419;0.0303752161562442
1768418376242315000;15.23031494140625;0.483154296875;-1.5868988037109375;-0.32269287109375;0.4262953996658325;0.5421165227890015;-0.0489243976771831
1768418376252317200;15.240317138671877;0.5319061279296875;-1.3944091796875;-0.231597900390625;0.3769305050373077;0.4584583938121795;-0.1497234553098678
1768418376262318000;15.250318115234377;0.5643768310546875;-1.187225341796875;-0.135162353515625;0.2857289612293243;0.2272637784481048;-0.2035371512174606
1768418376272319000;15.260319091796877;0.5331268310546875;-1.0227508544921875;-0.01080322265625;0.2247686684131622;-0.0529830567538738;-0.1240103617310524
1768418376282320400;15.2703203125;0.4683837890625;-0.96063232421875;0.11346435546875;0.2428259551525116;-0.3069996237754822;0.0157009325921535
1768418376292322000;15.280322021484375;0.3566741943359375;-1.0386199951171875;0.2169189453125;0.294758141040802;-0.411578506231308;0.1280620992183685
1768418376302323200;15.2903232421875;0.2647552490234375;-1.169525146484375;0.2416839599609375;0.2546722292900085;-0.2982743084430694;0.1730159819126129
1768418376312324400;15.300324462890623;0.2528228759765625;-1.2429351806640625;0.20025634765625;0.0990347042679786;-0.080495111644268;0.1873073130846023
1768418376322326300;15.310326171875;0.2784423828125;-1.2204437255859375;0.1172637939453125;-0.0546536594629287;0.1441316157579422;0.230073407292366
1768418376332327200;15.3203271484375;0.2812042236328125;-1.1451416015625;-0.01971435546875;-0.1505684703588485;0.3620253205299377;0.33088418841362
1768418376342328000;15.330328125;0.267669677734375;-1.071868896484375;-0.1651763916015625;-0.2168833166360855;0.4563685953617096;0.4227669537067413
1768418376352330200;15.340330322265626;0.2683868408203125;-1.0317230224609375;-0.26068115234375;-0.3024943470954895;0.4045759737491607;0.4082120060920715
1768418376362331100;15.3503310546875;0.253662109375;-0.999603271484375;-0.2956390380859375;-0.3686390221118927;0.3392584919929504;0.3158120214939117
1768418376372332000;15.36033203125;0.204498291015625;-0.937286376953125;-0.28033447265625;-0.4007716476917267;0.3677819967269897;0.2155234962701797
1768418376382333200;15.370333251953124;0.1403961181640625;-0.8457489013671875;-0.251068115234375;-0.3950027227401733;0.4495501220226288;0.1649255752563476
1768418376392335000;15.380335205078126;0.086456298828125;-0.735870361328125;-0.208526611328125;-0.3666485846042633;0.5341864228248596;0.1758186966180801
1768418376402336000;15.3903359375;0.0590667724609375;-0.6333770751953125;-0.1639251708984375;-0.3363164961338043;0.6114566922187805;0.2161496132612228
1768418376412337200;15.400337158203126;0.05645751953125;-0.5392608642578125;-0.122528076171875;-0.3062717914581299;0.6968488693237305;0.2551148533821106
1768418376422339300;15.41033935546875;0.069549560546875;-0.4568023681640625;-0.0814056396484375;-0.2746278345584869;0.7895761132240295;0.2848722040653229
1768418376432340200;15.42034033203125;0.0917510986328125;-0.39697265625;-0.050140380859375;-0.2641035616397857;0.863593339920044;0.3121400475502014
1768418376442341000;15.430341064453126;0.1178131103515625;-0.3709259033203125;-0.02459716796875;-0.2650527060031891;0.931366801261902;0.3284620344638824
1768418376452343300;15.44034326171875;0.13763427734375;-0.379486083984375;0.026611328125;-0.2445700615644455;0.9825490713119508;0.3443520665168762
1768418376462344200;15.45034423828125;0.1561431884765625;-0.42791748046875;0.1019287109375;-0.1789979785680771;0.9620048999786376;0.3465787172317505
1768418376472345000;15.460344970703124;0.1661376953125;-0.4928741455078125;0.17718505859375;-0.0640964284539222;0.9043394327163696;0.3258966207504272
1768418376482346000;15.470345947265624;0.1795806884765625;-0.552032470703125;0.2237091064453125;0.0424864739179611;0.8035728931427002;0.2796335220336914
1768418376492348200;15.48034814453125;0.1772613525390625;-0.60919189453125;0.2575836181640625;0.0989324375987052;0.6733770966529846;0.2277905493974685
1768418376502349000;15.49034912109375;0.14495849609375;-0.654815673828125;0.29693603515625;0.1361266821622848;0.540961503982544;0.1856761276721954
1768418376512350200;15.50035009765625;0.10272216796875;-0.6899566650390625;0.32391357421875;0.161278635263443;0.4167535603046417;0.1644046604633331
1768418376522352000;15.51035205078125;0.0653228759765625;-0.71197509765625;0.327728271484375;0.1723621785640716;0.2975169122219085;0.1600983291864395
1768418376532353300;15.520353271484376;0.0509490966796875;-0.739349365234375;0.305938720703125;0.1810116022825241;0.1733579337596893;0.1684886068105697
1768418376542354200;15.530354248046876;0.0561370849609375;-0.7652130126953125;0.2748870849609375;0.1899978965520858;0.0400944240391254;0.1847072690725326
1768418376552356400;15.5403564453125;0.0679168701171875;-0.790863037109375;0.244598388671875;0.2050668597221374;-0.0762391090393066;0.1844681054353714
1768418376562357200;15.550357177734377;0.063446044921875;-0.8348541259765625;0.2105865478515625;0.2177682816982269;-0.1224790439009666;0.1487130373716354
1768418376572357600;15.560357666015625;0.0367889404296875;-0.896575927734375;0.178680419921875;0.2446451634168625;-0.073203906416893;0.085139662027359
1768418376582358800;15.57035888671875;-0.0040130615234375;-0.9610748291015624;0.1378936767578125;0.2875159382820129;0.062195997685194;-0.0042208437807857
1768418376592360700;15.580360595703125;-0.0406494140625;-1.0248260498046875;0.0850372314453125;0.3317249417304992;0.2159243077039718;-0.0973832756280899
1768418376602361600;15.590361572265625;-0.0421295166015625;-1.0812530517578125;0.01971435546875;0.3514389991760254;0.2996636629104614;-0.177895963191986
1768418376612362800;15.60036279296875;0.0098724365234375;-1.1205596923828125;-0.0434722900390625;0.336749792098999;0.2805967628955841;-0.2546072602272033
1768418376622364700;15.61036474609375;0.0809478759765625;-1.1343994140625;-0.077606201171875;0.2732536494731903;0.1213637143373489;-0.3332706391811371
1768418376632365800;15.62036572265625;0.0915374755859375;-1.126953125;-0.0713958740234375;0.1390502899885177;-0.1108151972293853;-0.4197131097316742
1768418376642366700;15.63036669921875;0.0090179443359375;-1.10321044921875;-0.01739501953125;-0.0310705676674842;-0.2572091519832611;-0.4719758033752441
1768418376652369000;15.640368896484375;-0.1190185546875;-1.092376708984375;0.0958709716796875;-0.2154558598995208;-0.3268377780914306;-0.5021914839744568
1768418376662369800;15.650369873046875;-0.2461090087890625;-1.1384429931640625;0.1868896484375;-0.4421212375164032;-0.2998607456684112;-0.5086520314216614
1768418376672370700;15.66037060546875;-0.3411407470703125;-1.244384765625;0.2041473388671875;-0.7266467213630676;-0.123270533978939;-0.5062301754951477
1768418376682371800;15.670371826171875;-0.324615478515625;-1.346923828125;0.21868896484375;-0.9485700130462646;-0.2332332581281662;-0.4693158268928528
1768418376692373800;15.680373779296875;-0.254180908203125;-1.28948974609375;0.205810546875;-0.8365774750709534;-0.1432157456874847;-0.2210730016231537
1768418376702374700;15.690374755859375;-0.0825347900390625;-1.032623291015625;0.136260986328125;-0.4803863167762756;-0.0112212290987372;0.2561827898025512
1768418376712375600;15.70037548828125;0.3300933837890625;-0.9021759033203124;0.0428619384765625;-0.2569252550601959;-0.033765684813261;0.758899986743927
1768418376722377700;15.710377685546876;0.888031005859375;-1.106231689453125;-0.0387115478515625;-0.2848727405071258;-0.4128213822841644;0.851563572883606
1768418376732378600;15.720378662109376;1.0959625244140625;-1.5317840576171875;0.0397796630859375;-0.4597662687301636;-0.881737232208252;0.5345547795295715
1768418376742379800;15.7303798828125;0.9141387939453124;-1.85565185546875;0.164215087890625;-0.617306649684906;-1.1116503477096558;0.1376899480819702
1768418376752381700;15.740381591796876;0.79998779296875;-1.9803009033203125;0.273651123046875;-0.6668747067451477;-1.1708675622940063;-0.2083587944507599
1768418376762382800;15.7503828125;0.7311553955078125;-1.85284423828125;0.3268890380859375;-0.5420957803726196;-1.112032771110535;-0.5364514589309692
1768418376772383700;15.7603837890625;0.6224822998046875;-1.5721588134765625;0.2478179931640625;-0.3222289085388183;-0.8453613519668579;-0.7568216323852539
1768418376782386000;15.770385986328124;0.52581787109375;-1.2863922119140625;0.0771484375;-0.0828259065747261;-0.5680133700370789;-0.7854628562927246
1768418376792386800;15.78038671875;0.41668701171875;-1.0952301025390625;-0.139373779296875;0.0358520075678825;-0.4198310971260071;-0.6482000946998596
1768418376802387700;15.7903876953125;0.2640838623046875;-1.0236663818359375;-0.3507080078125;0.0212512258440256;-0.389317125082016;-0.4435683786869049
1768418376812388600;15.800388671875;0.139892578125;-1.0527496337890625;-0.452667236328125;-0.0530850552022457;-0.4135364592075348;-0.2643272578716278
1768418376822390800;15.810390869140624;0.0620574951171875;-1.15673828125;-0.4125213623046875;-0.0685244649648666;-0.4197794198989868;-0.1882708370685577
1768418376832391700;15.8203916015625;0.0577239990234375;-1.27276611328125;-0.253143310546875;0.031257789582014;-0.3746239244937897;-0.2090155333280563
1768418376842392600;15.830392578125;0.11773681640625;-1.340728759765625;-0.078033447265625;0.1843304336071014;-0.3849724531173706;-0.2659712135791778
1768418376852394800;15.840394775390624;0.1799163818359375;-1.33599853515625;0.0557861328125;0.2910946905612945;-0.4649849832057953;-0.2765106856822967
1768418376862395600;15.850395751953124;0.2098236083984375;-1.274810791015625;0.1383819580078125;0.3195383250713348;-0.562923789024353;-0.2435924261808395
1768418376872396800;15.860396728515624;0.2236785888671875;-1.1893768310546875;0.1587982177734375;0.2746390104293823;-0.6623222827911377;-0.2375446408987045
1768418376882397700;15.870397705078124;0.207489013671875;-1.069122314453125;0.128204345703125;0.2245753109455108;-0.7043786644935608;-0.2478047460317611
1768418376892399900;15.88039990234375;0.17498779296875;-0.9205780029296876;0.092437744140625;0.2245465517044067;-0.6647295355796814;-0.253665566444397
1768418376902400800;15.89040087890625;0.1737518310546875;-0.7725677490234375;0.0615386962890625;0.2705776989459991;-0.6173492074012756;-0.2521707415580749
1768418376912401700;15.900401611328125;0.169342041015625;-0.63604736328125;0.0275421142578125;0.292816698551178;-0.5977070927619934;-0.2163533419370651
1768418376922403800;15.91040380859375;0.1467437744140625;-0.5271759033203125;-0.0083160400390625;0.2913697957992553;-0.5871870517730713;-0.1511796712875366
1768418376932404700;15.92040478515625;0.1044464111328125;-0.4429779052734375;-0.0463409423828125;0.273345798254013;-0.5555101037025452;-0.0721831172704696
1768418376942405600;15.930405517578125;0.08489990234375;-0.3903961181640625;-0.0908660888671875;0.2702591717243194;-0.6069315075874329;-0.0116036590188741
1768418376952407800;15.94040771484375;0.097015380859375;-0.359344482421875;-0.0997467041015625;0.3113134205341339;-0.6553488373756409;0.0232858806848526
1768418376962408700;15.95040869140625;0.0694580078125;-0.337127685546875;-0.116485595703125;0.373097687959671;-0.6368052363395691;0.0554350279271602
1768418376972409600;15.96040966796875;0.0439910888671875;-0.362701416015625;-0.1583709716796875;0.3852656781673431;-0.6029908061027527;0.0895565152168273
1768418376982411800;15.970411865234375;0.030670166015625;-0.4380340576171875;-0.2341766357421875;0.3289419412612915;-0.5472177863121033;0.1186510175466537
1768418376992413000;15.980412841796875;0.0274505615234375;-0.505645751953125;-0.26019287109375;0.2826207876205444;-0.4935426115989685;0.1212622448801994
1768418377002413800;15.990413818359375;0.0362396240234375;-0.5657806396484375;-0.2559967041015625;0.2377212196588516;-0.4271654486656189;0.0687572285532951
1768418377012414700;16.000414794921873;0.0125579833984375;-0.6292266845703125;-0.2645416259765625;0.2005440145730972;-0.3381575345993042;-0.0066752131097018
1768418377022417000;16.0104169921875;-0.003387451171875;-0.6903228759765625;-0.2506256103515625;0.1637676209211349;-0.2991177439689636;-0.0686009004712104
1768418377032417800;16.020417724609374;-0.026641845703125;-0.7431640625;-0.2160186767578125;0.1005124896764755;-0.2806931734085083;-0.097596600651741
1768418377042418700;16.030418701171875;-0.069580078125;-0.7715606689453125;-0.165069580078125;0.0298564322292804;-0.257886677980423;-0.087344229221344
1768418377052420900;16.0404208984375;-0.1048583984375;-0.7847747802734375;-0.1166839599609375;-0.0267621055245399;-0.2384881973266601;-0.0644365102052688
1768418377062421800;16.050421875;-0.132049560546875;-0.78948974609375;-0.0859527587890625;-0.0727122873067855;-0.2011576145887375;-0.0395881570875644
1768418377072422700;16.060422607421874;-0.16473388671875;-0.79669189453125;-0.0791168212890625;-0.109044462442398;-0.1747896522283554;-0.0388659052550792
1768418377082424600;16.070424560546876;-0.17694091796875;-0.826416015625;-0.0690155029296875;-0.1298682540655136;-0.1978680789470672;-0.0905229747295379
1768418377092425700;16.08042578125;-0.1617584228515625;-0.8753662109375;-0.046112060546875;-0.1527261584997177;-0.281382143497467;-0.1910807341337204
1768418377102427000;16.090427001953124;-0.1423187255859375;-0.9426422119140624;-0.01141357421875;-0.1771175265312194;-0.3858273327350616;-0.2982037365436554
1768418377112427800;16.100427734375;-0.1053619384765625;-1.0196990966796875;0.0272369384765625;-0.1919787526130676;-0.4432152509689331;-0.3934346437454223
1768418377122430000;16.110429931640624;-0.0266876220703125;-1.1014556884765625;0.0437469482421875;-0.1767729073762893;-0.4177588820457458;-0.4423870146274566
1768418377132430800;16.120430908203126;0.05389404296875;-1.16986083984375;0.0259246826171875;-0.1414671093225479;-0.3411807715892792;-0.4195051193237304
1768418377142431700;16.130431640625;0.081695556640625;-1.1887054443359375;-0.0132293701171875;-0.1761398762464523;-0.2881199419498443;-0.3567892909049988
1768418377152433700;16.14043359375;0.0272674560546875;-1.165618896484375;-0.03228759765625;-0.2990413010120392;-0.4099622070789337;-0.3933640718460083
1768418377162434800;16.150434814453124;-0.149139404296875;-1.166168212890625;6.103515625e-05;-0.3862529098987579;-0.6966003775596619;-0.4968012571334839
1768418377172435700;16.160435791015626;-0.4198455810546875;-1.2332763671875;0.07403564453125;-0.3005813956260681;-0.8832453489303589;-0.526302695274353
1768418377182437600;16.170437744140624;-0.6259613037109375;-1.347808837890625;0.14154052734375;-0.0646708682179451;-0.6775103211402893;-0.461084246635437
1768418377192438800;16.180438720703126;-0.674560546875;-1.4468994140625;0.136260986328125;0.2505555152893066;-0.0330905765295028;-0.3267852962017059
1768418377202439700;16.190439697265624;-0.51898193359375;-1.371917724609375;0.074310302734375;0.5355545282363892;0.3251101672649383;-0.1730149239301681
1768418377212440800;16.20044091796875;-0.2960205078125;-1.1134796142578125;-0.0062103271484375;0.6437779068946838;0.1218587905168533;0.0430984683334827
1768418377222442800;16.21044287109375;-0.118377685546875;-0.90142822265625;-0.018768310546875;0.695099949836731;-0.1452466696500778;0.2806031703948974
1768418377232444000;16.22044384765625;0.1790313720703125;-0.9370269775390624;0.0134429931640625;0.7501504421234131;-0.3065743148326874;0.3677694797515869
1768418377242444800;16.23044482421875;0.5039520263671875;-1.221282958984375;-0.0567779541015625;0.7572208642959595;-0.2066573053598404;0.258702665567398
1768418377252446700;16.24044677734375;0.5709381103515625;-1.5628662109375;-0.20977783203125;0.5853974223136902;0.0552163831889629;0.1649671196937561
1768418377262447900;16.25044775390625;0.482208251953125;-1.7626495361328125;-0.286651611328125;0.2877193987369537;0.1961889564990997;0.1760253608226776
1768418377272448800;16.26044873046875;0.5050506591796875;-1.7932891845703125;-0.3161163330078125;0.1944096982479095;0.2840120196342468;0.0945139899849891
1768418377282450700;16.27045068359375;0.4932098388671875;-1.815093994140625;-0.269287109375;0.1733270436525344;0.3362288773059845;-0.0529471039772033
1768418377292451800;16.280451904296875;0.43133544921875;-1.5187225341796875;-0.1677398681640625;0.1096721664071083;0.1862692087888717;-0.0758004859089851
1768418377302452700;16.29045263671875;0.481201171875;-1.0459136962890625;-0.0704498291015625;0.0878779217600822;-0.1300802379846573;-0.0670528039336204
1768418377312453600;16.30045361328125;0.54132080078125;-0.81939697265625;0.0586700439453125;0.1367192268371582;-0.4171005487442016;0.0177590232342481
1768418377322455600;16.31045556640625;0.4897918701171875;-0.760711669921875;0.1597900390625;0.2953813076019287;-0.6355159878730774;0.1604424118995666
1768418377332456700;16.320456787109375;0.3737335205078125;-0.9163055419921876;0.2231292724609375;0.5081705451011658;-0.8314623236656189;0.2566458880901336
1768418377342457900;16.330457763671873;0.21661376953125;-1.200927734375;0.19549560546875;0.4760530889034271;-0.653548538684845;0.2399132549762725
1768418377352459800;16.340459716796875;0.153076171875;-1.3524322509765625;0.1054229736328125;0.2092054188251495;-0.2677329182624817;0.2814460694789886
1768418377362461000;16.3504609375;0.19482421875;-1.323486328125;0.0209503173828125;-0.0325129367411136;0.0946037396788597;0.4454855918884277
1768418377372461800;16.3604619140625;0.203094482421875;-1.2396087646484375;-0.101654052734375;-0.1411898881196975;0.3743467032909393;0.6368486285209656
1768418377382463700;16.370463623046874;0.194488525390625;-1.1990509033203125;-0.24005126953125;-0.2120757699012756;0.4982098042964935;0.7060138583183289
1768418377392464600;16.380464599609375;0.208953857421875;-1.1946563720703125;-0.3173370361328125;-0.3081650137901306;0.4926752150058746;0.6201487183570862
1768418377402465800;16.3904658203125;0.23101806640625;-1.168243408203125;-0.299957275390625;-0.3868875205516815;0.4314209222793579;0.4586498737335205
1768418377412466700;16.400466796875;0.2222747802734375;-1.0942535400390625;-0.2272186279296875;-0.4139569699764251;0.4024901986122131;0.297408789396286
1768418377422468600;16.410468505859374;0.179046630859375;-0.9918060302734376;-0.153472900390625;-0.4022244215011596;0.398539662361145;0.1829780787229538
1768418377432469800;16.4204697265625;0.127655029296875;-0.85687255859375;-0.080535888671875;-0.3797041773796081;0.3935701847076416;0.1465513557195663
1768418377442471000;16.430470947265626;0.0833892822265625;-0.7287139892578125;-0.0213165283203125;-0.3426183462142944;0.3810008764266968;0.169757604598999
1768418377452472600;16.44047265625;0.0511474609375;-0.6035919189453125;0.0136566162109375;-0.2889897227287292;0.4033240377902984;0.2179453819990158
1768418377462474000;16.450473876953126;0.0443878173828125;-0.4948272705078125;0.019744873046875;-0.2612691521644592;0.4281942248344421;0.2775463759899139
1768418377472475000;16.460474853515624;0.0652923583984375;-0.4217987060546875;0.028228759765625;-0.2440723180770874;0.4563273191452026;0.3312072157859802
1768418377482476800;16.470476806640626;0.070220947265625;-0.38311767578125;0.0333251953125;-0.2325456291437149;0.5285306572914124;0.3787992298603058
1768418377492477700;16.480477783203124;0.0766754150390625;-0.3842315673828125;0.0293426513671875;-0.2080911546945572;0.576964259147644;0.4280301630496979
1768418377502478800;16.490478759765626;0.0992584228515625;-0.409271240234375;0.0468597412109375;-0.1416234374046325;0.592064619064331;0.475645899772644
1768418377512479700;16.500479736328124;0.125244140625;-0.4552459716796875;0.086181640625;-0.0683431029319763;0.5711987614631653;0.4976036548614502
1768418377522481700;16.510481689453126;0.148468017578125;-0.5087738037109375;0.1338653564453125;-0.002192314248532;0.5221830606460571;0.4874570071697235
1768418377532482800;16.52048291015625;0.1553497314453125;-0.55352783203125;0.1764984130859375;0.075407937169075;0.444901555776596;0.4479863047599792
1768418377542483700;16.530483642578126;0.1378936767578125;-0.596923828125;0.212493896484375;0.1449374854564666;0.3622215986251831;0.3833577632904053
1768418377552485600;16.540485595703124;0.1077423095703125;-0.633880615234375;0.2295074462890625;0.1963521987199783;0.2683750092983246;0.3205013275146484
1768418377562486500;16.550486572265626;0.089935302734375;-0.6696624755859375;0.243896484375;0.2209377139806747;0.1690156459808349;0.2786862254142761
1768418377572488000;16.560488037109376;0.0604095458984375;-0.6942901611328125;0.2583160400390625;0.2487672120332718;0.0797201320528984;0.2744342088699341
1768418377582489900;16.57048974609375;0.034698486328125;-0.719207763671875;0.2527618408203125;0.2672407627105713;-0.0230408702045679;0.290941834449768
1768418377592491000;16.580490966796877;0.0308837890625;-0.7550506591796875;0.2348175048828125;0.2652540504932403;-0.1080766692757606;0.2923213541507721
1768418377602492000;16.590491943359375;0.0493011474609375;-0.8048095703125;0.217132568359375;0.2408863753080368;-0.165102407336235;0.2542178928852081
1768418377612492800;16.600492919921876;0.0661163330078125;-0.8675537109375;0.19140625;0.2018806636333465;-0.1527685075998306;0.1766123175621032
1768418377622495000;16.610494873046875;0.0787353515625;-0.937469482421875;0.1561126708984375;0.1827040314674377;-0.0506200343370437;0.0795946940779686
1768418377632495900;16.620495849609377;0.06549072265625;-1.0077667236328125;0.0975494384765625;0.1942474991083145;0.0761216655373573;0.0021046961192041
1768418377642496800;16.630496826171875;0.039642333984375;-1.069091796875;0.02215576171875;0.2119889557361602;0.1791098266839981;-0.0545066520571708
1768418377652499000;16.6404990234375;0.0299530029296875;-1.1088714599609375;-0.0549774169921875;0.229002296924591;0.1862585544586181;-0.1130714267492294
1768418377662499800;16.650499755859375;0.048828125;-1.119842529296875;-0.1058349609375;0.239652007818222;0.0598137974739074;-0.1773106008768081
1768418377672500700;16.660500732421873;0.0585174560546875;-1.1072845458984375;-0.1101531982421875;0.2103519141674041;-0.1272932440042495;-0.2525211870670318
1768418377682503000;16.6705029296875;0.00634765625;-1.089324951171875;-0.04217529296875;0.1279467791318893;-0.1727728396654129;-0.3137249052524566
1768418377692503800;16.68050390625;-0.1069488525390625;-1.0936737060546875;0.070098876953125;0.0387178361415863;-0.1030094698071479;-0.3913525938987732
1768418377702505000;16.6905048828125;-0.2120361328125;-1.16455078125;0.1235198974609375;-0.1204233467578888;0.0167246516793966;-0.4997373819351196
1768418377712507000;16.7005068359375;-0.317138671875;-1.299224853515625;0.11102294921875;-0.3736505508422851;0.2258001118898391;-0.5765733122825623
1768418377722508000;16.710508056640624;-0.4022216796875;-1.4199676513671875;0.060394287109375;-0.699586033821106;0.2874570786952972;-0.5925746560096741
1768418377732509000;16.720509033203125;-0.3663787841796875;-1.39593505859375;0.077667236328125;-0.8480636477470398;0.0656304061412811;-0.4426362812519073
1768418377742509800;16.730509765625;-0.2837677001953125;-1.130462646484375;0.1302642822265625;-0.6369178891181946;0.1361224204301834;-0.0630769729614257
1768418377752512000;16.740511962890626;-0.0199432373046875;-0.8974151611328125;0.151397705078125;-0.3742556273937225;0.1688606590032577;0.4434541463851928
1768418377762513000;16.750512939453124;0.431640625;-0.924041748046875;0.1394500732421875;-0.2969898581504822;0.0074448669329285;0.8341172337532043
1768418377772513800;16.760513671875;0.9297637939453124;-1.1992034912109375;0.2178802490234375;-0.3257277607917785;-0.2972343564033508;0.8315944075584412
1768418377782515700;16.770515625;1.1774444580078125;-1.563812255859375;0.30279541015625;-0.3920596539974212;-0.6992233395576477;0.5018226504325867
1768418377792516900;16.780516845703126;1.1349639892578125;-1.8178863525390625;0.3144073486328125;-0.4683174192905426;-0.9052252173423768;0.1012499183416366
1768418377802518000;16.79051806640625;0.9884490966796876;-1.9010009765625;0.23797607421875;-0.5252238512039185;-0.909763514995575;-0.3419080674648285
1768418377812519700;16.800519775390626;0.7424163818359375;-1.8166351318359375;0.077117919921875;-0.5644436478614807;-0.8607707023620605;-0.760843813419342
1768418377822521000;16.81052099609375;0.4761810302734375;-1.5562286376953125;-0.02899169921875;-0.4328262507915497;-0.7569335103034973;-0.9154885411262512
1768418377832522000;16.82052197265625;0.3449249267578125;-1.1984100341796875;-0.1028594970703125;-0.2536676824092865;-0.572494387626648;-0.7467138767242432
1768418377842523000;16.83052294921875;0.272735595703125;-1.0002288818359375;-0.2720794677734375;-0.1588527709245681;-0.4010827243328094;-0.4806465208530426
1768418377852524800;16.84052490234375;0.1927032470703125;-0.9542236328125;-0.4254302978515625;-0.0986597314476966;-0.3223098814487457;-0.2559572160243988
1768418377862526000;16.85052587890625;0.105987548828125;-1.03668212890625;-0.45599365234375;-0.0566297248005867;-0.3628754019737243;-0.115762285888195
1768418377872526800;16.86052685546875;0.06134033203125;-1.1952972412109375;-0.3627471923828125;0.0106230834499001;-0.3944176137447357;-0.1023367568850517
1768418377882528800;16.87052880859375;0.105499267578125;-1.3199005126953125;-0.1772918701171875;0.1415025293827057;-0.3765134513378143;-0.1856071501970291
1768418377892530000;16.880530029296875;0.1801910400390625;-1.3746185302734375;0.0112152099609375;0.2853888571262359;-0.3647982180118561;-0.2461077719926834
1768418377902530800;16.89053076171875;0.2355499267578125;-1.357086181640625;0.139801025390625;0.35060515999794;-0.415198266506195;-0.2322167307138443
1768418377912532700;16.90053271484375;0.266998291015625;-1.2832183837890625;0.181427001953125;0.2888200879096985;-0.5231881141662598;-0.1550537645816803
1768418377922534000;16.910533935546876;0.2698822021484375;-1.1777191162109375;0.162078857421875;0.1841812878847122;-0.6556041836738586;-0.0897197648882865
1768418377932535000;16.92053515625;0.2373504638671875;-1.0382537841796875;0.119903564453125;0.130194753408432;-0.6852552890777588;-0.0660831481218338
1768418377942536000;16.930535888671876;0.1887054443359375;-0.8987579345703125;0.0513153076171875;0.11630130559206;-0.6847572922706604;-0.060334712266922
1768418377952537900;16.940537841796875;0.1821441650390625;-0.7491302490234375;-0.0034332275390625;0.1421922892332077;-0.6982531547546387;-0.0705865547060966
1768418377962539000;16.9505390625;0.158416748046875;-0.6246490478515625;-0.052398681640625;0.1505221277475357;-0.696964681148529;-0.0616367310285568
1768418377972540000;16.960539794921875;0.145751953125;-0.5287933349609375;-0.075714111328125;0.1503231972455978;-0.6641713380813599;-0.0307981260120868
1768418377982541800;16.970541748046877;0.1167755126953125;-0.4484100341796875;-0.1093292236328125;0.193419799208641;-0.6130048036575317;0.0086725838482379
1768418377992543000;16.98054296875;0.1122283935546875;-0.36993408203125;-0.1102447509765625;0.2554424107074737;-0.594821572303772;0.0414180122315883
1768418378002543900;16.9905439453125;0.0789337158203125;-0.331085205078125;-0.1349639892578125;0.2925690114498138;-0.5333232879638672;0.0930455178022384
1768418378012545800;17.0005458984375;0.052947998046875;-0.3267364501953125;-0.16180419921875;0.3165824711322784;-0.4858774840831756;0.1372143179178238
1768418378022546700;17.010546630859373;0.0482025146484375;-0.344451904296875;-0.19683837890625;0.33573779463768;-0.470006912946701;0.1336856186389923
1768418378032547800;17.0205478515625;0.05303955078125;-0.4080352783203125;-0.226226806640625;0.313287079334259;-0.3649268448352813;0.1337117254734039
1768418378042549000;17.030549072265625;0.036468505859375;-0.4848785400390625;-0.2169647216796875;0.288186252117157;-0.296396255493164;0.1253187656402588
1768418378052551000;17.040551025390624;0.0252838134765625;-0.556304931640625;-0.215850830078125;0.2592613995075226;-0.2239366918802261;0.0763022303581237
1768418378062552000;17.050552001953125;0.0143890380859375;-0.63629150390625;-0.2117462158203125;0.230066493153572;-0.1891297101974487;0.0227415319532156
1768418378072553000;17.060552978515624;0.00738525390625;-0.7078704833984375;-0.177825927734375;0.1849120557308197;-0.1943548321723938;-0.0013494236627593
1768418378082555000;17.070554931640626;-0.0139923095703125;-0.7590789794921875;-0.1249542236328125;0.1376430839300155;-0.1930498778820037;-0.0209319125860929
1768418378092555800;17.0805556640625;-0.0625152587890625;-0.7802886962890625;-0.1058807373046875;0.0751008763909339;-0.1904546320438385;-0.0288702640682458
1768418378102557000;17.090556884765626;-0.0997772216796875;-0.7923583984375;-0.10845947265625;0.0070866714231669;-0.2065041661262512;-0.0434044636785984
1768418378112558800;17.100558837890624;-0.127716064453125;-0.816558837890625;-0.1239776611328125;-0.079164057970047;-0.2147730141878128;-0.0688347220420837
1768418378122559700;17.110559814453126;-0.1567535400390625;-0.8498992919921875;-0.1357269287109375;-0.1444104462862014;-0.2182548344135284;-0.1353362500667572
1768418378132561000;17.120560791015624;-0.1599884033203125;-0.902252197265625;-0.109222412109375;-0.1954270154237747;-0.2239915579557418;-0.2285351753234863
1768418378142561800;17.130561767578126;-0.1547698974609375;-0.969207763671875;-0.0742645263671875;-0.2470491975545883;-0.2642428278923034;-0.3496339023113251
1768418378152563700;17.140563720703124;-0.1210784912109375;-1.0243072509765625;-0.02783203125;-0.2944768965244293;-0.3113757371902466;-0.4807186722755432
1768418378162565000;17.150565185546874;-0.0699310302734375;-1.0578155517578125;0.0122833251953125;-0.3006519675254822;-0.268648236989975;-0.5531044602394104
1768418378172566000;17.16056591796875;0.0044708251953125;-1.08697509765625;0.030242919921875;-0.2433711141347885;-0.2154715657234192;-0.532575249671936
1768418378182568000;17.17056787109375;0.04534912109375;-1.0971832275390625;0.0181121826171875;-0.2051829844713211;-0.1555618941783905;-0.3753634989261627
1768418378192568800;17.18056884765625;0.0386962890625;-1.067291259765625;-0.0131378173828125;-0.2800084948539734;-0.1498805731534958;-0.250635951757431
1768418378202570000;17.190570068359374;-0.037811279296875;-1.0574798583984375;-0.013946533203125;-0.4089874923229217;-0.3550752699375152;-0.2853358685970306
1768418378212572000;17.200572021484376;-0.2420196533203125;-1.1202545166015625;0.05047607421875;-0.4339317381381988;-0.6302794218063354;-0.3324341475963592
1768418378222572800;17.21057275390625;-0.486083984375;-1.264739990234375;0.1260223388671875;-0.3005286753177643;-0.6584934592247009;-0.2826769649982452
1768418378232574000;17.220573974609376;-0.5934600830078125;-1.4534149169921875;0.1787872314453125;-0.0313632488250732;-0.3376741707324981;-0.1694572120904922
1768418378242574800;17.230574951171874;-0.50018310546875;-1.533203125;0.1901397705078125;0.3548797965049743;0.0983281657099723;-0.0236502010375261
1768418378252576800;17.24057666015625;-0.262847900390625;-1.383819580078125;0.12750244140625;0.7162166833877563;0.210513025522232;0.1125995144248008
1768418378262577700;17.25057763671875;-0.0040283203125;-1.2139129638671875;0.0267333984375;0.8686022162437439;-0.0133472308516502;0.2566339075565338
1768418378272579000;17.2605791015625;0.2725830078125;-1.212738037109375;-0.0368194580078125;0.8185843229293823;-0.4548652470111847;0.2842285335063934
1768418378282580700;17.270580810546875;0.5943145751953125;-1.3754730224609375;0.0289459228515625;0.7423926591873169;-1.0184175968170166;0.0850264802575111
1768418378292582000;17.280581787109377;0.4278564453125;-1.6280517578125;-0.2345428466796875;0.4770840108394623;-0.0845500379800796;-0.2206245213747024
1768418378302583000;17.2905830078125;0.356109619140625;-1.742645263671875;-0.296905517578125;0.1059274971485138;0.0033553165849298;-0.3506927788257599
1768418378312585000;17.3005849609375;0.247894287109375;-1.534515380859375;-0.25848388671875;-0.0443730577826499;0.0218536332249641;-0.2649315297603607
1768418378322585900;17.3105859375;0.240936279296875;-1.4097442626953125;-0.261932373046875;-0.0182045698165893;0.0930234193801879;-0.1142544001340866
1768418378332586800;17.320586669921877;0.3488616943359375;-1.267578125;-0.178955078125;0.0493771359324455;0.0485757924616336;0.0068331388756632
1768418378342588000;17.330587890625;0.4858856201171875;-1.0552215576171875;-0.1253204345703125;0.1020976081490516;-0.1897891014814376;0.0344027131795883
1768418378352589800;17.34058984375;0.5333251953125;-0.9445953369140624;-0.0590057373046875;0.1297209709882736;-0.4245182573795318;0.1341325044631958
1768418378362590700;17.3505908203125;0.5034332275390625;-0.9093475341796876;0.040679931640625;0.2160433530807495;-0.6150884628295898;0.3029899597167969
1768418378372591900;17.360591796875;0.4377593994140625;-1.0340728759765625;0.1668243408203125;0.3680387437343597;-0.8011182546615601;0.3616998791694641
1768418378382593800;17.37059375;0.3550262451171875;-1.2823638916015625;0.2027740478515625;0.3511787950992584;-0.6581030488014221;0.2557513415813446
1768418378392594700;17.3805947265625;0.31219482421875;-1.402587890625;0.11676025390625;0.1474400609731674;-0.2898707091808319;0.1817202568054199
1768418378402595800;17.390595947265624;0.3076019287109375;-1.33740234375;0.034332275390625;-0.0300274081528186;0.0297120884060859;0.2356162518262863
1768418378412598000;17.400597900390625;0.248779296875;-1.203125;-0.044097900390625;-0.1019948050379753;0.2853739559650421;0.3489188551902771
1768418378422599000;17.410598876953124;0.18621826171875;-1.0920867919921875;-0.139007568359375;-0.1426048129796981;0.4735337495803833;0.4061917066574096
1768418378432599800;17.420599853515625;0.172149658203125;-1.0474090576171875;-0.2054443359375;-0.2071004509925842;0.5611991286277771;0.3778314590454101
1768418378442601000;17.43060107421875;0.180145263671875;-1.02313232421875;-0.2147064208984375;-0.270661324262619;0.559775710105896;0.3057766854763031
1768418378452603000;17.440602783203126;0.168731689453125;-0.9855499267578124;-0.20068359375;-0.3363162279129028;0.5084099769592285;0.2347970604896545
1768418378462603800;17.450603759765624;0.146514892578125;-0.93316650390625;-0.17144775390625;-0.3754580318927765;0.4296451210975647;0.1905489116907119
1768418378472605000;17.46060498046875;0.1290283203125;-0.84393310546875;-0.1247100830078125;-0.3448660373687744;0.3902266025543213;0.1839575916528701
1768418378482606800;17.47060693359375;0.0974273681640625;-0.7232818603515625;-0.0942535400390625;-0.2929882109165191;0.4206846356391907;0.2165248543024063
1768418378492607700;17.480607666015626;0.06988525390625;-0.60638427734375;-0.0513763427734375;-0.2391590476036071;0.4756632149219513;0.2621456086635589
1768418378502609000;17.49060888671875;0.04840087890625;-0.517608642578125;-0.01861572265625;-0.2152734249830246;0.5622673630714417;0.2977738976478576
1768418378512610800;17.50061083984375;0.0611114501953125;-0.45843505859375;0.0054168701171875;-0.2215584963560104;0.6041148900985718;0.3156543672084808
1768418378522612000;17.510612060546876;0.0915679931640625;-0.4210662841796875;0.06280517578125;-0.2041832208633422;0.6384143233299255;0.3175281584262848
1768418378532612900;17.52061279296875;0.096649169921875;-0.408355712890625;0.0981903076171875;-0.1870362013578415;0.6722657680511475;0.3435690701007843
1768418378542614000;17.530614013671876;0.1165313720703125;-0.4300079345703125;0.1150054931640625;-0.15522500872612;0.6333862543106079;0.3780381083488464
1768418378552616000;17.540615966796874;0.1517486572265625;-0.4672088623046875;0.1486663818359375;-0.0952812433242797;0.5821377038955688;0.4039932787418365
1768418378562616800;17.550616943359376;0.15838623046875;-0.5032196044921875;0.1819000244140625;-0.0037667751312255;0.5183643102645874;0.4204614758491516
1768418378572617700;17.56061767578125;0.15924072265625;-0.556610107421875;0.1972503662109375;0.0741176381707191;0.4204742610454559;0.4098889827728271
1768418378582620200;17.5706201171875;0.1386871337890625;-0.6125640869140625;0.2042083740234375;0.1294679790735244;0.3289483189582824;0.3705426454544067
1768418378592621000;17.58062109375;0.104583740234375;-0.66668701171875;0.210113525390625;0.1678467988967895;0.2313136458396911;0.3167438507080078
1768418378602622200;17.590622314453125;0.071868896484375;-0.7182159423828125;0.2074432373046875;0.1729440838098526;0.1624847799539566;0.2687891125679016
1768418378612624100;17.6006240234375;0.0284881591796875;-0.763031005859375;0.1970672607421875;0.1636344641447067;0.1209373399615287;0.2411558926105499
1768418378622625000;17.610625;0.0149383544921875;-0.8013153076171875;0.2078094482421875;0.1558926552534103;0.0383141003549099;0.2095851898193359
1768418378632626200;17.620626220703127;0.0147247314453125;-0.82733154296875;0.22735595703125;0.1436583697795868;-0.0337182804942131;0.1688715815544128
1768418378642627300;17.63062744140625;0.018096923828125;-0.8517303466796875;0.240447998046875;0.1282514482736587;-0.0621794834733009;0.1176579222083091
1768418378652629200;17.640629150390627;0.0197601318359375;-0.8926544189453125;0.2390594482421875;0.0988727807998657;-0.0202259086072444;0.0245468877255916
1768418378662630100;17.650630126953125;0.0299530029296875;-0.955078125;0.2144012451171875;0.0695537775754928;0.0868853628635406;-0.097543865442276
1768418378672631300;17.66063134765625;0.0278472900390625;-1.022003173828125;0.1698150634765625;0.0456899888813495;0.190113753080368;-0.2091606706380844
1768418378682633200;17.67063330078125;0.0054473876953125;-1.0682525634765625;0.10650634765625;0.0176138803362846;0.2573561668395996;-0.3120127618312835
1768418378692634000;17.680634033203123;-0.0088653564453125;-1.0860748291015625;0.03802490234375;0.0071862740442156;0.292106419801712;-0.393424779176712
1768418378702635000;17.690635009765625;0.004119873046875;-1.0795745849609375;-0.0193328857421875;0.0291429720818996;0.2197997421026229;-0.4184638261795044
1768418378712637200;17.70063720703125;0.0135955810546875;-1.057769775390625;-0.0452728271484375;0.0205798428505659;0.014502509497106;-0.4138264656066894
1768418378722638000;17.71063818359375;-0.05828857421875;-1.043731689453125;-0.0158233642578125;-0.0598633326590061;-0.1472533643245697;-0.3733930289745331
1768418378732639000;17.720638916015623;-0.1816253662109375;-1.0381317138671875;0.0927581787109375;-0.1643228977918625;-0.1908876597881317;-0.2838567495346069
1768418378742640400;17.730640380859374;-0.250244140625;-1.0742034912109375;0.22314453125;-0.3105387091636657;-0.1723621785640716;-0.216886505484581
1768418378752642000;17.74064208984375;-0.2518463134765625;-1.15985107421875;0.316680908203125;-0.4931844174861908;-0.1540558785200119;-0.2454627603292465
1768418378762643200;17.750643310546874;-0.2301177978515625;-1.25079345703125;0.36181640625;-0.6512664556503296;-0.072311483323574;-0.323487788438797
1768418378772644400;17.760644287109375;-0.1892852783203125;-1.2750396728515625;0.3264312744140625;-0.6456077694892883;0.1107962876558303;-0.3481784760951996
1768418378782646300;17.770646240234374;-0.0740814208984375;-1.1693572998046875;0.2144775390625;-0.4111300110816955;0.3329838216304779;-0.1379152536392212
1768418378792647200;17.780647216796876;0.180999755859375;-1.0225067138671875;0.0638275146484375;-0.1482714861631393;0.3622932434082031;0.2271865457296371
1768418378802648000;17.79064794921875;0.6519775390625;-1.03277587890625;-0.0795135498046875;-0.1081379204988479;0.1292301565408706;0.3476021885871887
1768418378812649200;17.800649169921876;0.9900054931640624;-1.3314361572265625;-0.0944061279296875;-0.2385715544223785;-0.1081570982933044;0.1572902947664261
1768418378822651100;17.810651123046874;0.94879150390625;-1.6568603515625;-0.0035552978515625;-0.3780434429645538;-0.2516327798366546;-0.1629228740930557
1768418378832652000;17.820652099609376;0.7760009765625;-1.8303375244140625;-0.0062408447265625;-0.5445263981819153;-0.2667946815490722;-0.4298222064971924
1768418378842653200;17.830653076171874;0.609039306640625;-1.85772705078125;-0.114959716796875;-0.7139996290206909;-0.2648918628692627;-0.5992786288261414
1768418378852655000;17.840655029296876;0.4842987060546875;-1.71875;-0.2243499755859375;-0.7224732637405396;-0.2248104810714721;-0.715787410736084
1768418378862656000;17.850656005859374;0.4314117431640625;-1.4267578125;-0.2200927734375;-0.5550576448440552;-0.0688933134078979;-0.6842097640037537
1768418378872657200;17.8606572265625;0.35308837890625;-1.2158660888671875;-0.275146484375;-0.3929070830345154;0.1265566051006317;-0.5049774050712585
1768418378882659000;17.8706591796875;0.2338104248046875;-1.138275146484375;-0.3831024169921875;-0.2697976529598236;0.2658761441707611;-0.2504298090934753
1768418378892660200;17.88066015625;0.1221466064453125;-1.1294403076171875;-0.427459716796875;-0.196095734834671;0.2944188416004181;-0.0051889028400182
1768418378902661000;17.8906611328125;0.0539703369140625;-1.1972198486328125;-0.3694305419921875;-0.137309655547142;0.2682591378688812;0.1581384986639022
1768418378912662300;17.900662353515624;0.09527587890625;-1.3011322021484375;-0.1939544677734375;-0.0162775069475173;0.2573985159397125;0.1875408738851547
1768418378922664200;17.910664306640626;0.1911773681640625;-1.3772430419921875;-0.0066680908203125;0.1317401826381683;0.2100893259048462;0.1188938990235328
1768418378932665000;17.9206650390625;0.2560882568359375;-1.4049072265625;0.11395263671875;0.2345853447914123;0.1056936755776405;0.0305810794234275
1768418378942666000;17.930666015625;0.2866363525390625;-1.3684539794921875;0.170745849609375;0.2718813121318817;-0.0274329558014869;-0.035439483821392
1768418378952668200;17.940668212890625;0.276458740234375;-1.2815399169921875;0.1419219970703125;0.2221854031085968;-0.1122626289725303;-0.082916185259819
1768418378962669000;17.9506689453125;0.2283477783203125;-1.142303466796875;0.052032470703125;0.136412963271141;-0.1185769811272621;-0.111323595046997
1768418378972670000;17.960669921875;0.1871337890625;-0.968963623046875;-0.01824951171875;0.1031021475791931;-0.1043852642178535;-0.1260338276624679
1768418378982672100;17.970672119140627;0.1709136962890625;-0.788970947265625;-0.0460052490234375;0.1096476688981056;-0.124755248427391;-0.127656489610672
1768418378992673300;17.98067333984375;0.1422271728515625;-0.6223297119140625;-0.0742645263671875;0.1368443965911865;-0.0687777325510978;-0.1011620387434959
1768418379002674200;17.990674072265627;0.093719482421875;-0.480255126953125;-0.1134033203125;0.1878354102373123;-0.0021012341603636;-0.0512757040560245
1768418379012675300;18.00067529296875;0.061065673828125;-0.3823699951171875;-0.1638946533203125;0.1806288957595825;0.0217838585376739;0.0214895792305469
1768418379022677200;18.01067724609375;0.0375213623046875;-0.3267669677734375;-0.184661865234375;0.1478397995233535;0.0183537062257528;0.0887104272842407
1768418379032678100;18.02067822265625;0.0428619384765625;-0.30047607421875;-0.148895263671875;0.1292485296726226;-0.0570062957704067;0.1350193321704864
1768418379042679000;18.030678955078123;0.0514984130859375;-0.3025665283203125;-0.086151123046875;0.1436927169561386;-0.137099802494049;0.1595523804426193
1768418379052681200;18.04068115234375;0.06494140625;-0.3261260986328125;-0.0417938232421875;0.2033445984125137;-0.1380787789821624;0.1447973996400833
1768418379062682000;18.05068212890625;0.0316162109375;-0.3631744384765625;-0.0602874755859375;0.2454411834478378;0.0185289438813924;0.1259360909461975
1768418379072683000;18.06068310546875;-0.0042266845703125;-0.43682861328125;-0.1135406494140625;0.2405686676502227;0.0822085887193679;0.1316602975130081
1768418379082685200;18.070685302734375;-0.011322021484375;-0.4978485107421875;-0.139373779296875;0.218509703874588;0.1077901124954223;0.1194443702697753
1768418379092686000;18.08068603515625;-0.035858154296875;-0.5721588134765625;-0.1576690673828125;0.2068559825420379;0.1717025190591812;0.0753815695643425
1768418379102687200;18.090687255859375;-0.04827880859375;-0.6554718017578125;-0.15447998046875;0.161912739276886;0.209073856472969;0.0288542844355106
1768418379112688000;18.100688232421874;-0.057861328125;-0.7116241455078125;-0.1331634521484375;0.099387839436531;0.2396165877580642;-0.0108260158449411
1768418379122690300;18.110690185546876;-0.0882110595703125;-0.7374267578125;-0.109893798828125;0.0374602898955345;0.2260946482419967;-0.0316679142415523
1768418379132691200;18.120691162109377;-0.11529541015625;-0.74200439453125;-0.0865325927734375;-0.0201697163283824;0.1825168132781982;-0.0352381467819213
1768418379142692000;18.130692138671876;-0.1374359130859375;-0.7444610595703125;-0.080963134765625;-0.0679375082254409;0.1257523298263549;-0.0354024656116962
1768418379152694300;18.1406943359375;-0.1344146728515625;-0.759979248046875;-0.085601806640625;-0.1100223734974861;0.0281397588551044;-0.0735722184181213
1768418379162695200;18.150695068359376;-0.0854339599609375;-0.8110809326171875;-0.0784759521484375;-0.1585204005241394;-0.1041042953729629;-0.1819474250078201
1768418379172696000;18.16069604492187;-0.040191650390625;-0.882293701171875;-0.0474395751953125;-0.2210895121097564;-0.2701249718666076;-0.3013824820518493
1768418379182698200;18.1706982421875;-0.0265655517578125;-0.9728240966796876;0.0060272216796875;-0.3008011281490326;-0.4833464324474334;-0.3574851751327514
1768418379192699100;18.18069921875;-0.0152435302734375;-1.0705108642578125;0.0812835693359375;-0.4128448367118835;-0.7735154032707214;-0.345944881439209
1768418379202700000;18.190699951171876;-0.0279388427734375;-1.169403076171875;0.171112060546875;-0.5674940347671509;-0.995612621307373;-0.2836934924125671
1768418379212701200;18.200701171875;-0.062408447265625;-1.2352447509765625;0.2762451171875;-0.735073447227478;-1.0678921937942505;-0.237079918384552
1768418379222703000;18.210703125;-0.086822509765625;-1.268524169921875;0.3834991455078125;-0.7988615036010742;-1.133593201637268;-0.3145912289619446
1768418379232704300;18.22070434570313;-0.21368408203125;-1.3323974609375;0.4347686767578125;-0.6671351790428162;-1.1970077753067017;-0.47658571600914
1768418379242705200;18.230705078125;-0.4241943359375;-1.4589080810546875;0.4033966064453125;-0.3262023329734802;-0.9182885885238647;-0.5962620377540588
1768418379252707300;18.240707275390623;-0.5545654296875;-1.5713043212890625;0.2821197509765625;0.1120442450046539;-0.3579360246658325;-0.5301626920700073
1768418379262708200;18.250708251953125;-0.542236328125;-1.556854248046875;0.09149169921875;0.4742735624313354;-0.0608966387808322;-0.3622791171073913
1768418379272709000;18.260709228515623;-0.4342803955078125;-1.3891754150390625;-0.1268310546875;0.6174437999725342;-0.1544910371303558;-0.2030788213014602
1768418379282710000;18.2707099609375;-0.2972564697265625;-1.1293182373046875;-0.2432861328125;0.6540470719337463;-0.2933194935321808;-0.0283102001994848
1768418379292712200;18.280712158203126;-0.108734130859375;-0.958892822265625;-0.2637939453125;0.6524811387062073;-0.2856458723545074;0.1832971274852752
1768418379302713000;18.290713134765625;0.1436309814453125;-1.023468017578125;-0.3444671630859375;0.6949129700660706;0.1447079181671142;0.3680523335933685
1768418379312714000;18.3007138671875;0.34539794921875;-1.344146728515625;-0.4673309326171875;0.6592357158660889;0.5268899202346802;0.4559443593025207
1768418379322716200;18.310716064453125;0.326507568359375;-1.667236328125;-0.499176025390625;0.4936158359050751;0.8550235629081726;0.4759886562824249
1768418379332717000;18.320717041015627;0.299835205078125;-1.7075958251953125;-0.5435028076171875;0.3308199942111969;0.9427555799484252;0.3340626657009125
1768418379342718200;18.33071826171875;0.36175537109375;-1.6668548583984375;-0.5642852783203125;0.2296491712331771;0.750985860824585;0.0955172032117843
1768418379352720400;18.340720458984375;0.33697509765625;-1.5961151123046875;-0.404144287109375;0.196017175912857;0.6903685927391052;-0.0495550371706485
1768418379362721300;18.35072119140625;0.4003448486328125;-1.38336181640625;-0.2522735595703125;0.1439909934997558;0.5379364490509033;-0.1074742600321769
1768418379372722200;18.36072216796875;0.4917755126953125;-1.1950836181640625;-0.1595001220703125;0.0629597902297973;0.3896707892417907;-0.0700467303395271
1768418379382723000;18.37072314453125;0.488067626953125;-1.0255279541015625;-0.0319366455078125;0.0451863855123519;0.2805048823356628;0.1064643934369087
1768418379392725200;18.380725341796875;0.4402618408203125;-0.9531402587890624;0.1071319580078125;0.1416857689619064;0.1825378537178039;0.3171600997447967
1768418379402726100;18.39072607421875;0.3603515625;-1.00677490234375;0.2021026611328125;0.2636976838111877;0.1038901805877685;0.4796470403671264
1768418379412727000;18.40072705078125;0.3328094482421875;-1.1365203857421875;0.2082061767578125;0.2594411671161651;0.1926054060459137;0.466496855020523
1768418379422729200;18.410729248046874;0.3884735107421875;-1.260162353515625;0.12628173828125;0.140334740281105;0.4320182502269745;0.3658693432807922
1768418379432730000;18.420730224609375;0.43115234375;-1.2795867919921875;0.01953125;0.0202972814440727;0.6250969171524048;0.3414795696735382
1768418379442731300;18.430731201171874;0.4167938232421875;-1.223724365234375;-0.095703125;-0.0652178823947906;0.7063009142875671;0.385545015335083
1768418379452733200;18.440733154296876;0.368865966796875;-1.1630096435546875;-0.1808929443359375;-0.1492547243833542;0.6586735248565674;0.3776309192180633
1768418379462734300;18.450734375;0.3118438720703125;-1.113189697265625;-0.2227325439453125;-0.2692093551158905;0.6205884218215942;0.2979643046855926
1768418379472735200;18.4607353515625;0.246826171875;-1.0474090576171875;-0.213470458984375;-0.3834200799465179;0.6242976784706116;0.2037778943777084
1768418379482736000;18.470736083984377;0.191802978515625;-0.9555206298828124;-0.180633544921875;-0.4421478509902954;0.6479167342185974;0.1526736915111541
1768418379492738300;18.48073828125;0.1403350830078125;-0.86737060546875;-0.1574249267578125;-0.4553906917572021;0.6780272126197815;0.1477777361869812
1768418379502739200;18.4907392578125;0.0983734130859375;-0.7729949951171875;-0.132415771484375;-0.4383539259433746;0.7215027809143066;0.1923665106296539
1768418379512740000;18.500739990234376;0.083770751953125;-0.6694488525390625;-0.12249755859375;-0.3999876081943512;0.8132694959640503;0.2559660077095032
1768418379522742300;18.5107421875;0.0900115966796875;-0.5807952880859375;-0.1040496826171875;-0.3538669943809509;0.9345849752426147;0.2991406321525574
1768418379532743200;18.5207431640625;0.094268798828125;-0.5148773193359375;-0.0866851806640625;-0.3105434775352478;1.0813922882080078;0.3033641278743744
1768418379542744000;18.530744140625;0.1010589599609375;-0.4665374755859375;-0.0760955810546875;-0.2906198501586914;1.2015516757965088;0.2966471016407013
1768418379552745200;18.5407451171875;0.10858154296875;-0.4340972900390625;-0.035064697265625;-0.2836897671222687;1.2404851913452148;0.3149789869785309
1768418379562747100;18.5507470703125;0.115386962890625;-0.422943115234375;0.0269622802734375;-0.257625937461853;1.2336598634719849;0.3560385406017303
1768418379572748300;18.560748291015624;0.129425048828125;-0.4417877197265625;0.073699951171875;-0.2294395864009857;1.1839109659194946;0.4047283232212066
1768418379582749200;18.57074926757813;0.1446533203125;-0.468597412109375;0.1349029541015625;-0.1824158877134323;1.11046302318573;0.4467609822750091
1768418379592751400;18.58075146484375;0.16357421875;-0.5146484375;0.17706298828125;-0.1116911098361015;1.0206135511398315;0.4567401111125946
1768418379602752300;18.590752197265623;0.1860198974609375;-0.5691070556640625;0.208099365234375;-0.0504093766212463;0.9454647898674012;0.4333109557628631
1768418379612753200;18.600753173828124;0.15850830078125;-0.6208953857421875;0.231109619140625;0.0010330402292311;0.8751900792121887;0.3944445252418518
1768418379622755000;18.610755126953126;0.1567230224609375;-0.6710052490234375;0.2659759521484375;0.0427344143390655;0.7595269083976746;0.3352312445640564
1768418379632756200;18.620756103515625;0.13433837890625;-0.7067413330078125;0.295989990234375;0.0902161821722984;0.6588239669799805;0.2917170822620392
1768418379642757000;18.630757080078126;0.1045684814453125;-0.73565673828125;0.319091796875;0.1355389207601547;0.55575031042099;0.2648636102676391
1768418379652758000;18.640758056640625;0.086334228515625;-0.765594482421875;0.3292236328125;0.1738833785057068;0.4413070976734161;0.2463336139917373
1768418379662760200;18.65076025390625;0.072357177734375;-0.7964935302734375;0.327178955078125;0.2017078250646591;0.3385162651538849;0.2370021641254425
1768418379672761000;18.660760986328125;0.0584716796875;-0.83062744140625;0.2983245849609375;0.2204913645982742;0.2560043334960937;0.2260568290948867
1768418379682762200;18.67076220703125;0.0446319580078125;-0.878021240234375;0.2567901611328125;0.2300939261913299;0.2270616441965103;0.1811985522508621
1768418379692764200;18.68076416015625;0.035369873046875;-0.939208984375;0.1880950927734375;0.24166801571846;0.2948409616947174;0.0712339654564857
1768418379702765300;18.690765380859375;0.034271240234375;-1.00311279296875;0.0984344482421875;0.2569292485713959;0.4250397086143493;-0.0949896275997161
1768418379712766200;18.70076611328125;0.027374267578125;-1.0535888671875;0.0162811279296875;0.2483051419258117;0.5254736542701721;-0.2487248629331588
1768418379722767000;18.71076708984375;0.0143585205078125;-1.07769775390625;-0.0409088134765625;0.2097737342119217;0.5468164682388306;-0.3424838483333587
1768418379732769300;18.720769287109373;0.008636474609375;-1.0847015380859375;-0.0839080810546875;0.1544212698936462;0.464402288198471;-0.3674608469009399
1768418379742770200;18.730770263671875;0.0067901611328125;-1.0756072998046875;-0.0827789306640625;0.0955659374594688;0.2402903586626052;-0.3427144885063171
1768418379752771000;18.74077099609375;-0.028167724609375;-1.0510711669921875;-0.009185791015625;-0.0203622635453939;-0.0072698970325291;-0.2994405031204223
1768418379762773200;18.750773193359375;-0.0898284912109375;-1.0240936279296875;0.1176910400390625;-0.1506936401128769;-0.0935595110058784;-0.2189973294734954
1768418379772774100;18.760774169921874;-0.1312255859375;-1.045501708984375;0.23785400390625;-0.2738539278507232;-0.0572869926691055;-0.1529522687196731
1768418379782775000;18.770775146484375;-0.154510498046875;-1.1188201904296875;0.3090057373046875;-0.4021303951740265;-0.0147035783156752;-0.1893875002861023
1768418379792777000;18.78077685546875;-0.18170166015625;-1.2119598388671875;0.3067779541015625;-0.5308204889297485;0.0450236685574054;-0.3137177228927612
1768418379802778400;18.7907783203125;-0.2099761962890625;-1.2919464111328125;0.233612060546875;-0.6323713064193726;0.1897060126066208;-0.4623777568340301
1768418379812779300;18.800779296875;-0.2047882080078125;-1.3191680908203125;0.0922393798828125;-0.660500705242157;0.443894624710083;-0.4731619656085968
1768418379822780200;18.8107802734375;-0.079620361328125;-1.2341461181640625;-0.0599822998046875;-0.5355464816093445;0.6158437728881836;-0.2241782397031784
1768418379832782300;18.8207822265625;0.2028350830078125;-1.1143341064453125;-0.168121337890625;-0.3802232444286346;0.5204064249992371;0.1835301518440246
1768418379842783200;18.830783203125;0.596649169921875;-1.1408843994140625;-0.22802734375;-0.3949640989303589;0.2195821553468704;0.3629920482635498
1768418379852784000;18.8407841796875;0.8544921875;-1.3854522705078125;-0.1373291015625;-0.5163693428039551;-0.0373143479228019;0.1952571123838424
1768418379862786000;18.8507861328125;0.8397369384765625;-1.644012451171875;0.0179901123046875;-0.6382997632026672;-0.2399164587259292;-0.0815659686923027
1768418379872787200;18.860787109375;0.76806640625;-1.76995849609375;0.1130828857421875;-0.7415774464607239;-0.3328248262405395;-0.3473744690418243
1768418379882788000;18.8707880859375;0.6620941162109375;-1.76092529296875;0.081634521484375;-0.7878227233886719;-0.2599618136882782;-0.5844890475273132
1768418379892789200;18.880789306640622;0.55426025390625;-1.5800628662109375;0.0072479248046875;-0.61813884973526;-0.0623374097049236;-0.7966033816337585
1768418379902791200;18.890791259765624;0.4706573486328125;-1.2611236572265625;-0.03668212890625;-0.3477481007575989;0.1924778372049331;-0.7998636364936829
1768418379912792300;18.90079223632813;0.3568267822265625;-1.0557403564453125;-0.167327880859375;-0.1235807910561561;0.4409574270248413;-0.6176011562347412
1768418379922793200;18.910793212890624;0.2655181884765625;-0.99078369140625;-0.3330078125;-0.0173036232590675;0.5824591517448425;-0.3967894315719604
1768418379932795100;18.920795166015623;0.1900634765625;-1.037445068359375;-0.4400482177734375;-0.0195577219128608;0.584369421005249;-0.2179429829120636
1768418379942796300;18.93079638671875;0.1142578125;-1.1508941650390625;-0.41302490234375;-0.0213716011494398;0.4513386785984039;-0.1613619923591613
1768418379952797200;18.940797119140623;0.07427978515625;-1.2589111328125;-0.251220703125;0.0479787103831768;0.3063902854919433;-0.1787713468074798
1768418379962799000;18.950799072265625;0.0972900390625;-1.327545166015625;-0.0494842529296875;0.1500190645456314;0.1646283566951751;-0.1844430714845657
1768418379972800300;18.96080029296875;0.143585205078125;-1.3514556884765625;0.1116790771484375;0.2188958674669265;0.0185822062194347;-0.1494882851839065
1768418379982801200;18.97080126953125;0.1767730712890625;-1.3288116455078125;0.217132568359375;0.24131540954113;-0.1002680137753486;-0.1052401363849639
1768418379992802000;18.980802001953126;0.202880859375;-1.2585296630859375;0.23614501953125;0.2149506509304046;-0.1474792063236236;-0.1017183735966682
1768418380002804200;18.99080419921875;0.2153472900390625;-1.14569091796875;0.1937103271484375;0.1806019991636276;-0.1591821908950805;-0.1250505894422531
1768418380012805000;19.00080517578125;0.2142486572265625;-1.00054931640625;0.1202239990234375;0.1592631638050079;-0.1883126497268676;-0.1377573311328888
1768418380022806300;19.01080615234375;0.2056732177734375;-0.8417816162109375;0.0527496337890625;0.142598956823349;-0.2308965921401977;-0.136766105890274
1768418380032808200;19.02080810546875;0.17657470703125;-0.68902587890625;-0.01068115234375;0.1402543187141418;-0.2619951367378235;-0.1272777915000915
1768418380042809300;19.030809326171877;0.148101806640625;-0.554046630859375;-0.0533294677734375;0.1423054784536361;-0.3072595596313476;-0.1048609018325805
1768418380052810200;19.040810302734375;0.1079559326171875;-0.4473419189453125;-0.082427978515625;0.1500115990638733;-0.3257144391536712;-0.0688104927539825
1768418380062811100;19.05081103515625;0.083404541015625;-0.4010772705078125;-0.0963134765625;0.1722258329391479;-0.3608671128749847;-0.0212221983820199
1768418380072813300;19.060813232421875;0.05010986328125;-0.3709259033203125;-0.1127471923828125;0.2438968122005462;-0.3114348351955414;0.0256307944655418
1768418380082814200;19.070814208984373;0.0128936767578125;-0.3802642822265625;-0.15350341796875;0.2993558049201965;-0.2624558508396148;0.0904002040624618
1768418380092815000;19.080815185546875;-0.01416015625;-0.4243316650390625;-0.2049713134765625;0.3128937184810638;-0.197232112288475;0.1588658094406128
1768418380102817000;19.090817138671873;-0.0216217041015625;-0.4759521484375;-0.2247467041015625;0.3055138289928436;-0.1370832920074463;0.1882351487874984
1768418380112818200;19.100818115234375;0.00018310546875;-0.5352783203125;-0.2354736328125;0.246024951338768;-0.0934942662715911;0.1882442086935043
1768418380122819000;19.110819091796873;0.0154876708984375;-0.59088134765625;-0.2296295166015625;0.1686047315597534;-0.0485616773366928;0.1505458354949951
1768418380132821000;19.120821044921875;0.016326904296875;-0.625396728515625;-0.1957550048828125;0.1342086642980575;0.0238435473293066;0.1203969866037368
1768418380142822100;19.130822265625;0.0080413818359375;-0.6514739990234375;-0.1646270751953125;0.1229941025376319;0.0544230267405509;0.093806117773056
1768418380152823300;19.1408232421875;-0.010467529296875;-0.678314208984375;-0.1222076416015625;0.117861121892929;0.0541114397346973;0.0643747299909591
1768418380162824200;19.15082421875;-0.035552978515625;-0.700927734375;-0.09344482421875;0.0913645327091217;0.0426601134240627;0.0022948458790779
1768418380172826000;19.160826171875;-0.0535888671875;-0.701934814453125;-0.071502685546875;0.0535154230892658;0.057043045759201;-0.0656509175896644
1768418380182827300;19.1708271484375;-0.0875701904296875;-0.6893157958984375;-0.0489349365234375;0.0070025157183408;0.0706813633441925;-0.089116558432579
1768418380192828200;19.180828125;-0.132598876953125;-0.6854400634765625;-0.028533935546875;-0.0208823792636394;0.0413154810667037;-0.077004499733448
1768418380202830000;19.190830078125;-0.163909912109375;-0.704132080078125;-0.015533447265625;-0.0339198820292949;-0.0545460656285285;-0.0721144080162048
1768418380212831200;19.200831298828124;-0.1514434814453125;-0.7539215087890625;-0.007293701171875;-0.0465073138475418;-0.1679903417825698;-0.1222079321742057
1768418380222832000;19.21083203125;-0.10272216796875;-0.8365325927734375;0.0138397216796875;-0.0759128704667091;-0.2976151704788208;-0.2452212125062942
1768418380232833000;19.2208330078125;-0.0443878173828125;-0.942840576171875;0.0413360595703125;-0.1552417874336242;-0.4301788210868835;-0.3503516316413879
1768418380242835200;19.23083520507813;0.033721923828125;-1.0545654296875;0.0746917724609375;-0.2503813505172729;-0.5910691618919373;-0.3863485157489776
1768418380252836400;19.24083642578125;0.0693817138671875;-1.1679840087890625;0.1188507080078125;-0.3569746315479278;-0.7894302010536194;-0.3393927216529846
1768418380262837200;19.25083715820313;0.04388427734375;-1.2754974365234375;0.1424407958984375;-0.5162851810455322;-0.9175186157226562;-0.2633474767208099
1768418380272839200;19.260839111328124;-0.024139404296875;-1.3425140380859375;0.1634979248046875;-0.6135004162788391;-0.9996601343154908;-0.3232896327972412
1768418380282840300;19.27084033203125;-0.2294769287109375;-1.3951416015625;0.1748809814453125;-0.5327259302139282;-1.0412064790725708;-0.4937063753604889
1768418380292841200;19.28084130859375;-0.4757232666015625;-1.4805145263671875;0.134124755859375;-0.2894954681396484;-0.9199392199516296;-0.5876613855361938
1768418380302842000;19.290842041015622;-0.5505828857421875;-1.5835723876953125;0.102294921875;0.0471243672072887;-0.8039255142211914;-0.5840996503829956
1768418380312844300;19.30084423828125;-0.588287353515625;-1.578094482421875;0.0116424560546875;0.4043221771717071;-0.3298303782939911;-0.5061036944389343
1768418380322845200;19.31084521484375;-0.5673065185546875;-1.38055419921875;-0.184417724609375;0.573381245136261;0.1711419224739074;-0.3649697005748749
1768418380332846000;19.32084619140625;-0.3562164306640625;-1.0360565185546875;-0.2455902099609375;0.577124297618866;0.0883162766695022;-0.1169468611478805
1768418380342848000;19.330847900390623;-0.1700897216796875;-0.8894195556640625;-0.1523895263671875;0.6249368190765381;-0.0092164017260074;0.1564061194658279
1768418380352849200;19.34084912109375;0.14080810546875;-1.0782470703125;-0.09979248046875;0.7326542735099792;-0.0424702279269695;0.2640644013881683
1768418380362850300;19.350850341796875;0.333709716796875;-1.4778594970703125;-0.1728668212890625;0.7375534176826477;0.2340090274810791;0.2979214489459991
1768418380372852000;19.36085205078125;0.317291259765625;-1.793487548828125;-0.286590576171875;0.586154043674469;0.5983896851539612;0.3706667423248291
1768418380382853400;19.370853271484375;0.4077606201171875;-1.80126953125;-0.4080657958984375;0.4424658417701721;0.7333387136459351;0.2666865587234497
1768418380392854300;19.380854248046877;0.5093536376953125;-1.7686004638671875;-0.4798126220703125;0.446956992149353;0.6904208064079285;0.0192535892128944
1768418380402855200;19.390855224609375;0.494903564453125;-1.7114410400390625;-0.41741943359375;0.4650545120239258;0.6315366625785828;-0.2299229502677917
1768418380412857000;19.400857177734373;0.4619293212890625;-1.5965118408203125;-0.2948150634765625;0.3068867027759552;0.5665163993835449;-0.4107550382614136
1768418380422858200;19.410858154296875;0.4550323486328125;-1.3750457763671875;-0.1187896728515625;0.102173238992691;0.345526248216629;-0.4571800529956817
1768418380432859100;19.420859130859377;0.4570770263671875;-1.1018218994140625;0.060882568359375;-0.0487587489187717;0.0528387129306793;-0.3161489069461822
1768418380442861000;19.430861083984375;0.431365966796875;-0.903045654296875;0.202545166015625;-0.0714872330427169;-0.2264595031738281;-0.0871205180883407
1768418380452862200;19.4408623046875;0.3430633544921875;-0.819488525390625;0.33673095703125;0.0204022098332643;-0.3843079805374145;0.1251733601093292
1768418380462863000;19.450863037109375;0.2494049072265625;-0.8998260498046875;0.361236572265625;0.0721154734492302;-0.310751736164093;0.1940895766019821
1768418380472864300;19.4608642578125;0.213287353515625;-1.0428314208984375;0.2969818115234375;0.0346932671964168;-0.0516224466264247;0.1868820041418075
1768418380482866200;19.4708662109375;0.2215576171875;-1.092376708984375;0.1935882568359375;0.0035694348625838;0.2631639838218689;0.2282305061817169
1768418380492867300;19.480867431640625;0.2014617919921875;-1.0628814697265625;0.0388336181640625;-0.0119301630184054;0.5769575834274292;0.3507284522056579
1768418380502868200;19.4908681640625;0.1779022216796875;-1.0375518798828125;-0.125518798828125;-0.0193659737706184;0.7407039403915405;0.4554300904273987
1768418380512870100;19.5008701171875;0.1820831298828125;-1.0375518798828125;-0.26007080078125;-0.0673622637987136;0.7416964769363403;0.4176204204559326
1768418380522871300;19.510871337890624;0.1885986328125;-1.0272064208984375;-0.334930419921875;-0.166395902633667;0.6995575428009033;0.2776819467544555
1768418380532872200;19.5208720703125;0.1780548095703125;-0.9693450927734376;-0.3355865478515625;-0.2272163778543472;0.6906617879867554;0.130887970328331
1768418380542873000;19.530873046875;0.12469482421875;-0.8789215087890625;-0.2986297607421875;-0.238254114985466;0.763684093952179;0.0353111177682876
1768418380552875300;19.540875244140626;0.0553741455078125;-0.769561767578125;-0.261383056640625;-0.2231627702713012;0.8650559782981873;0.0197084564715623
1768418380562876200;19.550876220703124;0.0177001953125;-0.667449951171875;-0.2168121337890625;-0.202559232711792;0.952117085456848;0.0560377016663551
1768418380572877000;19.560876953125;0.019134521484375;-0.579010009765625;-0.1658935546875;-0.1965615302324295;1.045872926712036;0.1060971394181251
1768418380582878500;19.57087841796875;0.0329132080078125;-0.49822998046875;-0.0998687744140625;-0.1804960072040558;1.1199958324432373;0.1530302911996841
1768418380592879600;19.58087963867187;0.04254150390625;-0.4294586181640625;-0.0440521240234375;-0.1560836136341095;1.1782604455947876;0.1971010863780975
1768418380602880500;19.590880615234376;0.081146240234375;-0.4159393310546875;0.0029296875;-0.159591794013977;1.149175047874451;0.232296347618103
1768418380612882700;19.600882568359378;0.11151123046875;-0.452117919921875;0.0716094970703125;-0.1904407888650894;1.092000126838684;0.2736600339412689
1768418380622883600;19.610883544921876;0.1140899658203125;-0.50140380859375;0.14715576171875;-0.1889273077249527;1.0571558475494385;0.3253927528858185
1768418380632884500;19.620884521484378;0.115509033203125;-0.5466766357421875;0.2155303955078125;-0.1207373365759849;1.001679301261902;0.3761198222637176
1768418380642885400;19.630885498046876;0.128204345703125;-0.586669921875;0.24749755859375;-0.0435448139905929;0.9198297262191772;0.4078966677188873
1768418380652887600;19.64088745117187;0.12237548828125;-0.63433837890625;0.256622314453125;-2.68979274551e-05;0.7884440422058105;0.4070684313774109
1768418380662888400;19.650888427734376;0.109161376953125;-0.6775054931640625;0.2662353515625;0.0484697967767715;0.6743813753128052;0.3833793401718139
1768418380672889300;19.66088940429687;0.0841064453125;-0.7156982421875;0.26104736328125;0.0934279486536979;0.5858948826789856;0.3474559783935547
1768418380682891500;19.6708916015625;0.0638885498046875;-0.7467193603515625;0.2628021240234375;0.127637580037117;0.4480076134204864;0.3097554743289947
1768418380692892700;19.680892578125;0.0394744873046875;-0.7665252685546875;0.2591400146484375;0.1536058038473129;0.3781196177005768;0.2651437819004059
1768418380702893600;19.6908935546875;0.0235748291015625;-0.7840728759765625;0.25067138671875;0.1759297549724578;0.3011648952960968;0.2305602431297302
1768418380712894500;19.70089453125;0.0059967041015625;-0.8000030517578125;0.2329254150390625;0.19542196393013;0.2423804104328155;0.2190945297479629
1768418380722896600;19.710896728515625;-0.0089874267578125;-0.8260955810546875;0.2043304443359375;0.2163464128971099;0.2321927547454834;0.2047001421451568
1768418380732897500;19.7208974609375;0.0003662109375;-0.8782958984375;0.1670379638671875;0.2435884177684784;0.2903641760349273;0.1487077176570892
1768418380742898400;19.7308984375;0.01385498046875;-0.9544219970703124;0.1217041015625;0.2631067335605621;0.3919416666030884;0.0279288366436958
1768418380752900600;19.740900634765627;0.015045166015625;-1.0294036865234375;0.072174072265625;0.262371689081192;0.4541904032230377;-0.1114801913499832
1768418380762901500;19.750901611328125;0.0132904052734375;-1.081573486328125;0.0229644775390625;0.2292009592056274;0.4484355747699737;-0.2167480140924453
1768418380772902400;19.76090234375;0.0159454345703125;-1.0988311767578125;-0.0197601318359375;0.1845237761735916;0.3737863600254059;-0.2703710496425628
1768418380782903600;19.770903564453125;0.0145721435546875;-1.0812225341796875;-0.0359954833984375;0.1395674794912338;0.2452014982700348;-0.2837909758090973
1768418380792905500;19.780905517578127;-0.018218994140625;-1.045867919921875;-0.0084686279296875;0.066186212003231;0.0850182250142097;-0.2723335325717926
1768418380802906600;19.79090673828125;-0.0869140625;-1.023590087890625;0.0560760498046875;-0.0560582093894481;-0.014968030154705;-0.252686858177185
1768418380812907500;19.800907470703127;-0.1593475341796875;-1.0425262451171875;0.1363525390625;-0.2021858543157577;-0.0426297523081302;-0.2336473762989044
1768418380822909700;19.81090966796875;-0.2180633544921875;-1.101287841796875;0.20233154296875;-0.3784993588924408;-0.0230049174278974;-0.242155909538269
1768418380832910600;19.82091064453125;-0.265167236328125;-1.1954345703125;0.2204742431640625;-0.5934178233146667;0.0398864299058914;-0.2887125015258789
1768418380842911500;19.830911376953125;-0.2855682373046875;-1.2881317138671875;0.1907806396484375;-0.796560525894165;0.1490027904510498;-0.338501900434494
1768418380852912400;19.840912353515623;-0.2470550537109375;-1.30572509765625;0.1337890625;-0.86253821849823;0.3090111017227173;-0.2698253691196441
1768418380862914600;19.85091455078125;-0.104217529296875;-1.1920623779296875;0.0760345458984375;-0.6921241283416748;0.3536877632141113;0.0044943504035472
1768418380872915500;19.86091552734375;0.16461181640625;-1.05230712890625;0.040313720703125;-0.5292116403579712;0.0968466475605964;0.3304998874664306
1768418380882916400;19.870916259765625;0.5356597900390625;-1.101654052734375;0.010650634765625;-0.6089469790458679;-0.3255309462547302;0.4196156561374664
1768418380892918500;19.88091845703125;0.76702880859375;-1.3593902587890625;0.1300506591796875;-0.7437098622322083;-0.6914681792259216;0.3402880728244781
1768418380902919400;19.89091943359375;0.7412261962890625;-1.62396240234375;0.2796173095703125;-0.8292729258537292;-0.923057496547699;0.1668038964271545
1768418380912920600;19.900920654296876;0.6786346435546875;-1.803131103515625;0.29486083984375;-0.8908302783966064;-1.006666898727417;-0.0572068318724632
1768418380922922500;19.91092260742187;0.6181640625;-1.8571929931640625;0.1859893798828125;-0.8968578577041626;-0.9210342764854432;-0.3242369294166565
1768418380932923600;19.920923583984376;0.6037445068359375;-1.7500457763671875;0.064788818359375;-0.6891704201698303;-0.7677387595176697;-0.6317609548568726
1768418380942924500;19.93092456054687;0.5873260498046875;-1.4505462646484375;0.005096435546875;-0.3291475474834442;-0.591469943523407;-0.7638236284255981
1768418380952925400;19.940925537109376;0.44891357421875;-1.1872100830078125;-0.1194305419921875;-0.0673185884952545;-0.3683489859104156;-0.6532776951789856
1768418380962927600;19.950927734375;0.25;-1.0745086669921875;-0.3078460693359375;0.0582065805792808;-0.2293575555086136;-0.4282179176807403
1768418380972928500;19.960928466796876;0.0870208740234375;-1.090667724609375;-0.434112548828125;0.0643446370959281;-0.1820358484983444;-0.2077824920415878
1768418380982929400;19.970929443359378;-0.0223236083984375;-1.171875;-0.4243927001953125;0.0948809683322906;-0.1622320562601089;-0.1081922501325607
1768418380992931600;19.980931640625;-0.0124053955078125;-1.2487335205078125;-0.29559326171875;0.1987165510654449;-0.1466877162456512;-0.1337431520223617
1768418381002932500;19.99093237304687;0.0679473876953125;-1.2890625;-0.139984130859375;0.2906928062438965;-0.1612389534711837;-0.1888817697763443
1768418381012933400;20.000933349609376;0.1201019287109375;-1.2794647216796875;-0.0239410400390625;0.3186935484409332;-0.2149975299835205;-0.1841690391302108
1768418381022934500;20.0109345703125;0.1555023193359375;-1.2241973876953125;0.06842041015625;0.2958739995956421;-0.3012437224388122;-0.1288474649190902
1768418381032936400;20.0209365234375;0.1801605224609375;-1.1553955078125;0.1080322265625;0.2539364099502563;-0.3661098182201385;-0.0937070474028587
1768418381042937600;20.0309375;0.1965179443359375;-1.0531158447265625;0.11163330078125;0.2939850091934204;-0.4161623120307922;-0.1333007961511612
1768418381052938500;20.0409384765625;0.194854736328125;-0.9271392822265624;0.082855224609375;0.297520101070404;-0.3859586119651794;-0.2061518430709839
1768418381062940700;20.050940673828126;0.149566650390625;-0.8116455078125;0.0323638916015625;0.2819643020629883;-0.3552001714706421;-0.2337933182716369
1768418381072941600;20.060941650390625;0.1232452392578125;-0.6813507080078125;0.008697509765625;0.2619996666908264;-0.3505084812641144;-0.2078517377376556
1768418381082942500;20.0709423828125;0.0968475341796875;-0.5436248779296875;-0.0156707763671875;0.2790585458278656;-0.3408811688423157;-0.162451758980751
1768418381092943400;20.080943359375;0.095367431640625;-0.42974853515625;-0.0340118408203125;0.3067034780979156;-0.3250060379505157;-0.1136903464794159
1768418381102945500;20.090945556640627;0.069183349609375;-0.3536376953125;-0.073638916015625;0.31411212682724;-0.3045133054256439;-0.0327414348721504
1768418381112946400;20.100946533203125;0.04302978515625;-0.328643798828125;-0.114013671875;0.3364411294460296;-0.304581731557846;0.0748353600502014
1768418381122947300;20.110947265625;0.023101806640625;-0.330474853515625;-0.1389007568359375;0.3801348209381103;-0.2713156640529632;0.1574357002973556
1768418381132949500;20.120949462890625;0.0048828125;-0.383270263671875;-0.157958984375;0.4131993055343628;-0.2190609723329544;0.2206325083971023
1768418381142950700;20.13095068359375;-0.0137939453125;-0.470062255859375;-0.182586669921875;0.3912588357925415;-0.1640720218420028;0.2430251687765121
1768418381152951600;20.14095166015625;-0.02313232421875;-0.55914306640625;-0.199127197265625;0.3370584547519684;-0.1401067674160003;0.2365544885396957
1768418381162952400;20.150952392578127;-0.030731201171875;-0.6395416259765625;-0.19970703125;0.2794313728809356;-0.0862914770841598;0.2335989028215408
1768418381172954600;20.16095458984375;-0.04541015625;-0.687255859375;-0.193603515625;0.2620241641998291;0.0080733727663755;0.2120046615600586
1768418381182955500;20.17095556640625;-0.0452728271484375;-0.723114013671875;-0.1871337890625;0.2469954043626785;0.0696328729391098;0.1684739589691162
1768418381192956400;20.180956298828125;-0.06304931640625;-0.75665283203125;-0.1758575439453125;0.2200881540775299;0.1064143255352974;0.1239163503050804
1768418381202958600;20.19095849609375;-0.115936279296875;-0.7762298583984375;-0.1571807861328125;0.1863914430141449;0.128245323896408;0.099249355494976
1768418381212959500;20.20095947265625;-0.1763763427734375;-0.78936767578125;-0.13525390625;0.1610168516635894;0.1403824090957641;0.1051186993718147
1768418381222960400;20.21096044921875;-0.2083587646484375;-0.8074798583984375;-0.1239471435546875;0.1229956969618797;0.1482200920581817;0.1165058389306068
1768418381232961500;20.22096142578125;-0.205841064453125;-0.8336944580078125;-0.11663818359375;0.0842544287443161;0.1054944694042205;0.1061306968331337
1768418381242963500;20.23096337890625;-0.191253662109375;-0.8731842041015625;-0.09979248046875;0.0316410176455974;-0.0011510181939229;0.0598135329782962
1768418381252964600;20.240964599609377;-0.17657470703125;-0.9324188232421876;-0.061767578125;-0.0380528420209884;-0.1569640487432479;-0.0302388630807399
1768418381262965500;20.250965576171875;-0.1626434326171875;-0.9907989501953124;0.0011444091796875;-0.1321713477373123;-0.2940649092197418;-0.1234955713152885
1768418381272967700;20.2609677734375;-0.140411376953125;-1.0449981689453125;0.06939697265625;-0.2313232421875;-0.3483457267284393;-0.1809836328029632
1768418381282968600;20.270968505859376;-0.067169189453125;-1.09442138671875;0.115997314453125;-0.2870086133480072;-0.3563719689846039;-0.2123551368713379
1768418381292969500;20.28096948242187;0.0262603759765625;-1.1399993896484375;0.1284332275390625;-0.3177350759506225;-0.4040132462978363;-0.2277143895626068
1768418381302970400;20.290970458984376;0.048065185546875;-1.1574859619140625;0.1311187744140625;-0.3695183992385864;-0.4563387632369995;-0.2223521173000335
1768418381312972500;20.30097265625;-0.0113983154296875;-1.1472320556640625;0.1295166015625;-0.4551549851894378;-0.5011485815048218;-0.2565231323242187
1768418381322973400;20.310973388671876;-0.1446685791015625;-1.1522064208984375;0.124420166015625;-0.4622334241867065;-0.6563829183578491;-0.319044291973114
1768418381332974300;20.320974365234378;-0.351593017578125;-1.1865234375;0.12652587890625;-0.3358072936534881;-0.7754669785499573;-0.3345510959625244
1768418381342976500;20.3309765625;-0.5386199951171875;-1.242828369140625;0.112945556640625;-0.1440519839525222;-0.6885296702384949;-0.2505565881729126
1768418381352977400;20.34097729492187;-0.5998687744140625;-1.2704925537109375;0.1019134521484375;0.0612047687172889;-0.4777708351612091;-0.1040166765451431
1768418381362978600;20.350978515625;-0.5428924560546875;-1.2314300537109375;0.09075927734375;0.2559031546115875;-0.3128649592399597;0.0342328064143657
1768418381372979500;20.3609794921875;-0.387237548828125;-1.1171875;0.0883026123046875;0.4039141833782196;-0.2436592578887939;0.1728655248880386
1768418381382981600;20.370981689453124;-0.11358642578125;-0.9908599853515624;0.0941162109375;0.5270408987998962;-0.2176345884799957;0.3138364851474762
1768418381392982500;20.380982421875;0.29412841796875;-1.0354156494140625;0.044097900390625;0.7025091052055359;-0.3454093337059021;0.4169929623603821
1768418381402983400;20.3909833984375;0.6158294677734375;-1.27105712890625;-0.10601806640625;0.8639773726463318;-0.1318597644567489;0.5633491277694702
1768418381412985600;20.400985595703126;0.5783538818359375;-1.5991363525390625;-0.46600341796875;0.7691904306411743;0.2484010159969329;0.6807729601860046
1768418381422986500;20.410986572265625;0.5449676513671875;-1.81561279296875;-0.5635528564453125;0.5963653922080994;0.4513437449932098;0.5495566129684448
1768418381432987400;20.4209873046875;0.4077301025390625;-1.8912353515625;-0.5716094970703125;0.5479975938796997;0.5527356266975403;0.2191358059644699
1768418381442989600;20.430989501953125;0.2699432373046875;-1.8338775634765625;-0.4462127685546875;0.4804539680480957;0.5915580987930298;-0.0673942193388938
1768418381452990500;20.440990478515623;0.28997802734375;-1.5872039794921875;-0.314544677734375;0.3324311971664428;0.563586413860321;-0.2251106202602386
1768418381462991400;20.450991455078125;0.454986572265625;-1.241607666015625;-0.2053680419921875;0.2366386353969574;0.3256779611110687;-0.2367230653762817
1768418381472992500;20.460992431640623;0.544647216796875;-0.940185546875;-0.0846099853515625;0.1822102814912796;0.047901477664709;-0.0522086098790168
1768418381482994400;20.470994384765625;0.45367431640625;-0.7987213134765625;0.0251007080078125;0.197419062256813;-0.1096849516034126;0.2312231063842773
1768418381492995600;20.48099560546875;0.307586669921875;-0.8575592041015625;0.1309661865234375;0.2887023687362671;-0.219330221414566;0.475200355052948
1768418381502996500;20.49099658203125;0.242279052734375;-1.033416748046875;0.1653900146484375;0.2974039912223816;-0.1368984580039978;0.5115727186203003
1768418381512998700;20.50099853515625;0.2920379638671875;-1.21221923828125;0.1375274658203125;0.1823058873414993;0.1382100731134414;0.3811659812927246
1768418381522999600;20.51099951171875;0.3636932373046875;-1.3133544921875;0.057373046875;0.0434132553637027;0.4925596415996551;0.2802391052246094
1768418381533000400;20.52100048828125;0.3395233154296875;-1.3009033203125;-0.091796875;-0.0616793446242809;0.8059180974960327;0.347103089094162
1768418381543001300;20.53100146484375;0.28900146484375;-1.23138427734375;-0.2407379150390625;-0.1256620585918426;0.883303701877594;0.466382622718811
1768418381553003500;20.54100341796875;0.283966064453125;-1.1540985107421875;-0.3437347412109375;-0.1988505125045776;0.7598267793655396;0.4483761787414551
1768418381563004400;20.55100439453125;0.2853851318359375;-1.0706939697265625;-0.361968994140625;-0.2964316606521606;0.6219197511672974;0.3113429844379425
1768418381573005300;20.56100537109375;0.2316131591796875;-0.95465087890625;-0.3064117431640625;-0.3399738073348999;0.6433315873146057;0.1653287708759308
1768418381583007500;20.571007568359377;0.1552734375;-0.85595703125;-0.2572479248046875;-0.357483834028244;0.711460530757904;0.0944727063179016
1768418381593008600;20.581008544921875;0.099456787109375;-0.7615509033203125;-0.21630859375;-0.3669953048229217;0.7697036266326904;0.1131577119231224
1768418381603009800;20.591009765625;0.0468902587890625;-0.664642333984375;-0.18096923828125;-0.3579355180263519;0.8670746684074402;0.1866780072450637
1768418381613010700;20.6010107421875;0.0377960205078125;-0.5858612060546875;-0.150970458984375;-0.3528219759464264;0.9562489986419678;0.2650633454322815
1768418381623012600;20.6110126953125;0.0611419677734375;-0.5215301513671875;-0.1139984130859375;-0.3444439172744751;1.038203239440918;0.320795327425003
1768418381633013800;20.621013671875;0.0867156982421875;-0.4710235595703125;-0.070526123046875;-0.3508341908454895;1.1272764205932615;0.3676765561103821
1768418381643014700;20.6310146484375;0.1029815673828125;-0.447723388671875;-0.0328826904296875;-0.3598492443561554;1.172087550163269;0.4180997908115387
1768418381653016600;20.6410166015625;0.1280975341796875;-0.460052490234375;0.00341796875;-0.3749863803386688;1.166574001312256;0.4754632115364074
1768418381663017500;20.651017578125;0.142578125;-0.490386962890625;0.0408935546875;-0.3628471791744232;1.1311321258544922;0.5324013233184814
1768418381673018600;20.6610185546875;0.1630859375;-0.5310211181640625;0.095062255859375;-0.320084273815155;1.0573161840438845;0.572932779788971
1768418381683019500;20.67101953125;0.1934356689453125;-0.57958984375;0.1615142822265625;-0.287810742855072;0.9731757640838624;0.5723897218704224
1768418381693021400;20.681021484375;0.2088470458984375;-0.620025634765625;0.2348480224609375;-0.2270840108394622;0.8815750479698181;0.5214064717292786
1768418381703022600;20.69102270507813;0.207122802734375;-0.660858154296875;0.3043060302734375;-0.1411424726247787;0.7847598195075989;0.4334973692893982
1768418381713023700;20.701023681640624;0.182037353515625;-0.7028961181640625;0.3427581787109375;-0.0732542425394058;0.686725914478302;0.3265538811683655
1768418381723025700;20.711025634765623;0.148834228515625;-0.731414794921875;0.3488922119140625;0.0137608190998435;0.6215218901634216;0.2378083020448684
1768418381733026800;20.72102685546875;0.113494873046875;-0.7506256103515625;0.339996337890625;0.1158336549997329;0.575394332408905;0.1838217675685882
1768418381743027700;20.73102783203125;0.0664520263671875;-0.7562408447265625;0.299652099609375;0.2136337161064148;0.4800827205181122;0.1787007749080658
1768418381753028600;20.741028564453124;0.03143310546875;-0.757415771484375;0.255889892578125;0.2876128852367401;0.3930213153362274;0.2029493898153305
1768418381763030500;20.75103051757813;0.01263427734375;-0.7725982666015625;0.2046356201171875;0.3423259258270263;0.3477973937988281;0.2121743112802505
1768418381773031700;20.76103173828125;0.0031280517578125;-0.801849365234375;0.13592529296875;0.38072469830513;0.3523380756378174;0.1708108931779861
1768418381783032600;20.77103247070313;0.005126953125;-0.84765625;0.0633697509765625;0.3943465054035187;0.4234521985054016;0.0907458811998367
1768418381793034500;20.781034423828125;0.0097198486328125;-0.91033935546875;-0.009674072265625;0.3838352859020233;0.5136558413505554;-0.0325680635869503
1768418381803035600;20.79103564453125;0.0368804931640625;-0.9724273681640624;-0.0821075439453125;0.3512248694896698;0.5387204885482788;-0.1790065020322799
1768418381813036800;20.801036865234376;0.0637664794921875;-1.023406982421875;-0.12774658203125;0.2746459543704986;0.4590983390808105;-0.2895604372024536
1768418381823037700;20.81103759765625;0.066070556640625;-1.0619354248046875;-0.112945556640625;0.17547008395195;0.2993837893009186;-0.3232262730598449
1768418381833039600;20.82103955078125;0.0344390869140625;-1.0785369873046875;-0.0376434326171875;0.0698552504181861;0.1190528869628906;-0.3033638596534729
1768418381843040800;20.831040771484375;-0.03265380859375;-1.0725860595703125;0.0680389404296875;-0.0329305194318294;0.0173137430101633;-0.2552536129951477
1768418381853041700;20.841041748046877;-0.1078948974609375;-1.069976806640625;0.159881591796875;-0.1314341872930526;0.0228280834853649;-0.226131409406662
1768418381863043600;20.851043701171875;-0.1571807861328125;-1.103515625;0.2137451171875;-0.2615333497524261;0.0455664210021495;-0.2535036504268646
1768418381873044700;20.861044677734377;-0.2005767822265625;-1.1848297119140625;0.21746826171875;-0.4433521330356598;0.0530134178698062;-0.3133536577224731
1768418381883045600;20.871045654296875;-0.2593536376953125;-1.2711181640625;0.202484130859375;-0.6560649275779724;0.0205380320549011;-0.3425464332103729
1768418381893046500;20.881046630859377;-0.313751220703125;-1.3107757568359375;0.17950439453125;-0.8152796030044556;0.0091532841324806;-0.2597506046295166
1768418381903048400;20.89104833984375;-0.2803802490234375;-1.2347259521484375;0.1369781494140625;-0.7596269845962524;0.1031074747443199;0.0034690336324274
1768418381913049600;20.901049560546873;-0.0864410400390625;-1.0871429443359375;0.08929443359375;-0.5305607914924622;0.1938371062278747;0.4088024199008941
1768418381923050800;20.91105078125;0.29193115234375;-1.0545196533203125;0.011444091796875;-0.3610479533672333;0.0787379518151283;0.7799477577209473
1768418381933052400;20.921052490234377;0.801544189453125;-1.25164794921875;0.003326416015625;-0.3598524630069732;-0.2391156405210495;0.8333563804626465
1768418381943053800;20.9310537109375;1.08575439453125;-1.6100921630859375;0.07537841796875;-0.4743518531322479;-0.6352368593215942;0.5537319183349609
1768418381953054700;20.9410546875;1.0273284912109375;-1.9058837890625;0.113800048828125;-0.6283025741577148;-0.9069435000419616;0.1497527360916137
1768418381963055600;20.9510556640625;0.8962554931640625;-1.991485595703125;0.1330108642578125;-0.7637016773223877;-0.9380660057067872;-0.2647307217121124
1768418381973057500;20.9610576171875;0.7418365478515625;-1.851531982421875;0.1176910400390625;-0.7156246900558472;-0.7285175919532776;-0.6935361623764038
1768418381983058700;20.97105859375;0.59613037109375;-1.5511322021484375;0.05291748046875;-0.4481764435768127;-0.428278386592865;-0.9648067951202391
1768418381993059600;20.9810595703125;0.4722442626953125;-1.2125396728515625;-0.0760345458984375;-0.1813418269157409;-0.1201996430754661;-0.9448927640914916
1768418382003061500;20.9910615234375;0.3268890380859375;-1.005157470703125;-0.2576904296875;-0.0053241914138197;0.1147574782371521;-0.7191981077194214
1768418382013062700;21.001062744140626;0.20849609375;-0.911956787109375;-0.4022979736328125;0.0607251338660717;0.2369736582040786;-0.4406932294368744
1768418382023063600;21.0110634765625;0.108612060546875;-0.9525146484375;-0.5028228759765625;0.0121858259662985;0.2369734048843383;-0.23649562895298
1768418382033064700;21.021064697265626;0.0490875244140625;-1.08880615234375;-0.5088958740234375;-0.0409980341792106;0.1505034863948822;-0.1811175942420959
1768418382043066600;21.031066650390624;0.057708740234375;-1.2079925537109375;-0.3503875732421875;0.0144228814169764;0.072967417538166;-0.219293475151062
1768418382053067800;21.04106787109375;0.1090087890625;-1.270538330078125;-0.1302490234375;0.122993566095829;-0.0172583498060703;-0.2483208626508712
1768418382063068700;21.051068603515624;0.1816864013671875;-1.2930450439453125;0.043731689453125;0.191961720585823;-0.1421696543693542;-0.2471762299537658
1768418382073070600;21.061070556640622;0.218414306640625;-1.270050048828125;0.1749725341796875;0.2063968479633331;-0.2609330713748932;-0.2055656760931015
1768418382083071700;21.07107177734375;0.2281494140625;-1.1974945068359375;0.2534332275390625;0.2266155630350113;-0.3387652635574341;-0.1393392533063888
1768418382093072600;21.08107275390625;0.233856201171875;-1.085052490234375;0.249359130859375;0.2235092520713806;-0.3316397070884704;-0.1073123440146446
1768418382103073500;21.091073486328124;0.24639892578125;-0.9478302001953124;0.2117462158203125;0.2291942983865738;-0.3503345847129822;-0.1119393184781074
1768418382113075700;21.10107568359375;0.249908447265625;-0.8069305419921875;0.141265869140625;0.2288065552711486;-0.3737541437149048;-0.1451766341924667
1768418382123076600;21.11107666015625;0.24169921875;-0.66943359375;0.0608673095703125;0.2224402576684951;-0.4132512211799621;-0.181075245141983
1768418382133077500;21.12107739257813;0.2093505859375;-0.5463409423828125;-0.0073089599609375;0.2170122116804123;-0.42909836769104;-0.193310871720314
1768418382143079400;21.131079345703125;0.155364990234375;-0.436370849609375;-0.0598602294921875;0.2292811274528503;-0.4196750223636627;-0.1699464321136474
1768418382153080600;21.14108056640625;0.1071624755859375;-0.345550537109375;-0.1064605712890625;0.256430447101593;-0.4056247174739837;-0.1073799878358841
1768418382163081700;21.151081787109376;0.0733184814453125;-0.31298828125;-0.1531829833984375;0.2956873178482055;-0.4033980667591095;-0.0270827505737543
1768418382173082600;21.16108251953125;0.0497589111328125;-0.3204193115234375;-0.178192138671875;0.3311928510665893;-0.3817191421985626;0.0551194436848163
1768418382183084800;21.171084716796877;0.027313232421875;-0.36126708984375;-0.190887451171875;0.3446692228317261;-0.3271315097808838;0.1181079968810081
1768418382193085700;21.181085693359375;0.0254058837890625;-0.4339599609375;-0.21258544921875;0.3309212028980255;-0.2812226116657257;0.1278943121433258
1768418382203086600;21.191086669921877;0.0384368896484375;-0.5224761962890625;-0.2183074951171875;0.3051199615001678;-0.2277508676052093;0.0851178243756294
1768418382213088500;21.201088623046875;0.0398101806640625;-0.6030120849609375;-0.2216033935546875;0.2696301341056824;-0.1690095216035843;0.0220102276653051
1768418382223089700;21.211089599609377;0.0365142822265625;-0.6725616455078125;-0.221221923828125;0.2059281319379806;-0.1794014424085617;-0.0414345264434814
1768418382233090600;21.221090576171875;0.0229949951171875;-0.7215576171875;-0.206024169921875;0.1534571945667266;-0.1618309766054153;-0.1027948185801506
1768418382243091500;21.231091552734377;-0.0157623291015625;-0.756134033203125;-0.1763458251953125;0.0986860990524292;-0.1175966709852218;-0.1527032554149627
1768418382253093600;21.24109375;-0.046112060546875;-0.77447509765625;-0.1495361328125;0.0357739776372909;-0.0857263579964637;-0.1933758556842804
1768418382263094800;21.2510947265625;-0.0774688720703125;-0.776336669921875;-0.1278839111328125;-0.0320050716400146;-0.062270563095808;-0.2050783187150955
1768418382273095700;21.261095703125;-0.1144561767578125;-0.7634735107421875;-0.10888671875;-0.0737075135111808;-0.0582699626684188;-0.1724865436553955
1768418382283097900;21.271097900390625;-0.140289306640625;-0.7576446533203125;-0.08746337890625;-0.0789906904101371;-0.0960881859064102;-0.1127502471208572
1768418382293098800;21.2810986328125;-0.1483917236328125;-0.78619384765625;-0.05364990234375;-0.0552520714700222;-0.172348603606224;-0.0885088294744491
1768418382303099600;21.291099609375;-0.1309814453125;-0.8431396484375;-0.01513671875;-0.0492935143411159;-0.2622896730899811;-0.1525059193372726
1768418382313100500;21.3011005859375;-0.09478759765625;-0.9191131591796876;0.027740478515625;-0.0854898691177368;-0.3802847564220428;-0.3066038787364959
1768418382323102700;21.311102783203125;-0.0522918701171875;-1.0123748779296875;0.075164794921875;-0.1525168418884277;-0.4723052382469177;-0.4778954684734344
1768418382333103600;21.321103515625;0.0159149169921875;-1.1088104248046875;0.1111297607421875;-0.2079553306102752;-0.5263508558273315;-0.6085181832313538
1768418382343104500;21.3311044921875;0.0921478271484375;-1.1926727294921875;0.1184844970703125;-0.233246311545372;-0.5416262149810791;-0.6442649960517883
1768418382353106700;21.341106689453124;0.108154296875;-1.22064208984375;0.091644287109375;-0.2489363104104995;-0.53617262840271;-0.5772026181221008
1768418382363107600;21.351107666015626;0.0264434814453125;-1.2093048095703125;0.0522918701171875;-0.3173140287399292;-0.5856360197067261;-0.6114867925643921
1768418382373108700;21.361108642578124;-0.153778076171875;-1.207977294921875;0.020782470703125;-0.3757411241531372;-0.7046854496002197;-0.6972416639328003
1768418382383109600;21.371109619140626;-0.3953094482421875;-1.216522216796875;0.0329132080078125;-0.2458616942167282;-0.8593389391899109;-0.6654446125030518
1768418382393111800;21.38111181640625;-0.60650634765625;-1.24627685546875;0.0316009521484375;0.0467896088957786;-0.7856820225715637;-0.5131908655166626
1768418382403112700;21.39111279296875;-0.7638702392578125;-1.2660369873046875;-0.0596771240234375;0.3481563925743103;-0.2388392090797424;-0.2961467206478119
1768418382413113600;21.401113525390624;-0.6882476806640625;-1.20782470703125;-0.1341705322265625;0.4802760779857635;0.0727096199989318;-0.102169245481491
1768418382423115800;21.41111572265625;-0.49639892578125;-1.0707855224609375;-0.0517120361328125;0.4905886352062225;-0.0749176517128944;0.109235942363739
1768418382433116700;21.42111669921875;-0.3026885986328125;-0.972503662109375;0.0781707763671875;0.5135416388511658;-0.193179577589035;0.3782500922679901
1768418382443117600;21.43111767578125;0.0235443115234375;-1.0933837890625;0.1617431640625;0.6050766110420227;-0.2122834920883178;0.5568400621414185
1768418382453118500;21.441118408203124;0.431884765625;-1.4661102294921875;0.1049041748046875;0.6618077754974365;-0.0475241094827652;0.4764983654022217
1768418382463120600;21.45112060546875;0.6591339111328125;-1.874359130859375;-0.1020965576171875;0.5590294599533081;0.240457609295845;0.2799424231052398
1768418382473121500;21.46112158203125;0.67315673828125;-2.0019073486328125;-0.320556640625;0.3102385699748993;0.2707183063030243;0.1031317114830017
1768418382483122700;21.471122802734374;0.6121978759765625;-1.8790740966796875;-0.4793853759765625;0.2140899151563644;0.0439070053398609;-0.1355242729187011
1768418382493123600;21.48112353515625;0.4894256591796875;-1.7403564453125;-0.4691009521484375;0.2077595889568328;-0.0289192665368318;-0.3437438011169433
1768418382503125800;21.491125732421875;0.4266510009765625;-1.391845703125;-0.3527374267578125;0.1835770159959793;-0.0709295645356178;-0.4426842033863067
1768418382513126700;21.501126708984376;0.4426116943359375;-1.038726806640625;-0.239593505859375;0.1524246931076049;-0.2189358025789261;-0.4534202218055725
1768418382523127600;21.51112744140625;0.42901611328125;-0.8551483154296875;-0.1173095703125;0.1512587666511535;-0.3871892690658569;-0.3214142322540283
1768418382533129700;21.521129638671876;0.378143310546875;-0.7922821044921875;0.035186767578125;0.2361835092306137;-0.5605453252792358;-0.0957273244857788
1768418382543130600;21.531130615234375;0.3280792236328125;-0.9250946044921876;0.172760009765625;0.360808789730072;-0.7388695478439331;0.0359031409025192
1768418382553131500;21.541131591796876;0.2334442138671875;-1.1953582763671875;0.2220916748046875;0.2942843437194824;-0.6283518075942993;0.0330008268356323
1768418382563132400;21.55113232421875;0.1934967041015625;-1.3667144775390625;0.1935882568359375;0.049228798598051;-0.3077908456325531;0.0477515421807765
1768418382573134600;21.561134521484377;0.2197723388671875;-1.3480072021484375;0.1140594482421875;-0.1503058820962906;-0.0034631746821105;0.2182295322418213
1768418382583135700;21.5711357421875;0.2212677001953125;-1.2487030029296875;-0.028045654296875;-0.2481285780668258;0.2205853760242462;0.4458855986595154
1768418382593137000;21.581136962890625;0.2171630859375;-1.206817626953125;-0.1767425537109375;-0.3149667382240295;0.3029737174510956;0.5495307445526123
1768418382603138800;21.591138916015623;0.2182769775390625;-1.2135162353515625;-0.2710418701171875;-0.4366561472415924;0.3122516274452209;0.4424280226230621
1768418382613140000;21.601139892578125;0.21405029296875;-1.1924896240234375;-0.27386474609375;-0.5490521788597107;0.3020679652690887;0.2508117258548736
1768418382623140900;21.611140869140623;0.1757659912109375;-1.119049072265625;-0.2211151123046875;-0.5775536298751831;0.3457249104976654;0.0983548015356063
1768418382633141800;21.621141845703125;0.1119842529296875;-1.012725830078125;-0.175628662109375;-0.5421556830406189;0.4429470598697662;0.0214139446616172
1768418382643144000;21.63114404296875;0.066619873046875;-0.8803863525390625;-0.1403656005859375;-0.4623266160488128;0.5440776944160461;0.0025909894611686
1768418382653144800;21.641144775390625;0.040435791015625;-0.747833251953125;-0.1110992431640625;-0.3672999739646911;0.6451310515403748;0.0173915065824985
1768418382663145700;21.651145751953123;0.0321197509765625;-0.626922607421875;-0.0846710205078125;-0.2828609943389892;0.7325360178947449;0.037319142371416
1768418382673148000;21.66114794921875;0.0381622314453125;-0.5183868408203125;-0.064361572265625;-0.2499728202819824;0.8326420783996582;0.0530096888542175
1768418382683148800;21.671148681640624;0.059295654296875;-0.4250335693359375;-0.0347900390625;-0.2568842470645904;0.9052110910415648;0.0683905109763145
1768418382693149700;21.681149658203125;0.0890045166015625;-0.358795166015625;0.02532958984375;-0.2779594361782074;0.8468298316001892;0.0834648013114929
1768418382703151000;21.691151123046875;0.0906829833984375;-0.3356475830078125;0.0914306640625;-0.2857952713966369;0.7361888289451599;0.1272809952497482
1768418382713152800;21.70115283203125;0.0886993408203125;-0.34686279296875;0.17059326171875;-0.2508063912391662;0.5969323515892029;0.2020441740751266
1768418382723154000;21.71115380859375;0.088409423828125;-0.391876220703125;0.25482177734375;-0.1917888820171356;0.460363358259201;0.2779437303543091
1768418382733154800;21.72115478515625;0.0856170654296875;-0.447906494140625;0.302398681640625;-0.1156006306409835;0.3676813542842865;0.3385825753211975
1768418382743157000;21.731156982421876;0.0802459716796875;-0.498809814453125;0.320831298828125;-0.0228967927396297;0.274629682302475;0.3618634045124054
1768418382753158000;21.741157958984378;0.0832061767578125;-0.5578460693359375;0.2972412109375;0.0322524793446064;0.1587763279676437;0.3412856757640838
1768418382763158800;21.75115869140625;0.048828125;-0.62481689453125;0.2362213134765625;0.0575732812285423;0.1203439906239509;0.310043603181839
1768418382773160000;21.761159912109378;0.0193023681640625;-0.686279296875;0.207122802734375;0.0899615809321403;0.0934756249189376;0.2826740443706512
1768418382783161900;21.771161865234376;-0.012969970703125;-0.7346954345703125;0.1873321533203125;0.1256484687328338;0.0663459971547126;0.2558664083480835
1768418382793162800;21.78116284179687;-0.035919189453125;-0.7671966552734375;0.1733551025390625;0.1536300331354141;0.0268119070678949;0.2306537181138992
1768418382803163600;21.79116357421875;-0.049560546875;-0.78985595703125;0.1769866943359375;0.1740524917840957;-0.0051311124116182;0.2095713317394256
1768418382813165800;21.801165771484374;-0.0584869384765625;-0.8156280517578125;0.1775360107421875;0.1861887872219085;0.0002822950773406;0.1755787432193756
1768418382823166700;21.811166748046876;-0.0494842529296875;-0.852813720703125;0.1664276123046875;0.1923731714487075;0.0748289674520492;0.1074116751551628
1768418382833168000;21.82116796875;-0.0434112548828125;-0.91156005859375;0.13189697265625;0.2054018974304199;0.217891052365303;0.0016144082183018
1768418382843169000;21.8311689453125;-0.0490264892578125;-0.98516845703125;0.0706787109375;0.220845028758049;0.3608380854129791;-0.1091155707836151
1768418382853171000;21.8411708984375;-0.0558929443359375;-1.0485076904296875;0.0014190673828125;0.2304289489984512;0.4009870886802673;-0.1842326819896698
1768418382863171800;21.851171875;-0.0426483154296875;-1.0829010009765625;-0.05902099609375;0.21944659948349;0.3111189901828766;-0.2333509624004364
1768418382873172700;21.8611728515625;-0.012115478515625;-1.0856475830078125;-0.08758544921875;0.1762386858463287;0.093288667500019;-0.2886680066585541
1768418382883174000;21.871173828125;-0.014404296875;-1.0709228515625;-0.0563507080078125;0.0590036660432815;-0.1154237985610961;-0.3326522409915924
1768418382893175800;21.88117578125;-0.0767974853515625;-1.04498291015625;0.038482666015625;-0.0953715294599533;-0.1730735152959823;-0.3342738449573517
1768418382903176700;21.8911767578125;-0.1473541259765625;-1.047027587890625;0.1783294677734375;-0.2520418167114258;-0.1622363030910492;-0.3363692164421081
1768418382913177900;21.901177734375;-0.222198486328125;-1.1061553955078125;0.264312744140625;-0.4453633427619934;-0.1164824068546295;-0.3791257441043854
1768418382923179800;21.9111796875;-0.3155364990234375;-1.22772216796875;0.2815093994140625;-0.6692699790000916;-0.0169052146375179;-0.4348649084568023
1768418382933181000;21.921180908203127;-0.40447998046875;-1.3463287353515625;0.2624969482421875;-0.8786383271217346;0.0961667448282241;-0.4629628658294678
1768418382943182000;21.93118212890625;-0.4101409912109375;-1.32037353515625;0.260528564453125;-0.8538557887077332;0.1172081157565116;-0.3607089221477508
1768418382953183000;21.941182861328127;-0.317779541015625;-1.105804443359375;0.2803192138671875;-0.5861409902572632;0.2205922901630401;-0.0514757074415683
1768418382963185000;21.951184814453125;-0.1205902099609375;-0.9264984130859376;0.257843017578125;-0.3158370554447174;0.4353999495506286;0.3958373367786407
1768418382973185800;21.961185791015627;0.26495361328125;-0.9593963623046876;0.18731689453125;-0.1392692029476165;0.5262542366981506;0.8291935920715332
1768418382983187000;21.97118701171875;0.8862457275390625;-1.2081451416015625;0.1341552734375;-0.0808572992682457;0.2160044610500335;0.8172889947891235
1768418382993188900;21.98118896484375;1.267333984375;-1.59271240234375;0.0831451416015625;-0.2217566221952438;-0.2172638773918151;0.3723687827587127
1768418383003189800;21.991189697265625;1.1175537109375;-1.909088134765625;0.059112548828125;-0.4033109843730926;-0.4838708043098449;-0.1918788850307464
1768418383013191000;22.00119091796875;0.8056488037109375;-2.0318145751953125;0.0216522216796875;-0.582125723361969;-0.6374276280403137;-0.6158530712127686
