timestamp;seconds_elapsed;acc_z;acc_y;acc_x;gyro_z;gyro_y;gyro_x
1768418175759234800;0.04723486328125;-0.0848846435546875;-1.0107879638671875;0.0473785400390625;-0.1014520525932312;-0.0580734238028526;0.1450780928134918
1768418175769237000;0.057237060546875;-0.074859619140625;-1.0245208740234375;0.0388641357421875;-0.0887197479605674;-0.0592619925737381;0.1569717675447464
1768418175779239000;0.067239013671875;-0.0836029052734375;-1.0308380126953125;0.0316009521484375;-0.0754817053675651;-0.0409823209047317;0.1592375934123993
1768418175789239800;0.07723974609375;-0.0782623291015625;-1.0253143310546875;0.0336456298828125;-0.063292421400547;-0.0393311604857444;0.140912652015686
1768418175799242000;0.087241943359375;-0.0778045654296875;-1.0316162109375;0.031707763671875;-0.056130114942789;-0.049183789640665;0.1244804114103317
1768418175809243000;0.097242919921875;-0.0742034912109375;-1.0366973876953125;0.030731201171875;-0.0584521256387233;-0.0650362595915794;0.103825993835926
1768418175819244800;0.107244873046875;-0.0743408203125;-1.0374908447265625;0.0252227783203125;-0.0652218833565712;-0.0728246718645095;0.0998783931136131
1768418175829247000;0.1172470703125;-0.0816192626953125;-1.0314483642578125;0.022705078125;-0.061397049576044;-0.0775411278009414;0.112332135438919
1768418175839248000;0.127247802734375;-0.0795135498046875;-1.0243377685546875;0.0214080810546875;-0.0506602488458156;-0.0689364597201347;0.118585504591465
1768418175849250000;0.13725;-0.0743560791015625;-1.01605224609375;0.0176239013671875;-0.0402488857507705;-0.0538270138204097;0.1169031858444213
1768418175859252000;0.147251953125;-0.0751953125;-1.00482177734375;0.011962890625;-0.0319289043545722;-0.0399681888520717;0.1150267198681831
1768418175869252900;0.1572529296875;-0.0800018310546875;-0.996734619140625;0.003753662109375;-0.0265005826950073;-0.0200962126255035;0.1198686137795448
1768418175879255000;0.167255126953125;-0.0863037109375;-0.9929962158203124;0.0004119873046875;-0.0239159855991601;-0.0077367490157485;0.1329127699136734
1768418175889257000;0.177257080078125;-0.091033935546875;-0.989990234375;-0.0023040771484375;-0.024206269532442;0.0017624800093472;0.1470381766557693
1768418175899257900;0.1872578125;-0.0932464599609375;-0.9883880615234376;0.000457763671875;-0.0186775475740432;0.0162117257714271;0.1558188945055008
1768418175909260000;0.197260009765625;-0.095703125;-0.98748779296875;0.00152587890625;-0.0162905566394329;0.0383066423237323;0.1612261682748794
1768418175919261000;0.207260986328125;-0.10009765625;-0.9900665283203124;-0.0017852783203125;-0.0162884257733821;0.053455501794815;0.1593912541866302
1768418175929262800;0.217262939453125;-0.1066436767578125;-0.99481201171875;0.004119873046875;-0.0244787111878395;0.0555985458195209;0.1537690609693527
1768418175939265000;0.22726513671875;-0.112701416015625;-0.99786376953125;0.0194854736328125;-0.0289421696215868;0.0506618469953537;0.1528904736042022
1768418175949266000;0.237265869140625;-0.1140594482421875;-0.9979400634765624;0.02850341796875;-0.0344437286257743;0.0542075783014297;0.1575475484132766
1768418175959267800;0.247267822265625;-0.104644775390625;-0.9991302490234376;0.0339202880859375;-0.0367196649312973;0.0605802573263645;0.1632304638624191
1768418175969270000;0.25727001953125;-0.090667724609375;-1.0019378662109375;0.03363037109375;-0.0221934523433446;0.0632178485393524;0.1664321273565292
1768418175979271000;0.26727099609375;-0.0891876220703125;-1.0120697021484375;0.03570556640625;-0.0056115468032658;0.0674426928162574;0.1591973751783371
1768418175989273000;0.277273193359375;-0.092926025390625;-1.0189056396484375;0.03375244140625;1.97073914023e-05;0.0663891434669494;0.1323628276586532
1768418175999274000;0.28727392578125;-0.0922393798828125;-1.02374267578125;0.0302734375;-0.0170514211058616;0.0611496418714523;0.0968610346317291
1768418176009276000;0.29727587890625;-0.090789794921875;-1.0234222412109375;0.0281219482421875;-0.0531321950256824;0.0365689285099506;0.0680104792118072
1768418176019278000;0.307278076171875;-0.084716796875;-1.013824462890625;0.03167724609375;-0.0880430415272712;0.0119834262877702;0.0672858282923698
1768418176029279000;0.317279052734375;-0.0795440673828125;-1.0123443603515625;0.028167724609375;-0.1136677116155624;-0.0100931143388152;0.0717705935239791
1768418176039281000;0.327281005859375;-0.0726776123046875;-1.0178375244140625;0.0211944580078125;-0.1240990459918975;-0.0291261933743953;0.0780785530805587
1768418176049283000;0.337282958984375;-0.0683135986328125;-1.0206756591796875;0.025482177734375;-0.1275678128004074;-0.0554206483066082;0.0776236876845359
1768418176059284000;0.347283935546875;-0.06097412109375;-1.0273284912109375;0.0369873046875;-0.1345524787902832;-0.0802772641181945;0.0750942155718803
1768418176069286000;0.357285888671875;-0.042388916015625;-1.0409088134765625;0.0540008544921875;-0.1339340955018997;-0.1073829159140586;0.0679398998618125
1768418176079287000;0.367287109375;-0.0205230712890625;-1.049713134765625;0.068359375;-0.1356251984834671;-0.1303180605173111;0.0707913488149643
1768418176089289000;0.3772890625;-0.002899169921875;-1.0500030517578125;0.078460693359375;-0.1317343264818191;-0.1423395723104477;0.0786764323711395
1768418176099291100;0.387291015625;0.0164031982421875;-1.0455169677734375;0.0904998779296875;-0.1274743378162384;-0.1497407555580139;0.0795715227723121
1768418176109292000;0.3972919921875;0.02777099609375;-1.032562255859375;0.09814453125;-0.1424884349107742;-0.1603507995605468;0.0811350643634796
1768418176119294000;0.4072939453125;0.031829833984375;-1.0019378662109375;0.1014404296875;-0.1267440915107727;-0.1600903421640396;0.0962599590420723
1768418176129296100;0.417296142578125;0.0292816162109375;-1.006195068359375;0.110107421875;-0.1130051165819168;-0.1657958924770355;0.1107451543211937
1768418176139297000;0.427297119140625;0.0367279052734375;-1.0169677734375;0.0913238525390625;-0.0994496271014213;-0.1522617042064666;0.1025761738419532
1768418176149299000;0.437298828125;0.0372161865234375;-1.0204925537109375;0.0858306884765625;-0.1039495691657066;-0.1188883036375045;0.0948665887117385
1768418176159301000;0.447301025390625;0.0324859619140625;-1.0201568603515625;0.0756683349609375;-0.1076026260852813;-0.1021207720041275;0.0894310772418975
1768418176169302000;0.457302001953125;0.032684326171875;-1.025726318359375;0.070037841796875;-0.0837833136320114;-0.1127771511673927;0.0831830352544784
1768418176179304000;0.467303955078125;0.033233642578125;-1.0329132080078125;0.063720703125;-0.081859715282917;-0.0943787023425102;0.0744273588061332
1768418176189305000;0.47730517578125;0.0378265380859375;-1.0240325927734375;0.05560302734375;-0.0910193920135498;-0.0924867913126945;0.0641414374113082
1768418176199307000;0.48730712890625;0.0500640869140625;-1.00787353515625;0.0443115234375;-0.098301000893116;-0.1098141148686409;0.0626370161771774
1768418176209309000;0.497308837890625;0.05450439453125;-0.992340087890625;0.0501708984375;-0.096445582807064;-0.1194100156426429;0.0827675834298133
1768418176219310000;0.50731005859375;0.0574798583984375;-0.97735595703125;0.062652587890625;-0.0824802294373512;-0.1165915951132774;0.1162696182727813
1768418176229312000;0.51731201171875;0.0649566650390625;-0.9730072021484376;0.0796051025390625;-0.0635499507188797;-0.103676863014698;0.140541136264801
1768418176239314200;0.527314208984375;0.0713043212890625;-0.97515869140625;0.1034088134765625;-0.0508740991353988;-0.0857412666082382;0.1528033912181854
1768418176249315000;0.537315185546875;0.0806121826171875;-0.9836578369140624;0.12872314453125;-0.0563708655536174;-0.0857607126235961;0.1522262841463089
1768418176259317000;0.54731689453125;0.086944580078125;-0.9883270263671876;0.1480560302734375;-0.0694717541337013;-0.0944410189986229;0.1419526040554046
1768418176269318000;0.55731787109375;0.09234619140625;-0.99322509765625;0.1556854248046875;-0.0931653603911399;-0.1004238128662109;0.1295065879821777
1768418176279320000;0.567320068359375;0.093536376953125;-1.0001983642578125;0.1617431640625;-0.1185452863574028;-0.1066787764430046;0.1258402168750763
1768418176289322000;0.577322021484375;0.0985260009765625;-0.9995269775390624;0.1575927734375;-0.183170884847641;-0.1254655122756958;0.1221868917346
1768418176299323100;0.5873232421875;0.10223388671875;-0.96868896484375;0.156341552734375;-0.1695229858160019;-0.1507319808006286;0.1191911026835441
1768418176309325000;0.597324951171875;0.08782958984375;-0.9849090576171876;0.1812286376953125;-0.1839224249124527;-0.1635244786739349;0.138711541891098
1768418176319327000;0.607326904296875;0.07305908203125;-0.9775848388671876;0.165496826171875;-0.1970811039209365;-0.1844473332166671;0.1687251031398773
1768418176329328000;0.617328125;0.0648040771484375;-0.9637298583984376;0.185150146484375;-0.19693623483181;-0.1770568042993545;0.1934000849723816
1768418176339330000;0.627330078125;0.06341552734375;-0.964447021484375;0.1808013916015625;-0.2013038247823715;-0.1712822765111923;0.2236032634973526
1768418176349332000;0.63733203125;0.0705718994140625;-0.959014892578125;0.17144775390625;-0.1977205276489257;-0.1551914513111114;0.232030838727951
1768418176359333000;0.6473330078125;0.075958251953125;-0.9635162353515624;0.170318603515625;-0.1800951957702636;-0.1202363967895507;0.2223430573940277
1768418176369335000;0.6573349609375;0.0757293701171875;-0.9691925048828124;0.1657562255859375;-0.1558814793825149;-0.0738784819841384;0.1982174813747406
1768418176379336000;0.6673359375;0.0753021240234375;-0.9754638671875;0.155517578125;-0.1305228620767593;-0.0210565496236085;0.1756040453910827
1768418176389338000;0.677338134765625;0.0709228515625;-0.9739532470703124;0.1414337158203125;-0.105786882340908;0.0230073146522045;0.1667746007442474
1768418176399340000;0.687340087890625;0.07659912109375;-0.9695892333984376;0.127471923828125;-0.1021617874503135;0.0631832331418991;0.1623630821704864
1768418176409341200;0.697341064453125;0.08062744140625;-0.962188720703125;0.1252899169921875;-0.1038230657577514;0.0948641970753669;0.1649269014596939
1768418176419343000;0.707343017578125;0.07672119140625;-0.9541778564453124;0.124908447265625;-0.1056305542588234;0.1205293461680412;0.1771337687969207
1768418176429345000;0.717344970703125;0.0772247314453125;-0.9411163330078124;0.12493896484375;-0.106877714395523;0.1395829319953918;0.1865022331476211
1768418176439346200;0.72734619140625;0.0807342529296875;-0.9301300048828124;0.130126953125;-0.1048816740512847;0.1598581075668335;0.1919902116060257
1768418176449348000;0.73734814453125;0.0758514404296875;-0.92193603515625;0.1337890625;-0.1062249764800071;0.1825999021530151;0.1952650994062423
1768418176459350000;0.74735009765625;0.067047119140625;-0.9162445068359376;0.1358642578125;-0.0954322442412376;0.2088538855314254;0.2008321732282638
1768418176469351200;0.75735107421875;0.0570526123046875;-0.9169769287109376;0.131866455078125;-0.0811723470687866;0.2401979565620422;0.2103734761476516
1768418176479353000;0.76735302734375;0.05035400390625;-0.9322509765625;0.1224365234375;-0.0684408396482467;0.280148297548294;0.2222330719232559
1768418176489354200;0.777354248046875;0.0453643798828125;-0.9416656494140624;0.1152191162109375;-0.0440345704555511;0.3173435926437378;0.2317453473806381
1768418176499356000;0.78735595703125;0.03765869140625;-0.9516754150390624;0.11480712890625;-0.0123690515756607;0.3525593876838684;0.2343837469816208
1768418176509358000;0.797358154296875;0.0351104736328125;-0.956268310546875;0.12530517578125;0.0217915810644626;0.3775874972343445;0.2298411875963211
1768418176519359200;0.807359130859375;0.033966064453125;-0.95770263671875;0.141082763671875;0.0470948070287704;0.3877314925193786;0.2236535996198654
1768418176529361000;0.81736083984375;0.0429840087890625;-0.961517333984375;0.135833740234375;0.0082853604108095;0.3974916934967041;0.1991573125123977
1768418176539363000;0.827363037109375;0.058074951171875;-0.9632415771484376;0.1097869873046875;-0.0558614023029804;0.3493803739547729;0.1779665350914001
1768418176549364000;0.837364013671875;0.0579071044921875;-0.96429443359375;0.131317138671875;-0.0860075876116752;0.2764531672000885;0.1736136078834533
1768418176559366000;0.847365966796875;0.0612335205078125;-0.9857330322265624;0.1692352294921875;-0.0799310505390167;0.2495192885398864;0.1530076563358307
1768418176569368000;0.8573681640625;0.0710296630859375;-1.0051422119140625;0.2048187255859375;-0.0816671624779701;0.2246171236038208;0.1214289590716362
1768418176579369000;0.867368896484375;0.0413970947265625;-0.9678802490234376;0.1909942626953125;-0.0913821086287498;0.1499716490507125;0.1463249921798706
1768418176589371100;0.87737109375;0.009490966796875;-0.944915771484375;0.242889404296875;-0.0413620881736278;0.1616110056638717;0.169888898730278
1768418176599372000;0.8873720703125;0.0196075439453125;-0.9486236572265624;0.2554168701171875;0.0061452439986169;0.170728862285614;0.1802499294281005
1768418176609374000;0.8973740234375;0.028656005859375;-0.9481048583984376;0.2301177978515625;0.028946429491043;0.1421989500522613;0.1808853596448898
1768418176619376000;0.907376220703125;0.0233306884765625;-0.9480743408203124;0.2094879150390625;0.0467592477798461;0.1152456328272819;0.1809948235750198
1768418176629377000;0.917376953125;0.012420654296875;-0.94842529296875;0.1963653564453125;0.0681835785508155;0.1046909913420677;0.1758671700954437
1768418176639379000;0.92737890625;0.00494384765625;-0.9586029052734376;0.178924560546875;0.0903618559241294;0.1073435023427009;0.1616357713937759
1768418176649381000;0.937381103515625;0.0029449462890625;-0.96783447265625;0.1649322509765625;0.116320215165615;0.1263393014669418;0.1463761180639267
1768418176659382000;0.947382080078125;-0.0005340576171875;-0.9743194580078124;0.15460205078125;0.1366473287343979;0.1519605070352554;0.1324885338544845
1768418176669384000;0.957384033203125;-0.009552001953125;-0.977264404296875;0.140045166015625;0.1488432735204696;0.170654296875;0.1262841671705246
1768418176679386000;0.96738623046875;-0.017730712890625;-0.9733734130859376;0.1267852783203125;0.1526262909173965;0.1952203661203384;0.11824781447649
1768418176689387000;0.977386962890625;-0.0207977294921875;-0.966705322265625;0.1147003173828125;0.1537317782640457;0.2159325629472732;0.1164778769016265
1768418176699389000;0.987388916015625;-0.02252197265625;-0.9563140869140624;0.112396240234375;0.1514736711978912;0.2382423877716064;0.1238356605172157
1768418176709390000;0.99739013671875;-0.01202392578125;-0.941131591796875;0.11669921875;0.1539927572011947;0.2642502784729004;0.1284879297018051
1768418176719392000;1.00739208984375;0.0050811767578125;-0.9280242919921876;0.131805419921875;0.168056383728981;0.3065471351146698;0.122318185865879
1768418176729394200;1.017394287109375;0.0141754150390625;-0.9203033447265624;0.1537017822265625;0.2044436782598495;0.373585045337677;0.1023370251059532
1768418176739395000;1.02739501953125;0.033843994140625;-0.92999267578125;0.1888580322265625;0.2756552696228027;0.4522044956684112;0.0481693930923938
1768418176749397000;1.03739697265625;0.0451507568359375;-0.9558563232421876;0.2102813720703125;0.3467006981372833;0.5045198798179626;0.0076336846686899
1768418176759399200;1.047399169921875;0.0444793701171875;-0.9745025634765624;0.1812286376953125;0.3779640793800354;0.5003525614738464;0.0177968405187129
1768418176769400000;1.057400146484375;0.0498046875;-0.980377197265625;0.142364501953125;0.372088611125946;0.4911308288574219;0.045607965439558
1768418176779402000;1.067402099609375;0.0580902099609375;-0.99542236328125;0.12860107421875;0.3252180516719818;0.5066503882408142;0.0219609588384628
1768418176789404200;1.077404052734375;0.03582763671875;-1.0321502685546875;0.1227569580078125;0.2500644326210022;0.528319776058197;-0.0589594580233097
1768418176799405000;1.087405029296875;-0.0127410888671875;-1.069244384765625;0.11236572265625;0.1486504673957824;0.5765642523765564;-0.1575275808572769
1768418176809407000;1.097406982421875;-0.0953216552734375;-1.0753173828125;0.012237548828125;-0.057405237108469;0.608494758605957;-0.1623854488134384
1768418176819408100;1.107408203125;-0.130218505859375;-1.0730743408203125;0.0850677490234375;-0.0345558449625968;0.7416378855705261;-0.1940187364816665
1768418176829410000;1.11741015625;-0.1354522705078125;-1.1021881103515625;0.081207275390625;-0.0195800922811031;0.864188551902771;-0.2130153328180313
1768418176839412200;1.127412109375;-0.127166748046875;-1.086944580078125;0.080596923828125;0.103383645415306;1.0022908449172974;-0.2552900910377502
1768418176849413000;1.1374130859375;-0.0705413818359375;-1.04034423828125;0.1058349609375;0.1572181135416031;1.0549098253250122;-0.2493610978126526
1768418176859415000;1.1474150390625;0.0075836181640625;-0.959381103515625;0.0858154296875;0.1704303175210952;1.0098272562026978;-0.1700417697429657
1768418176869417200;1.157417236328125;0.13531494140625;-0.9323883056640624;0.1384124755859375;0.2188479304313659;0.8391034603118896;-0.0567903108894825
1768418176879418000;1.167418212890625;0.250946044921875;-1.0045623779296875;0.1947479248046875;0.2791493535041809;0.6169146299362183;0.0855154320597648
1768418176889420000;1.177419921875;0.3079376220703125;-1.121734619140625;0.1266326904296875;-0.0110449278727173;0.255421906709671;0.2617104351520538
1768418176899422200;1.187422119140625;0.27288818359375;-1.217681884765625;0.0850677490234375;-0.1708577573299408;0.0991215258836746;0.3690422177314758
1768418176909423000;1.197423095703125;0.27447509765625;-1.381011962890625;0.3978118896484375;-0.3017326891422272;9.45422143558e-05;0.3310402333736419
1768418176919425000;1.207425048828125;0.2396392822265625;-1.5131988525390625;0.3142852783203125;-0.4308363497257232;-0.1138269677758216;0.2734179496765136
1768418176929427200;1.21742724609375;0.2332000732421875;-1.5669097900390625;0.3185272216796875;-0.4191394746303558;-0.1219607964158058;0.1359700858592987
1768418176939428000;1.227427978515625;0.270050048828125;-1.5402679443359375;0.3153839111328125;-0.2473506778478622;-0.0576811395585536;-0.0574020408093929
1768418176949430000;1.237429931640625;0.2502593994140625;-1.4386138916015625;0.2469940185546875;-0.1188555434346199;0.0811390578746795;-0.2124502062797546
1768418176959431200;1.24743115234375;0.1764678955078125;-1.2382049560546875;0.0958099365234375;-0.0754609331488609;0.2464875429868698;-0.2939613163471222
1768418176969433000;1.25743310546875;0.161285400390625;-1.0401611328125;0.0950164794921875;0.0361497476696968;0.4581292271614074;-0.3591115474700928
1768418176979435300;1.267435302734375;0.1487579345703125;-0.9333343505859376;0.03271484375;0.1566306203603744;0.6570553779602051;-0.4066630899906158
1768418176989436200;1.277436279296875;0.1650390625;-0.8524169921875;-0.0561676025390625;0.2819243669509887;0.840348482131958;-0.4445308446884155
1768418176999438000;1.28743798828125;0.2092132568359375;-0.7971038818359375;-0.132110595703125;0.3907312750816345;0.9796741604804992;-0.4721643328666687
1768418177009440300;1.297440185546875;0.2476654052734375;-0.767059326171875;-0.2105560302734375;0.4504896700382232;1.012208104133606;-0.4946893453598022
1768418177019441200;1.307441162109375;0.2519683837890625;-0.75341796875;-0.2552032470703125;0.4631093144416809;0.9653567671775818;-0.4729350507259369
1768418177029443000;1.317443115234375;0.2358856201171875;-0.7598114013671875;-0.2705078125;0.4219837188720703;0.8090534210205078;-0.3652301728725433
1768418177039445200;1.3274453125;0.2168426513671875;-0.8027801513671875;-0.291015625;0.1636379361152649;0.5438566207885742;-0.1491812318563461
1768418177049446100;1.337446044921875;0.194061279296875;-0.84332275390625;-0.2647247314453125;0.2098789364099502;0.3458580672740936;-0.0189119055867195
1768418177059448000;1.347447998046875;0.2914276123046875;-0.9498291015625;0.127410888671875;0.286917507648468;0.3172765076160431;-0.0270635746419429
1768418177069450200;1.3574501953125;0.2513580322265625;-1.0344085693359375;0.0178375244140625;0.1343447566032409;0.1178978756070137;0.0926588326692581
1768418177079451100;1.367451171875;0.1796417236328125;-1.0258026123046875;0.048553466796875;-0.0937477946281433;0.2586387395858764;0.4027165472507477
1768418177089453000;1.377453125;0.1558990478515625;-0.970855712890625;0.143341064453125;-0.1136986017227172;0.1800182312726974;0.5745314359664917
1768418177099454200;1.3874541015625;0.256927490234375;-1.0073089599609375;0.125946044921875;-0.0336932502686977;-0.0238938815891742;0.5541548132896423
1768418177109456100;1.3974560546875;0.2754364013671875;-1.0785064697265625;0.0746612548828125;0.0445666685700416;-0.0763504281640052;0.3907573819160461
1768418177119458300;1.407458251953125;0.313385009765625;-1.1154022216796875;0.0514373779296875;0.1482070386409759;-0.1134067177772522;0.1816430240869522
1768418177129459200;1.417459228515625;0.3274688720703125;-1.1519622802734375;0.009613037109375;0.2377624958753585;-0.0976224318146705;0.001048486563377
1768418177139461000;1.427461181640625;0.2899169921875;-1.1482391357421875;-0.0520172119140625;0.2160758376121521;0.0017704694764688;-0.0666333585977554
1768418177149463300;1.43746337890625;0.2785797119140625;-1.088653564453125;-0.0786895751953125;0.1962853521108627;-0.002878877101466;-0.0900795608758926
1768418177159464200;1.447464111328125;0.258758544921875;-1.0304718017578125;-0.092559814453125;0.1729150563478469;-0.0897631719708442;-0.1050707623362541
1768418177169466000;1.457466064453125;0.2314910888671875;-0.9812774658203124;-0.117706298828125;0.1415826976299286;-0.2060253322124481;-0.1007226184010505
1768418177179468000;1.467468017578125;0.19805908203125;-0.9271240234375;-0.1258392333984375;0.1302781105041504;-0.3240808546543121;-0.0761216655373573
1768418177189469200;1.47746923828125;0.1681060791015625;-0.89239501953125;-0.111297607421875;0.1390947699546814;-0.3838371336460113;-0.0448550879955291
1768418177199471000;1.48747119140625;0.143096923828125;-0.873626708984375;-0.09979248046875;0.1553400605916977;-0.3749086260795593;0.0077367490157485
1768418177209473000;1.49747314453125;0.142578125;-0.856170654296875;-0.0946044921875;0.171395719051361;-0.3303552865982055;0.0693108960986137
1768418177219474200;1.50747412109375;0.1624298095703125;-0.84429931640625;-0.0879974365234375;0.2018737345933914;-0.279109388589859;0.11100934445858
1768418177229476000;1.51747607421875;0.185638427734375;-0.83819580078125;-0.08343505859375;0.2302491813898086;-0.2231670320034027;0.1139273643493652
1768418177239477200;1.527477294921875;0.198760986328125;-0.8369140625;-0.0810546875;0.2616060376167297;-0.1840329468250274;0.0971539765596389
1768418177249479200;1.537479248046875;0.2070770263671875;-0.8398284912109375;-0.080718994140625;0.2867918312549591;-0.1389717310667038;0.0583362765610218
1768418177259481000;1.547481201171875;0.2210540771484375;-0.8574981689453125;-0.0887298583984375;0.2980583310127258;-0.1152176707983017;-0.0265679620206356
1768418177269482200;1.557482177734375;0.21826171875;-0.888214111328125;-0.1204833984375;0.248168259859085;-0.1189263835549354;-0.1035799235105514
1768418177279484200;1.567484130859375;0.1882476806640625;-0.919189453125;-0.1530914306640625;0.1778512299060821;-0.1517623662948608;-0.1386436372995376
1768418177289486000;1.577486083984375;0.1430511474609375;-0.9105224609375;-0.1574554443359375;0.1188337057828903;-0.192149206995964;-0.1238774731755256
1768418177299487200;1.5874873046875;0.1147613525390625;-0.86956787109375;-0.1602325439453125;0.0825191140174865;-0.2389689087867736;-0.0872672572731971
1768418177309489000;1.597489013671875;0.0916595458984375;-0.823699951171875;-0.1437225341796875;0.0792341008782386;-0.3025425672531128;-0.0284145977348089
1768418177319491000;1.607490966796875;0.0651702880859375;-0.786102294921875;-0.1065216064453125;0.091827392578125;-0.3706510365009308;0.063944362103939
1768418177329492000;1.617491943359375;0.052001953125;-0.7633056640625;-0.0662841796875;0.0923419147729873;-0.4649021625518799;0.1692894250154495
1768418177339494000;1.627493896484375;0.0669403076171875;-0.770111083984375;-0.027679443359375;0.0201244428753852;-0.5226168632507324;0.3013361394405365
1768418177349496000;1.63749609375;0.0494384765625;-0.755615234375;-0.006805419921875;-0.2096709311008453;-0.4747529327869415;0.5546578764915466
1768418177359497000;1.6474970703125;0.1444244384765625;-0.7781219482421875;0.0641632080078125;-0.2466007322072982;-0.6104074120521545;0.636378824710846
1768418177369499100;1.6574990234375;0.168701171875;-0.870849609375;0.006256103515625;-0.3152924478054046;-0.6059482097625732;0.6241022348403931
1768418177379501000;1.6675009765625;0.1867828369140625;-0.9244232177734376;-0.01068115234375;-0.3563450574874878;-0.5852256417274475;0.5322953462600708
1768418177389502000;1.677501953125;0.1743011474609375;-0.991973876953125;-0.0305633544921875;-0.3920977413654327;-0.5859236717224121;0.3908287286758423
1768418177399504000;1.68750390625;0.1239013671875;-1.0590972900390625;-0.0323638916015625;-0.4198558628559112;-0.6384065747261047;0.2331429719924926
1768418177409504800;1.6975048828125;0.07781982421875;-1.0953369140625;0.002777099609375;-0.449979156255722;-0.7102085947990417;0.089974895119667
1768418177419506700;1.707506591796875;0.0623931884765625;-1.072662353515625;0.038909912109375;-0.4904003441333771;-0.7785341143608093;0.0107229519635438
1768418177429508900;1.7175087890625;0.08843994140625;-0.9862518310546876;0.056793212890625;-0.5541290044784546;-0.8239719271659851;0.0520850382745265
1768418177439509800;1.727509765625;0.154876708984375;-0.8939361572265625;0.0521240234375;-0.589073896408081;-0.8692438006401062;0.1720069199800491
1768418177449511700;1.73751171875;0.234222412109375;-0.843292236328125;0.042266845703125;-0.5353214740753174;-0.9247406125068665;0.3372547328472137
1768418177459513900;1.747513916015625;0.3099365234375;-0.8488922119140625;0.02288818359375;-0.4213954508304596;-0.9600107073783876;0.5569207668304443
1768418177469514800;1.7575146484375;0.39642333984375;-0.9050750732421876;-0.0019989013671875;-0.297520101070404;-0.8913624286651611;0.7680918574333191
1768418177479516700;1.7675166015625;0.4628143310546875;-0.992095947265625;-0.0020294189453125;-0.1034134700894355;-0.6609827280044556;0.8719421029090881
1768418177489518800;1.777518798828125;0.4888916015625;-1.1151123046875;0.004241943359375;0.1237941160798072;-0.3307054936885834;0.7488750219345093
1768418177499519700;1.787519775390625;0.45111083984375;-1.2425079345703125;-0.010467529296875;0.3602343499660492;-0.0037699707318097;0.4757207334041595
1768418177509522000;1.79752197265625;0.3926849365234375;-1.3345794677734375;-0.0460052490234375;0.4560205340385437;0.2372010946273803;0.2301876693964004
1768418177519523800;1.80752392578125;0.332733154296875;-1.31854248046875;-0.11260986328125;0.3624213337898254;0.2880989015102386;0.0955081433057785
1768418177529524700;1.817524658203125;0.3031463623046875;-1.232574462890625;-0.111053466796875;0.2537760734558105;0.1336427479982376;0.0168660655617713
1768418177539527000;1.82752685546875;0.26593017578125;-1.1747589111328125;-0.0489044189453125;0.127335324883461;-0.0655563697218895;0.0144071690738201
1768418177549528800;1.83752880859375;0.21112060546875;-1.0914459228515625;0.0191650390625;0.0207015499472618;-0.1829485148191452;0.0975846126675605
1768418177559529700;1.84752978515625;0.1902923583984375;-0.99517822265625;0.10418701171875;-0.0039081890136003;-0.2090011537075042;0.20957612991333
1768418177569532000;1.857531982421875;0.230224609375;-0.953460693359375;0.1529388427734375;0.0288438983261585;-0.1980867236852646;0.2817211747169494
1768418177579532800;1.86753271484375;0.2801361083984375;-0.940155029296875;0.1567840576171875;0.081728421151638;-0.1987844705581665;0.2761056125164032
1768418177589534700;1.87753466796875;0.314208984375;-0.936004638671875;0.1292877197265625;0.0763054266571998;-0.1658297181129455;0.2539302706718445
1768418177599537000;1.887536865234375;0.3427886962890625;-0.9219970703125;0.0641937255859375;-0.063423715531826;-0.1248657703399658;0.2022609561681747
1768418177609537800;1.897537841796875;0.3567962646484375;-0.8893890380859375;0.014129638671875;-0.0987481474876403;-0.1417992115020752;0.1859453618526458
1768418177619539700;1.907539794921875;0.3377838134765625;-0.8981781005859375;0.076812744140625;-0.0810367986559867;-0.0967601016163826;0.1649322211742401
1768418177629542000;1.9175419921875;0.332611083984375;-0.9357147216796876;0.0952606201171875;-0.0479073375463485;-0.0713157281279563;0.1272548884153366
1768418177639542800;1.927542724609375;0.3316802978515625;-0.95086669921875;0.109222412109375;-0.0154543239623308;-0.050098855048418;0.0747229754924774
1768418177649545000;1.937544921875;0.337799072265625;-0.9541778564453124;0.1079559326171875;0.0022397185675799;-0.0478322356939315;0.018681276589632
1768418177659547000;1.947546875;0.3458099365234375;-0.9424896240234376;0.0884552001953125;0.0029379993211477;-0.064645305275917;-0.0236494038254022
1768418177669547800;1.9575478515625;0.3425140380859375;-0.9224853515625;0.0771942138671875;-0.0048363003879785;-0.0819489285349845;-0.0498533099889755
1768418177679550000;1.967550048828125;0.3330230712890625;-0.902984619140625;0.079833984375;-0.0133661394938826;-0.0943073257803917;-0.067599281668663
1768418177689552000;1.9775517578125;0.312042236328125;-0.89410400390625;0.0951995849609375;-0.0196749009191989;-0.1045072376728057;-0.0753091350197792
1768418177699552800;1.987552734375;0.2916259765625;-0.898651123046875;0.1085205078125;-0.0192839484661817;-0.0981979370117187;-0.0747972726821899
1768418177709555000;1.997554931640625;0.2854461669921875;-0.9162139892578124;0.1172332763671875;-0.0091833779588341;-0.0646194741129875;-0.0771943852305412
1768418177719556900;2.007556884765625;0.2886810302734375;-0.9404144287109376;0.1179656982421875;0.0082728434354066;-0.0174538251012563;-0.084989994764328
1768418177729557800;2.017557861328125;0.2927093505859375;-0.957611083984375;0.107421875;0.0218882542103528;0.0112276207655668;-0.104560762643814
1768418177739560000;2.027559814453125;0.292755126953125;-0.96856689453125;0.090911865234375;0.0258206780999898;0.0257751382887363;-0.1265539526939392
1768418177749560800;2.037560791015625;0.2930908203125;-0.96832275390625;0.0698699951171875;0.0161901544779539;0.0323254503309726;-0.1438290774822235
1768418177759562800;2.047562744140625;0.2900848388671875;-0.956878662109375;0.05792236328125;-0.0047108656726777;0.0351454690098762;-0.1488310247659683
1768418177769565000;2.05756494140625;0.284912109375;-0.9420623779296876;0.056304931640625;-0.0230999924242496;0.0413908511400222;-0.1491404771804809
1768418177779565800;2.06756591796875;0.2758636474609375;-0.92535400390625;0.064453125;-0.0367798507213592;0.0536248795688152;-0.1423078775405883
1768418177789568000;2.077568115234375;0.26715087890625;-0.916961669921875;0.0811004638671875;-0.0375985093414783;0.0714797750115394;-0.1256271600723266
1768418177799570000;2.08756982421875;0.2661895751953125;-0.9206390380859376;0.0965576171875;-0.0250166691839694;0.0915173962712287;-0.1081570982933044
1768418177809570800;2.09757080078125;0.268096923828125;-0.9347381591796876;0.1029205322265625;-0.0067971860989928;0.1032643392682075;-0.1016864106059074
1768418177819573000;2.107572998046875;0.2697906494140625;-0.95233154296875;0.099700927734375;0.0100220078602433;0.1081230044364929;-0.0962463766336441
1768418177829575000;2.117574951171875;0.2700653076171875;-0.965545654296875;0.0947418212890625;0.0186679605394601;0.1065173894166946;-0.0917584151029586
1768418177839575800;2.127575927734375;0.2684783935546875;-0.97808837890625;0.0908966064453125;0.0183750130236148;0.0977257639169693;-0.0966293364763259
1768418177849578000;2.137577880859375;0.26873779296875;-0.9852142333984376;0.0913238525390625;0.0200615916401147;0.0859695002436637;-0.1085592359304428
1768418177859580000;2.147579833984375;0.268768310546875;-0.983123779296875;0.093231201171875;0.0225513819605112;0.0716845691204071;-0.1218460127711296
1768418177869580800;2.157580810546875;0.2638702392578125;-0.978485107421875;0.09344482421875;0.0255325250327587;0.0634809732437133;-0.1268394440412521
1768418177879583000;2.1675830078125;0.2607879638671875;-0.9702911376953124;0.092437744140625;0.0341603681445121;0.0608582906424999;-0.1278218775987625
1768418177889585000;2.1775849609375;0.2616729736328125;-0.96337890625;0.0902862548828125;0.0436153896152973;0.059879045933485;-0.1269177347421646
1768418177899586000;2.1875859375;0.259521484375;-0.9635009765625;0.0839080810546875;0.0572153516113758;0.0652586296200752;-0.1176797598600387
1768418177909588000;2.197587890625;0.2576904296875;-0.9702606201171876;0.0814971923828125;0.0654897913336753;0.0692967846989631;-0.1068745180964469
1768418177919588900;2.2075888671875;0.2635345458984375;-0.9795074462890624;0.0770111083984375;0.074320301413536;0.0741176381707191;-0.1088529825210571
1768418177929591000;2.217591064453125;0.2655181884765625;-0.989013671875;0.0732879638671875;0.0843734666705131;0.0830781087279319;-0.1162299364805221
1768418177939593000;2.227593017578125;0.269775390625;-0.99627685546875;0.068450927734375;0.0905197784304618;0.0846565663814544;-0.1369301527738571
1768418177949593900;2.23759375;0.2651214599609375;-0.9945068359375;0.0636138916015625;0.0935480594635009;0.0885343924164772;-0.1533400267362594
1768418177959596000;2.247595947265625;0.25225830078125;-0.988067626953125;0.0560150146484375;0.0972575768828392;0.0892771482467651;-0.1614240407943725
1768418177969597700;2.25759765625;0.239471435546875;-0.980438232421875;0.049774169921875;0.0988956838846206;0.0872877687215805;-0.1657924354076385
1768418177979598800;2.267598876953125;0.23443603515625;-0.97784423828125;0.049163818359375;0.0962343886494636;0.09013681858778;-0.1668100208044052
1768418177989601000;2.27760107421875;0.2328338623046875;-0.9739532470703124;0.0476531982421875;0.092849776148796;0.0922234058380127;-0.1657247841358184
1768418177999602700;2.287602783203125;0.2332611083984375;-0.9770355224609376;0.0452728271484375;0.0824155136942863;0.092981606721878;-0.1668760627508163
1768418178009603800;2.297603759765625;0.22772216796875;-0.9839630126953124;0.042755126953125;0.0696661621332168;0.0881615504622459;-0.169713407754898
1768418178019605800;2.307605712890625;0.2147064208984375;-0.99371337890625;0.038848876953125;0.0541159659624099;0.0899450704455375;-0.1766690462827682
1768418178029607700;2.317607666015625;0.200469970703125;-1.006317138671875;0.03802490234375;0.0378765426576137;0.0835215225815773;-0.1883595287799835
1768418178039608800;2.32760888671875;0.1789703369140625;-1.0110626220703125;0.040679931640625;0.0158687122166156;0.0810184180736541;-0.2064778059720993
1768418178049610800;2.33761083984375;0.1633148193359375;-1.0105133056640625;0.0464630126953125;0.0010351707460358;0.0842594876885414;-0.2308830171823501
1768418178059612700;2.34761279296875;0.151519775390625;-1.0084075927734375;0.0511932373046875;-0.0033246902748942;0.0880275964736938;-0.2663555145263672
1768418178069613800;2.35761376953125;0.144439697265625;-1.00103759765625;0.0495758056640625;0.0046727824956178;0.0963427796959877;-0.3040504455566406
1768418178079615700;2.36761572265625;0.140106201171875;-0.98492431640625;0.04962158203125;0.0171571485698223;0.0909594669938087;-0.3362675011157989
1768418178089617000;2.377616943359375;0.1298675537109375;-0.9631805419921876;0.048065185546875;0.0210858434438705;0.0854174271225929;-0.3492746353149414
1768418178099618800;2.387618896484375;0.1158294677734375;-0.94244384765625;0.0504302978515625;0.0198759697377681;0.0825894176959991;-0.3417845070362091
1768418178109620700;2.397620849609375;0.10760498046875;-0.93292236328125;0.053375244140625;0.0217867884784936;0.0791741833090782;-0.3399564921855926
1768418178119621600;2.40762158203125;0.10931396484375;-0.935272216796875;0.056427001953125;0.031619444489479;0.0928697511553764;-0.3564696907997131
1768418178129623800;2.417623779296875;0.1169586181640625;-0.9447021484375;0.0516815185546875;0.0480258502066135;0.1113891080021858;-0.3955398797988891
1768418178139625700;2.427625732421875;0.118865966796875;-0.9641876220703124;0.0387725830078125;0.0633848309516906;0.1288194954395294;-0.4479628801345825
1768418178149626600;2.437626708984375;0.108673095703125;-0.9893798828125;0.0158538818359375;0.0660309493541717;0.1627425700426101;-0.5084030628204346
1768418178159628800;2.44762890625;0.0849456787109375;-1.014495849609375;-0.0106353759765625;0.0590582601726055;0.2147626280784607;-0.5684357285499573
1768418178169630700;2.457630615234375;0.0589447021484375;-1.03863525390625;-0.0350189208984375;0.0346285514533519;0.2762443721294403;-0.6215362548828125
1768418178179631900;2.4676318359375;0.0398712158203125;-1.0563201904296875;-0.0480499267578125;-0.0021803299896419;0.3195367157459259;-0.6715038418769836
1768418178189633800;2.4776337890625;0.0138092041015625;-1.0679473876953125;-0.0496673583984375;-0.0566052235662937;0.3567024767398834;-0.702197790145874
1768418178199635700;2.4876357421875;-0.014739990234375;-1.072845458984375;-0.0439605712890625;-0.1202417239546775;0.3952735662460327;-0.7040260434150696
1768418178209636900;2.497636962890625;-0.03924560546875;-1.06964111328125;-0.02667236328125;-0.1798091828823089;0.4344350695610046;-0.6796892881393433
1768418178219638800;2.507638671875;-0.05279541015625;-1.0644989013671875;-0.0040435791015625;-0.2265449911355972;0.4613561630249023;-0.638017475605011
1768418178229641000;2.517640869140625;-0.0511474609375;-1.0578765869140625;0.0301055908203125;-0.2575689554214477;0.48905810713768;-0.5860413908958435
1768418178239641900;2.527641845703125;-0.0347442626953125;-1.0520782470703125;0.062469482421875;-0.2761562168598175;0.5037893652915955;-0.5482849478721619
1768418178249643800;2.537643798828125;-0.0216217041015625;-1.0450592041015625;0.090789794921875;-0.2827320992946625;0.5105753540992737;-0.5300012826919556
1768418178259644700;2.547644775390625;-0.0183563232421875;-1.033721923828125;0.1067962646484375;-0.2724736034870147;0.5283573269844055;-0.5070980787277222
1768418178269646800;2.557646728515625;-0.01708984375;-1.0238189697265625;0.111541748046875;-0.2479360401630401;0.5354498624801636;-0.4730005860328674
1768418178279648800;2.567648681640625;-0.01483154296875;-1.013092041015625;0.1082763671875;-0.2149080485105514;0.5386272668838501;-0.4514625370502472
1768418178289650000;2.57764990234375;-0.0193328857421875;-1.0001678466796875;0.0989227294921875;-0.178383857011795;0.5319677591323853;-0.4317636489868164
1768418178299651800;2.58765185546875;-0.0142669677734375;-0.9897308349609376;0.0843505859375;-0.1454621255397796;0.5035704970359802;-0.4169008135795593
1768418178309653800;2.59765380859375;-0.0167388916015625;-0.9857330322265624;0.068756103515625;-0.11638093739748;0.4667096436023712;-0.3969886302947998
1768418178319655000;2.607655029296875;-0.0274200439453125;-0.9896087646484376;0.058746337890625;-0.0942434147000312;0.4407683312892914;-0.3699604868888855
1768418178329656800;2.61765673828125;-0.0373992919921875;-1.00054931640625;0.0517578125;-0.0795656666159629;0.4168355762958526;-0.3369932174682617
1768418178339658800;2.62765869140625;-0.038787841796875;-1.010894775390625;0.058380126953125;-0.0674152597784996;0.4008464813232422;-0.3092713057994842
1768418178349660000;2.637659912109375;-0.03271484375;-1.0123443603515625;0.0675811767578125;-0.0573325306177139;0.3622394502162933;-0.2934121787548065
1768418178359661800;2.647661865234375;-0.022064208984375;-1.00384521484375;0.0527801513671875;-0.0595030076801776;0.3115437626838684;-0.2863478660583496
1768418178369664000;2.6576640625;-0.029327392578125;-0.9947052001953124;0.05291748046875;-0.0571101568639278;0.2726954519748688;-0.2646436393260956
1768418178379665000;2.667664794921875;-0.043426513671875;-0.981658935546875;0.064056396484375;-0.0418939217925071;0.228798821568489;-0.2341437935829162
1768418178389666800;2.677666748046875;-0.047882080078125;-0.9685516357421876;0.0605926513671875;-0.0172277223318815;0.1704747974872589;-0.2014231234788894
1768418178399668000;2.68766796875;-0.0573577880859375;-0.96002197265625;0.072052001953125;0.0167214553803205;0.1153178066015243;-0.154646560549736
1768418178409670000;2.697669921875;-0.0601348876953125;-0.95758056640625;0.0848236083984375;0.054357249289751;0.0635182559490203;-0.0986248403787612
1768418178419672000;2.707672119140625;-0.049163818359375;-0.95965576171875;0.092559814453125;0.0824450775980949;0.0030932615045458;-0.0648495703935623
1768418178429673000;2.7176728515625;-0.0353546142578125;-0.966461181640625;0.10595703125;0.0989252477884292;-0.0396499410271644;-0.0651366561651229
1768418178439675000;2.7276748046875;-0.0370635986328125;-0.976470947265625;0.106231689453125;0.10786734521389;-0.0686024948954582;-0.0497321374714374
1768418178449677000;2.737677001953125;-0.042755126953125;-0.9768829345703124;0.0883331298828125;0.1136352196335792;-0.1031146645545959;-0.0050418963655829
1768418178459678000;2.747677978515625;-0.0442352294921875;-0.97003173828125;0.062652587890625;0.1209804862737655;-0.1475657522678375;0.0472181104123592
1768418178469679900;2.757679931640625;-0.036041259765625;-0.96246337890625;0.0425567626953125;0.1252937316894531;-0.1808488816022873;0.0777528509497642
1768418178479682000;2.76768212890625;-0.027801513671875;-0.9616851806640624;0.03302001953125;0.134433701634407;-0.2013695985078811;0.0824229717254638
1768418178489683000;2.777682861328125;-0.0218658447265625;-0.9648284912109376;0.029541015625;0.147494375705719;-0.1896873712539672;0.0805787295103073
1768418178499685000;2.78768505859375;-0.023101806640625;-0.972320556640625;0.022247314453125;0.167497381567955;-0.1678079068660736;0.0773291438817977
1768418178509687000;2.79768701171875;-0.0284881591796875;-0.9805145263671876;0.0075531005859375;0.1800222247838974;-0.1499455571174621;0.0744095221161842
1768418178519688000;2.80768798828125;-0.035614013671875;-0.9825286865234376;-0.011688232421875;0.1768144518136978;-0.1391866505146026;0.0639004185795784
1768418178529690000;2.817690185546875;-0.0502471923828125;-0.97686767578125;-0.029022216796875;0.1633074283599853;-0.1264141350984573;0.0589064583182334
1768418178539692000;2.827692138671875;-0.0679473876953125;-0.9665374755859376;-0.03875732421875;0.1399967819452285;-0.1033245250582695;0.0747575908899307
1768418178549693000;2.83769287109375;-0.0804290771484375;-0.9505462646484376;-0.0417022705078125;0.1207224205136299;-0.0756324455142021;0.0993886366486549
1768418178559695000;2.847695068359375;-0.08526611328125;-0.9333038330078124;-0.037200927734375;0.1077088862657547;-0.0451967716217041;0.13077212870121
1768418178569696000;2.857696044921875;-0.091827392578125;-0.9237823486328124;-0.033599853515625;0.0918079540133476;-0.022086925804615;0.1576386243104934
1768418178579698000;2.867697998046875;-0.09661865234375;-0.9227294921875;-0.0278167724609375;0.0780141055583953;-0.0022674154024571;0.180122897028923
1768418178589700000;2.8777001953125;-0.1013946533203125;-0.9278717041015624;-0.016815185546875;0.0633866935968399;0.0182708837091922;0.1982710063457489
1768418178599701000;2.887700927734375;-0.1079254150390625;-0.938201904296875;-0.003570556640625;0.0475129224359989;0.0335784666240215;0.2164484113454818
1768418178609703000;2.897702880859375;-0.1080322265625;-0.9488983154296876;0.0141143798828125;0.025001224130392;0.0321419574320316;0.2258397936820984
1768418178619705000;2.907705078125;-0.1010589599609375;-0.958526611328125;0.033172607421875;0.0029654297977685;0.0226291455328464;0.2350250333547592
1768418178629706000;2.9177060546875;-0.0955352783203125;-0.9593353271484376;0.048828125;-0.0168362371623516;0.0184333361685276;0.2437399625778198
1768418178639708200;2.927708251953125;-0.0860748291015625;-0.9521636962890624;0.056060791015625;-0.0258108247071504;0.0135501632466912;0.2590315639972687
1768418178649709800;2.937709716796875;-0.08087158203125;-0.93743896484375;0.0537567138671875;-0.0356237739324569;-0.0069460566155612;0.278357595205307
1768418178659711000;2.9477109375;-0.0946502685546875;-0.922882080078125;0.053955078125;-0.0505206994712352;-0.0316471420228481;0.2967509925365448
1768418178669713000;2.957712890625;-0.1150665283203125;-0.92047119140625;0.0592193603515625;-0.0631874874234199;-0.0511135160923004;0.3180424273014068
1768418178679714800;2.96771484375;-0.12359619140625;-0.9298095703125;0.0698699951171875;-0.0749962106347084;-0.0615634955465793;0.3330743610858917
1768418178689716000;2.977716064453125;-0.1235198974609375;-0.9434356689453124;0.077484130859375;-0.0846549645066261;-0.0717764496803283;0.3435387313365936
1768418178699718000;2.9877177734375;-0.122406005859375;-0.956695556640625;0.0806884765625;-0.0914414972066879;-0.0925096943974495;0.3515806794166565
1768418178709719800;2.9977197265625;-0.11669921875;-0.970855712890625;0.08148193359375;-0.1018462032079696;-0.1169516518712043;0.3578303158283233
1768418178719721000;3.007720947265625;-0.11260986328125;-0.979217529296875;0.080596923828125;-0.1100032031536102;-0.1352017670869827;0.3547370433807373
1768418178729723000;3.017722900390625;-0.1101837158203125;-0.9866943359375;0.0755462646484375;-0.1127326712012291;-0.1650880277156829;0.3416036665439605
1768418178739724000;3.02772412109375;-0.111053466796875;-0.989715576171875;0.0780487060546875;-0.1194837838411331;-0.2181400507688522;0.3292668461799621
1768418178749725700;3.0377255859375;-0.1238555908203125;-0.9820098876953124;0.0856170654296875;-0.1255925446748733;-0.2770217359066009;0.3430497646331787
1768418178759727900;3.047727783203125;-0.1346893310546875;-0.976593017578125;0.0933837890625;-0.1225626692175865;-0.3138860166072845;0.3916098475456238
1768418178769729000;3.05772900390625;-0.113067626953125;-0.9846649169921876;0.094024658203125;-0.1071450933814048;-0.307199090719223;0.4672020673751831
1768418178779731000;3.06773095703125;-0.0413818359375;-1.0123138427734375;0.0907135009765625;-0.0720254555344581;-0.2905524671077728;0.5434145331382751
1768418178789732900;3.07773291015625;0.0379180908203125;-1.0751495361328125;0.06610107421875;-0.0311041232198476;-0.2629624009132385;0.5749205350875854
1768418178799733800;3.087733642578125;0.082550048828125;-1.16351318359375;0.0343017578125;0.0219913180917501;-0.2241787761449813;0.523316502571106
1768418178809736000;3.09773583984375;0.084197998046875;-1.2649078369140625;0.032684326171875;0.0755719915032386;-0.1710423231124878;0.3900098204612732
1768418178819737900;3.10773779296875;0.0587005615234375;-1.3626861572265625;0.0543670654296875;0.1247941330075264;-0.0848264768719673;0.2000835537910461
1768418178829738800;3.11773876953125;0.042083740234375;-1.4325408935546875;0.08599853515625;0.1958555281162262;0.0895796865224838;0.0247519519180059
1768418178839741000;3.127740966796875;0.0576019287109375;-1.4557342529296875;0.0909271240234375;0.271414190530777;0.3187350928783417;-0.1368997991085052
1768418178849742800;3.137742919921875;0.078033447265625;-1.3919219970703125;0.0211944580078125;0.2833400964736938;0.469295859336853;-0.282657265663147
1768418178859743700;3.14774365234375;0.01934814453125;-1.2185516357421875;-0.095611572265625;0.2049238532781601;0.4858636558055877;-0.3011236190795898
1768418178869746000;3.157745849609375;-0.0892333984375;-1.0091400146484375;-0.1573944091796875;0.1120541021227836;0.3772410154342651;-0.2203185260295868
1768418178879746800;3.167746826171875;-0.125;-0.87872314453125;-0.1407928466796875;0.0265836734324693;0.2241308391094207;-0.1528169810771942
1768418178889748700;3.177748779296875;-0.110443115234375;-0.8398590087890625;-0.0800018310546875;-0.0358280390501022;0.0652157515287399;-0.095548890531063
1768418178899751000;3.1877509765625;-0.10333251953125;-0.8741455078125;-0.00750732421875;-0.0751147270202636;-0.058314174413681;-0.011633220128715
1768418178909751800;3.197751708984375;-0.0697479248046875;-0.9314422607421876;0.0378265380859375;-0.1115230619907379;-0.1593185514211654;0.0874073430895805
1768418178919754000;3.20775390625;-0.0012054443359375;-0.985595703125;0.0573577880859375;-0.164007306098938;-0.2428619116544723;0.1942112892866134
1768418178929756000;3.217755859375;0.065185546875;-1.041015625;0.070587158203125;-0.2316569238901138;-0.2810276746749878;0.2895926535129547
1768418178939756800;3.2277568359375;0.142791748046875;-1.105255126953125;0.10089111328125;-0.2701502740383148;-0.3102326989173889;0.3103871643543243
1768418178949759000;3.237759033203125;0.2157135009765625;-1.1741790771484375;0.1419525146484375;-0.2723415195941925;-0.3469946980476379;0.25220587849617
1768418178959761000;3.247760986328125;0.2433013916015625;-1.2324371337890625;0.1787109375;-0.2770529091358185;-0.3680152893066406;0.2088091373443603
1768418178969761800;3.25776171875;0.2528533935546875;-1.2300872802734375;0.1986083984375;-0.2780561149120331;-0.4249065518379211;0.1946776062250137
1768418178979764000;3.267763916015625;0.276214599609375;-1.1746978759765625;0.1978302001953125;-0.2821888029575348;-0.5330820083618164;0.181892842054367
1768418178989766000;3.277765869140625;0.295867919921875;-1.11297607421875;0.1881561279296875;-0.2885068953037262;-0.6447678208351135;0.1622432321310043
1768418178999766800;3.287766845703125;0.312713623046875;-1.05810546875;0.1821746826171875;-0.2895410060882568;-0.7384111881256104;0.1479969173669815
1768418179009769000;3.29776904296875;0.319488525390625;-1.0140838623046875;0.1723785400390625;-0.2797416448593139;-0.7977988719940186;0.1616895645856857
1768418179019769900;3.307769775390625;0.32147216796875;-0.9756317138671876;0.1624755859375;-0.2478417605161667;-0.8143576383590698;0.2068250775337219
1768418179029772000;3.31777197265625;0.332550048828125;-0.9429931640625;0.13824462890625;-0.1960203796625137;-0.8023819327354431;0.245630532503128
1768418179039774000;3.32777392578125;0.337982177734375;-0.9324493408203124;0.0986480712890625;-0.1467249989509582;-0.7673110365867615;0.2446438372135162
1768418179049774800;3.33777490234375;0.31976318359375;-0.9387054443359376;0.056365966796875;-0.1066153943538665;-0.7043445706367493;0.2123285084962844
1768418179059777000;3.347777099609375;0.2985076904296875;-0.94732666015625;0.011688232421875;-0.0827705115079879;-0.6103978753089905;0.1613859683275222
1768418179069779000;3.357779052734375;0.2745819091796875;-0.9559478759765624;-0.029327392578125;-0.0787153169512748;-0.4897803664207458;0.1098013296723365
1768418179079779800;3.36777978515625;0.2462921142578125;-0.9646759033203124;-0.0592041015625;-0.0915802493691444;-0.3642913997173309;0.0598241835832595
1768418179089782000;3.377781982421875;0.21533203125;-0.9708404541015624;-0.0736846923828125;-0.1184816360473632;-0.2497373968362808;0.0086222505196928
1768418179099784000;3.387783935546875;0.191680908203125;-0.9735107421875;-0.0711669921875;-0.1507636755704879;-0.1482003927230835;-0.0480463542044162
1768418179109784800;3.397784912109375;0.1723785400390625;-0.971588134765625;-0.057708740234375;-0.189015731215477;-0.0664682388305664;-0.0945763066411018
1768418179119787000;3.407787109375;0.1571044921875;-0.9692535400390624;-0.0328826904296875;-0.2327972948551178;0.0007693872321397;-0.1349096149206161
1768418179129789000;3.417788818359375;0.1446380615234375;-0.9673004150390624;-0.0028076171875;-0.2698200345039367;0.0645417049527168;-0.164210245013237
1768418179139789800;3.427789794921875;0.142791748046875;-0.965240478515625;0.02618408203125;-0.2935969829559326;0.1218380182981491;-0.1899049580097198
1768418179149792000;3.4377919921875;0.13983154296875;-0.9597015380859376;0.052398681640625;-0.3031092882156372;0.166148766875267;-0.2086402922868728
1768418179159794000;3.4477939453125;0.14105224609375;-0.941436767578125;0.0850982666015625;-0.3024069964885711;0.1772831678390503;-0.22508504986763
1768418179169795000;3.457795166015625;0.139892578125;-0.910858154296875;0.1249237060546875;-0.2941866219043731;0.1618275195360183;-0.223704993724823
1768418179179797000;3.467796875;0.1398773193359375;-0.8699951171875;0.1689453125;-0.2812782824039459;0.1248340755701065;-0.2038572579622268
1768418179189798000;3.4777978515625;0.1529998779296875;-0.8281097412109375;0.22003173828125;-0.253705769777298;0.0649883225560188;-0.1682976633310318
1768418179199800000;3.487800048828125;0.16033935546875;-0.7856292724609375;0.2662811279296875;-0.2101127505302429;0.0143991792574524;-0.1197727397084236
1768418179209802000;3.497802001953125;0.153350830078125;-0.7540740966796875;0.289825439453125;-0.1569512635469436;-0.0374810621142387;-0.0574851296842098
1768418179219803000;3.507802978515625;0.150665283203125;-0.7384796142578125;0.2942352294921875;-0.1104159876704216;-0.0965270698070526;0.0110856741666793
1768418179229805000;3.51780517578125;0.15155029296875;-0.7397918701171875;0.28436279296875;-0.0780969336628913;-0.1627905070781707;0.0762023627758026
1768418179239807000;3.527806884765625;0.156341552734375;-0.76531982421875;0.2727203369140625;-0.0617957226932048;-0.2474281638860702;0.1302304416894912
1768418179249808000;3.537807861328125;0.1569976806640625;-0.80615234375;0.260650634765625;-0.0564305186271667;-0.3247871398925781;0.1737267822027206
1768418179259810000;3.54781005859375;0.1593475341796875;-0.8636474609375;0.246856689453125;-0.05220328271389;-0.3715956509113312;0.2000377476215362
1768418179269812000;3.55781201171875;0.1681365966796875;-0.9268035888671876;0.230987548828125;-0.0350219011306762;-0.3885131180286407;0.2070415914058685
1768418179279812900;3.567812744140625;0.170379638671875;-0.9808807373046876;0.2133636474609375;-0.0137733360752463;-0.3699956238269806;0.1863879859447479
1768418179289815000;3.57781494140625;0.1749420166015625;-1.0231170654296875;0.18402099609375;0.008487494662404;-0.3322999179363251;0.1335671097040176
1768418179299816000;3.58781591796875;0.1827850341796875;-1.0526275634765625;0.1446990966796875;0.0152567168697714;-0.2829800248146057;0.0459312722086906
1768418179309818000;3.597818115234375;0.1839141845703125;-1.05511474609375;0.1103363037109375;0.0209891721606254;-0.2406533509492874;-0.0468748323619365
1768418179319820000;3.607820068359375;0.173004150390625;-1.040435791015625;0.0834197998046875;0.0352682434022426;-0.1915619820356369;-0.1213938072323799
1768418179329821000;3.617821044921875;0.1555328369140625;-1.0175323486328125;0.0626068115234375;0.045483861118555;-0.1484075784683227;-0.1725059896707534
1768418179339823000;3.627822998046875;0.1315155029296875;-0.986297607421875;0.053314208984375;0.0449826531112194;-0.1028150618076324;-0.1943375170230865
1768418179349825000;3.637824951171875;0.1123809814453125;-0.955230712890625;0.0597381591796875;0.0441685281693935;-0.0642042830586433;-0.1963218450546264
1768418179359826000;3.647825927734375;0.087188720703125;-0.93780517578125;0.07989501953125;0.0422686263918876;-0.0305421967059373;-0.1928488165140152
1768418179369828000;3.657828125;0.067138671875;-0.9282379150390624;0.09893798828125;0.0375950448215007;-0.0028658276423811;-0.1876106411218643
1768418179379829800;3.667829833984375;0.0483551025390625;-0.9262847900390624;0.11309814453125;0.0426092445850372;0.0244387630373239;-0.186132326722145
1768418179389831000;3.677830810546875;0.03387451171875;-0.9261932373046876;0.1161346435546875;0.0584550537168979;0.0591733083128929;-0.1923737078905105
1768418179399832300;3.687832275390625;0.0218505859375;-0.925384521484375;0.108917236328125;0.077544592320919;0.0950223878026008;-0.2050665915012359
1768418179409834500;3.69783447265625;0.0053253173828125;-0.91766357421875;0.103973388671875;0.1006296724081039;0.1481500566005706;-0.2035565823316574
1768418179419835400;3.70783544921875;-0.0039215087890625;-0.904541015625;0.10015869140625;0.125170961022377;0.2002414762973785;-0.1829320043325424
1768418179429837300;3.71783740234375;-0.0034027099609375;-0.896636962890625;0.09405517578125;0.1421640664339065;0.2432645857334137;-0.1573267728090286
1768418179439838500;3.72783837890625;0.000457763671875;-0.8920135498046875;0.094482421875;0.1497008055448532;0.2709486782550812;-0.1267874985933303
1768418179449840400;3.73784033203125;0.010833740234375;-0.8947906494140625;0.1058807373046875;0.144518032670021;0.2789511978626251;-0.0891911312937736
1768418179459842300;3.74784228515625;0.016510009765625;-0.8942413330078125;0.1376953125;0.1384955644607544;0.2933956682682037;-0.0460077039897441
1768418179469843500;3.757843505859375;0.0138397216796875;-0.9117889404296876;0.1971588134765625;0.1716375350952148;0.4034481346607208;0.0071732243523001
1768418179479845400;3.767845458984375;0.037445068359375;-0.9541168212890624;0.2320556640625;0.1961442083120346;0.4421369433403015;0.0463131703436374
1768418179489847300;3.777847412109375;0.0696258544921875;-0.966400146484375;0.2078094482421875;0.1773034036159515;0.416139155626297;0.045571744441986
1768418179499848400;3.787848388671875;0.0764923095703125;-0.97760009765625;0.1894989013671875;0.1685338914394378;0.3870657086372375;0.0180940497666597
1768418179509850400;3.797850341796875;0.0723419189453125;-0.9929656982421876;0.1840362548828125;0.1824220120906829;0.3764356970787048;-0.0084094638004899
1768418179519852300;3.807852294921875;0.06060791015625;-1.01324462890625;0.179229736328125;0.2020692080259323;0.365216314792633;-0.0354970060288906
1768418179529853400;3.817853515625;0.0302581787109375;-1.0284271240234375;0.1745452880859375;0.1904671490192413;0.3798834085464477;-0.0711591318249702
1768418179539855400;3.82785546875;0.005615234375;-1.0402984619140625;0.118133544921875;0.1314347237348556;0.3455113172531128;-0.1135420054197311
1768418179549857300;3.837857177734375;-0.025970458984375;-1.0623016357421875;0.0761871337890625;0.0478708520531654;0.3623004257678985;-0.1637428551912307
1768418179559858400;3.8478583984375;-0.060882568359375;-1.100738525390625;0.0623931884765625;-0.0418795384466648;0.4213983714580536;-0.234239399433136
1768418179569860000;3.857860107421875;-0.0901031494140625;-1.14111328125;0.048095703125;-0.1306578814983368;0.5107753872871399;-0.3213615119457245
1768418179579861500;3.867861572265625;-0.1185455322265625;-1.1655426025390625;0.0402984619140625;-0.1944728046655655;0.6198728680610657;-0.4013751149177551
1768418179589863400;3.877863525390625;-0.1287078857421875;-1.1536865234375;0.030914306640625;-0.2294193357229232;0.7203126549720764;-0.4621263444423675
1768418179599865000;3.887864990234375;-0.12811279296875;-1.1141357421875;0.0358123779296875;-0.2438739091157913;0.7905375361442566;-0.5037837624549866
1768418179609866500;3.897866455078125;-0.112823486328125;-1.027313232421875;0.081085205078125;-0.2541236281394958;0.841394305229187;-0.5469504594802856
1768418179619868200;3.9078681640625;-0.105377197265625;-0.936065673828125;0.139801025390625;-0.275628387928009;0.942715346813202;-0.5668847560882568
1768418179629870300;3.917870361328125;-0.1053619384765625;-0.8673095703125;0.18316650390625;-0.238163560628891;1.0448627471923828;-0.5166098475456238
1768418179639871200;3.927871337890625;-0.0898590087890625;-0.8438873291015625;0.2252655029296875;-0.1580162644386291;1.0830734968185425;-0.3733581304550171
1768418179649873200;3.937873046875;-0.0189208984375;-0.84930419921875;0.2535858154296875;-0.0580646358430385;1.0321296453475952;-0.1678553074598312
1768418179659875300;3.947875244140625;0.099151611328125;-0.893341064453125;0.281951904296875;0.0311709679663181;0.8910545706748962;0.0492863245308399
1768418179669876200;3.957876220703125;0.2171783447265625;-0.983917236328125;0.3171539306640625;0.0480277128517627;0.6713773012161255;0.1846609264612198
1768418179679878100;3.967878173828125;0.3121337890625;-1.1112518310546875;0.3304290771484375;-0.0411793962121009;0.3590220808982849;0.1971183866262436
1768418179689880300;3.97788037109375;0.364715576171875;-1.2635498046875;0.311309814453125;-0.2509249150753021;0.0142063666135072;0.1351554244756698
1768418179699881200;3.987881103515625;0.357879638671875;-1.41796875;0.294403076171875;-0.5147861242294312;-0.2664535343647003;0.0649832636117935
1768418179709883100;3.997883056640625;0.3200836181640625;-1.5111236572265625;0.27935791015625;-0.7730637192726135;-0.414674162864685;0.0113490605726838
1768418179719884300;4.00788427734375;0.2889556884765625;-1.5333404541015625;0.2757568359375;-0.8947539329528809;-0.4447124898433685;-0.0852485820651054
1768418179729886200;4.01788623046875;0.302734375;-1.4335784912109375;0.30645751953125;-0.8192317485809326;-0.372494488954544;-0.3023824989795685
1768418179739888000;4.02788818359375;0.311676025390625;-1.2702789306640625;0.2934112548828125;-0.6731909513473511;-0.2127066701650619;-0.5281980633735657
1768418179749889300;4.03788916015625;0.265045166015625;-1.1053924560546875;0.21502685546875;-0.498964786529541;0.067876785993576;-0.7026103138923645
1768418179759891200;4.04789111328125;0.2125244140625;-0.9679107666015624;0.1167755126953125;-0.2822601795196533;0.3890489637851715;-0.7919474244117737
1768418179769893400;4.057893310546875;0.1503448486328125;-0.847015380859375;0.0040740966796875;-0.0761158093810081;0.6779473423957825;-0.8211644291877747
1768418179779894300;4.067894287109375;0.1232452392578125;-0.741973876953125;-0.1189727783203125;0.0928204879164695;0.9045751690864564;-0.8311816453933716
1768418179789896200;4.077896240234375;0.104217529296875;-0.6776580810546875;-0.2109375;0.2419143617153167;1.023112177848816;-0.769744336605072
1768418179799898400;4.0878984375;0.069854736328125;-0.660675048828125;-0.234649658203125;0.3421714603900909;0.986939013004303;-0.6011529564857483
1768418179809899300;4.097899169921875;0.01806640625;-0.703338623046875;-0.2065582275390625;0.3065780401229858;0.8494091033935547;-0.3245863318443298
1768418179819901200;4.107901123046875;-0.024078369140625;-0.784149169921875;-0.0792694091796875;0.3113232553005218;0.7365422248840332;-0.0710217133164405
1768418179829902300;4.11790234375;0.0184478759765625;-0.8792266845703125;0.3009490966796875;0.4733955264091491;0.6739403605461121;0.0764966383576393
1768418179839904300;4.127904296875;0.0386962890625;-1.02044677734375;0.2874908447265625;0.2707529366016388;0.3027529418468475;0.2643879652023315
1768418179849906200;4.13790625;0.030853271484375;-1.163848876953125;0.162109375;-0.0697700232267379;-0.1203517094254493;0.470944881439209
1768418179859907300;4.1479072265625;0.0812835693359375;-1.23907470703125;0.2639923095703125;-0.2437431514263153;-0.3785401284694671;0.495632916688919
1768418179869909200;4.1579091796875;0.176849365234375;-1.2761383056640625;0.331939697265625;-0.2768555581569671;-0.477298378944397;0.3097013831138611
1768418179879911400;4.167911376953125;0.233489990234375;-1.2746429443359375;0.3929443359375;-0.140279084444046;-0.4338403940200805;-0.013677729293704
1768418179889912300;4.177912353515625;0.2139129638671875;-1.2689666748046875;0.492523193359375;0.1219272390007972;-0.3775275945663452;-0.2694602310657501
1768418179899914200;4.187914306640625;0.1702728271484375;-1.232574462890625;0.4284820556640625;0.2811187505722046;-0.3495004773139953;-0.4238287806510925
1768418179909916400;4.19791650390625;0.177825927734375;-1.1224517822265625;0.2560272216796875;0.2973563075065613;-0.3879139125347137;-0.5304479002952576
1768418179919917300;4.207917236328125;0.17156982421875;-0.9945220947265624;0.1136627197265625;0.2709918320178985;-0.4768009185791015;-0.5901176333427429
1768418179929919200;4.217919189453125;0.1319122314453125;-0.88507080078125;0.020965576171875;0.255228579044342;-0.5228565335273743;-0.5859913229942322
1768418179939920100;4.227920166015625;0.082672119140625;-0.7932281494140625;-0.046905517578125;0.2704969942569732;-0.5162343382835388;-0.5219202041625977
1768418179949922300;4.23792236328125;0.0360870361328125;-0.7101593017578125;-0.0971527099609375;0.3201769292354584;-0.4906221926212311;-0.416439026594162
1768418179959924200;4.24792431640625;0.002532958984375;-0.6478271484375;-0.12908935546875;0.3622964322566986;-0.4392082691192627;-0.2787999510765075
1768418179969925400;4.25792529296875;-0.0243682861328125;-0.616455078125;-0.1432647705078125;0.3850233256816864;-0.3887788951396942;-0.1218289658427238
1768418179979927300;4.26792724609375;-0.0258331298828125;-0.6242523193359375;-0.1432952880859375;0.3957459926605224;-0.3526749610900879;0.02848756685853
1768418179989929200;4.27792919921875;-0.0238494873046875;-0.6861724853515625;-0.144866943359375;0.3872047066688537;-0.302641898393631;0.1532172560691833
1768418179999930400;4.287930419921875;-0.035430908203125;-0.7779693603515625;-0.1333465576171875;0.3603470027446747;-0.2318518757820129;0.2381246834993362
1768418180009932300;4.297932373046875;-0.0349884033203125;-0.8697662353515625;-0.1071014404296875;0.3206057250499725;-0.1476509720087051;0.2659541964530945
1768418180019933200;4.30793310546875;-0.0261383056640625;-0.954437255859375;-0.0812835693359375;0.2486055493354797;-0.0957238599658012;0.2479690611362457
1768418180029935400;4.317935302734375;-0.0095062255859375;-1.0212860107421875;-0.0571136474609375;0.1508273333311081;-0.0639462247490882;0.1933745294809341
1768418180039937300;4.327937255859375;-0.003021240234375;-1.053466796875;-0.0413665771484375;0.0429999306797981;-0.053485594689846;0.1213962063193321
1768418180049938200;4.337938232421875;-0.005615234375;-1.0609588623046875;0.0010986328125;0.0132087459787726;-0.0388967990875244;0.0613416545093059
1768418180059940400;4.3479404296875;-0.0226898193359375;-1.06024169921875;0.04827880859375;0.0287650693207979;0.0058027617633342;0.0272966027259826
1768418180069942300;4.3579423828125;-0.0254669189453125;-1.0439605712890625;0.0604248046875;0.0509992688894271;0.0540869385004043;0.0068629658780992
1768418180079943400;4.367943359375;-0.0157470703125;-1.00341796875;0.072967529296875;0.0673156604170799;0.1181652545928955;-0.0141605604439973
1768418180089945300;4.3779453125;-0.0102996826171875;-0.942413330078125;0.13372802734375;0.1462951600551605;0.1871195584535598;-0.0282313711941242
1768418180099947300;4.387947265625;-0.028961181640625;-0.9473876953125;0.1497650146484375;0.1560364663600921;0.2082765102386474;-0.0128244524821639
1768418180109948400;4.397948486328125;-0.0287933349609375;-0.959197998046875;0.0496368408203125;0.0593743771314621;0.0968621000647544;-0.0039577237330377
1768418180119950300;4.407950439453125;-0.0247039794921875;-0.9513397216796876;0.0208892822265625;-0.0327547490596771;-0.0174239967018365;-0.0074706994928419
1768418180129951200;4.417951171875;-0.05078125;-0.9412994384765624;0.0638427734375;-0.0976988598704338;-0.0896670371294021;0.0045633264817297
1768418180139953400;4.427953369140625;-0.0692901611328125;-0.946929931640625;0.1138916015625;-0.1469074189662933;-0.1566130518913269;0.0199944805353879
1768418180149955300;4.437955322265625;-0.0758056640625;-0.9616851806640624;0.1588592529296875;-0.1762748956680297;-0.2327397763729095;0.0294380504637956
1768418180159956200;4.447956298828125;-0.0811767578125;-0.9813079833984376;0.225982666015625;-0.1661450266838073;-0.2687414586544037;0.02023895829916
1768418180169958400;4.45795849609375;-0.068328857421875;-0.98748779296875;0.2220611572265625;-0.1844542622566223;-0.3064246475696563;-0.0113908722996711
1768418180179960300;4.467960205078125;-0.0603790283203125;-0.962921142578125;0.186248779296875;-0.2269670963287353;-0.3486708998680115;-0.0429013930261135
1768418180189961200;4.477961181640625;-0.0707550048828125;-0.9210968017578124;0.169647216796875;-0.2307727634906768;-0.3732564151287079;-0.0477233119308948
1768418180199963400;4.48796337890625;-0.0794830322265625;-0.880279541015625;0.1622467041015625;-0.1954382061958313;-0.4010049402713775;-0.0264249499887228
1768418180209965300;4.49796533203125;-0.0856475830078125;-0.8606414794921875;0.1277618408203125;-0.153631642460823;-0.4293010234832763;0.0106177572160959
1768418180219966500;4.507966552734375;-0.090789794921875;-0.8585205078125;0.0981597900390625;-0.1230510920286178;-0.4543416798114776;0.063933178782463
1768418180229968400;4.517968505859375;-0.08831787109375;-0.8774566650390625;0.0630950927734375;-0.126306802034378;-0.5048277378082275;0.1162320673465728
1768418180239969300;4.52796923828125;-0.0789642333984375;-0.888641357421875;0.0364990234375;-0.1581787168979644;-0.5094584226608276;0.1618727892637252
1768418180249971500;4.537971435546875;-0.079010009765625;-0.926116943359375;0.01507568359375;-0.251048743724823;-0.5377603769302368;0.2064754068851471
1768418180259973400;4.547973388671875;-0.05975341796875;-0.988739013671875;-0.0175933837890625;-0.307014524936676;-0.6091136932373047;0.2204002737998962
1768418180269974300;4.557974365234375;-0.080841064453125;-0.935760498046875;0.0382080078125;-0.2528490424156189;-0.5821068286895752;0.2416357994079589
1768418180279976400;4.5679765625;-0.137908935546875;-0.90252685546875;0.113494873046875;-0.1343127936124801;-0.4393888115882873;0.2705340087413788
1768418180289978400;4.577978271484375;-0.1353759765625;-0.929412841796875;0.172271728515625;0.0293251313269138;-0.4155181050300598;0.3167260289192199
1768418180299979300;4.587979248046875;-0.17926025390625;-0.9926910400390624;0.1321258544921875;0.0886097624897956;-0.3417389690876007;0.3717842102050781
1768418180309981400;4.5979814453125;-0.166107177734375;-1.079315185546875;0.0836181640625;0.0821718350052833;-0.3938303887844085;0.381543904542923
1768418180319982300;4.607982421875;-0.1114501953125;-1.1215667724609375;0.0513153076171875;0.0305858720093965;-0.4776943922042846;0.3224587440490722
1768418180329984300;4.617984375;-0.1031494140625;-1.14520263671875;0.038330078125;-0.0280175190418958;-0.5765373706817627;0.2430680394172668
1768418180339986400;4.627986328125;-0.12646484375;-1.1421661376953125;0.04693603515625;-0.0686693415045738;-0.6296617984771729;0.1878513991832733
1768418180349987300;4.6379873046875;-0.1670989990234375;-1.115234375;0.0569000244140625;-0.0868315696716308;-0.6096401810646057;0.1730399578809738
1768418180359989500;4.647989501953125;-0.20111083984375;-1.081268310546875;0.06927490234375;-0.0751184523105621;-0.6194943785667419;0.2183147519826889
1768418180369991400;4.657991455078125;-0.19586181640625;-1.0417938232421875;0.071746826171875;-0.0413991063833236;-0.5811718106269836;0.2970186173915863
1768418180379992300;4.667992431640625;-0.1105499267578125;-1.033599853515625;0.090057373046875;0.0296188779175281;-0.5425362586975098;0.3650485277175903
1768418180389994500;4.677994384765625;-0.0251312255859375;-1.0807037353515625;0.0872344970703125;0.090481698513031;-0.5121809840202332;0.4395422041416168
1768418180399997000;4.687996826171875;0.03277587890625;-1.144927978515625;0.087432861328125;0.1312477737665176;-0.50030118227005;0.4903483986854553
1768418180409998000;4.697998046875;0.08160400390625;-1.2070770263671875;0.1149749755859375;0.1606637090444564;-0.5062285661697388;0.4965945780277252
1768418180420000000;4.708;0.1270294189453125;-1.2810211181640625;0.1616363525390625;0.1685554534196853;-0.4844340682029724;0.4363861083984375
1768418180430001000;4.7180009765625;0.1729888916015625;-1.36090087890625;0.1911773681640625;0.1725611239671707;-0.3244273364543915;0.3186602592468261
1768418180440003000;4.728003173828125;0.208404541015625;-1.3926544189453125;0.1699981689453125;0.2374399900436401;-0.0870829671621322;0.1900847256183624
1768418180450005000;4.7380048828125;0.196502685546875;-1.2863616943359375;0.0228271484375;0.3080593049526214;0.0677556097507476;0.1682878136634826
1768418180460006000;4.748005859375;0.0923919677734375;-1.17205810546875;-0.188629150390625;0.2762590050697326;0.1166677623987197;0.231135219335556
1768418180470008000;4.758008056640625;0.0145111083984375;-1.1033782958984375;-0.159515380859375;0.2616379857063293;0.0796841755509376;0.2468244284391403
1768418180480010000;4.768010009765625;0.0243072509765625;-1.10565185546875;-0.0583648681640625;0.2040961384773254;-0.0731144249439239;0.1909523755311966
1768418180490011100;4.77801123046875;0.04620361328125;-1.1147308349609375;-0.006500244140625;0.0849092975258827;-0.2633312344551086;0.1568790972232818
1768418180500013000;4.788012939453125;0.06378173828125;-1.0792999267578125;0.0460205078125;-0.0185758154839277;-0.4216479063034057;0.1977868527173996
1768418180510014000;4.798013916015625;0.0903778076171875;-1.02978515625;0.084930419921875;-0.0971489176154136;-0.5414222478866577;0.2928560972213745
1768418180520016100;4.80801611328125;0.1544036865234375;-0.9747467041015624;0.1395111083984375;-0.1627359241247177;-0.6680899262428284;0.3924348950386047
1768418180530018000;4.81801806640625;0.24078369140625;-0.9337615966796876;0.2154388427734375;-0.1958358138799667;-0.725046694278717;0.444267988204956
1768418180540019000;4.82801904296875;0.2905120849609375;-0.9263153076171876;0.2474517822265625;-0.2097058296203613;-0.7628211975097656;0.4394745826721191
1768418180550021000;4.838021240234375;0.2907562255859375;-0.928466796875;0.2473297119140625;-0.1973104029893875;-0.7183163166046143;0.4294432401657104
1768418180560023000;4.84802294921875;0.274993896484375;-0.91998291015625;0.2556610107421875;-0.1312674731016159;-0.5696362853050232;0.406613826751709
1768418180570024000;4.85802392578125;0.2820281982421875;-0.9219512939453124;0.250244140625;-0.0361947566270828;-0.4135138094425201;0.3534709811210632
1768418180580026000;4.868026123046875;0.273223876953125;-0.9345703125;0.2025909423828125;0.042101114988327;-0.3073580861091614;0.2544285655021667
1768418180590028000;4.878028076171875;0.24822998046875;-0.9503631591796876;0.1534576416015625;0.0901051238179206;-0.2197249084711074;0.1296922117471695
1768418180600029000;4.88802880859375;0.20721435546875;-0.967987060546875;0.1192626953125;0.1056031212210655;-0.1276711374521255;0.0302135627716779
1768418180610031000;4.898031005859375;0.171295166015625;-0.994781494140625;0.089019775390625;0.0839460343122482;-0.0537564381957054;-0.0172982960939407
1768418180620032000;4.908031982421875;0.147003173828125;-1.01806640625;0.058868408203125;0.0270103123039007;-0.01558268815279;-0.0292460359632968
1768418180630034200;4.9180341796875;0.12359619140625;-1.0404510498046875;0.037994384765625;-0.0510480031371116;-0.0473334267735481;-0.0250488948076963
1768418180640036000;4.9280361328125;0.1072845458984375;-1.070648193359375;0.0176239013671875;-0.1699467003345489;-0.1136554554104805;-0.017266871407628
1768418180650037000;4.938037109375;0.109893798828125;-1.09246826171875;0.032806396484375;-0.290089339017868;-0.1628174185752868;-0.0092073464766144
1768418180660039200;4.9480390625;0.133056640625;-1.103424072265625;0.0925750732421875;-0.3652501404285431;-0.1788472384214401;-0.0004159857635386
1768418180670041000;4.958041015625;0.171966552734375;-1.086883544921875;0.164215087890625;-0.374371737241745;-0.1636232882738113;-0.0151435332372784
1768418180680042000;4.9680419921875;0.19580078125;-1.05487060546875;0.21734619140625;-0.3577754497528076;-0.1421965509653091;-0.0533244758844375
1768418180690044200;4.978044189453125;0.1979217529296875;-1.0166168212890625;0.24652099609375;-0.3200078308582306;-0.1313793212175369;-0.1089563146233558
1768418180700045000;4.988045166015625;0.1795654296875;-0.9564056396484376;0.2594757080078125;-0.2627149820327759;-0.1093384772539138;-0.1575472801923751
1768418180710047000;4.998046875;0.1605377197265625;-0.8939666748046875;0.25469970703125;-0.2185368686914444;-0.1007258147001266;-0.18393175303936
1768418180720049200;5.008049072265625;0.14434814453125;-0.8406982421875;0.2288818359375;-0.179751917719841;-0.1226992905139923;-0.186005562543869
1768418180730050000;5.018050048828125;0.128326416015625;-0.798095703125;0.200042724609375;-0.1457111239433288;-0.1694071441888809;-0.1685978025197982
1768418180740052000;5.028052001953125;0.112884521484375;-0.763885498046875;0.180328369140625;-0.1232175379991531;-0.2178617566823959;-0.1423462182283401
1768418180750054100;5.03805419921875;0.100433349609375;-0.741973876953125;0.1698455810546875;-0.1096753627061843;-0.2514761686325073;-0.099444031715393
1768418180760055000;5.048054931640625;0.097320556640625;-0.723907470703125;0.1628875732421875;-0.1059469357132911;-0.2875295281410217;-0.0354192443192005
1768418180770057200;5.05805712890625;0.0941009521484375;-0.7211456298828125;0.1565704345703125;-0.091201014816761;-0.3272492289543152;0.0486711338162422
1768418180780058000;5.06805810546875;0.0958404541015625;-0.730743408203125;0.164398193359375;-0.0675556063652038;-0.3414068520069122;0.1248125061392784
1768418180790060000;5.07806005859375;0.0986175537109375;-0.7544403076171875;0.1712799072265625;-0.0248606093227863;-0.3228220045566559;0.1798427402973175
1768418180800062200;5.088062255859375;0.1044158935546875;-0.796173095703125;0.178192138671875;0.0140939811244606;-0.281834065914154;0.2056807279586792
1768418180810063000;5.09806298828125;0.10723876953125;-0.8371124267578125;0.172821044921875;0.0424941964447498;-0.2448177337646484;0.2166833132505417
1768418180820065000;5.10806494140625;0.107269287109375;-0.88214111328125;0.164703369140625;0.0644700676202774;-0.2055978924036026;0.2008122056722641
1768418180830067200;5.118067138671875;0.0990447998046875;-0.9206085205078124;0.1495361328125;0.0834165960550308;-0.1646291613578796;0.1629324555397033
1768418180840068000;5.128068115234375;0.089874267578125;-0.949066162109375;0.1281585693359375;0.0952884331345558;-0.1186962872743606;0.1112831160426139
1768418180850070000;5.138070068359375;0.0806732177734375;-0.9613800048828124;0.11083984375;0.1055067181587219;-0.0542227588593959;0.0664890110492706
1768418180860071200;5.1480712890625;0.0814361572265625;-0.9638214111328124;0.091064453125;0.1110506206750869;0.0136518962681293;0.0317275710403919
1768418180870073000;5.158072998046875;0.0885467529296875;-0.9557342529296876;0.0738067626953125;0.1059879511594772;0.0807078927755355;0.0093897730112075
1768418180880075300;5.1680751953125;0.096771240234375;-0.9379425048828124;0.067138671875;0.0927059650421142;0.1456594616174698;-0.0054898401722311
1768418180890076200;5.178076171875;0.090301513671875;-0.921173095703125;0.06201171875;0.0873908326029777;0.2223177552223205;-0.0058751995675265
1768418180900078000;5.188078125;0.0656280517578125;-0.905181884765625;0.0558929443359375;0.0943539291620254;0.3147675395011902;0.0027907264884561
1768418180910080300;5.198080322265625;0.0345458984375;-0.8950042724609375;0.0481414794921875;0.109993077814579;0.4035724997520447;0.0229122396558523
1768418180920081200;5.2080810546875;0.015869140625;-0.892913818359375;0.058807373046875;0.1264029443264007;0.4609838724136352;0.0509412102401256
1768418180930083000;5.2180830078125;0.0034332275390625;-0.8881072998046875;0.09368896484375;0.1473002433776855;0.515620231628418;0.0692946538329124
1768418180940084000;5.228083984375;-0.0069122314453125;-0.8875885009765625;0.1339263916015625;0.1588250696659088;0.5515153408050537;0.0859982669353485
1768418180950086100;5.238086181640625;-0.0065765380859375;-0.89532470703125;0.1732635498046875;0.1673519760370254;0.5481880307197571;0.0938527286052703
1768418180960088000;5.248088134765625;0.00067138671875;-0.905029296875;0.2193450927734375;0.1827655583620071;0.5336942672729492;0.0976506620645523
1768418180970089200;5.258089111328125;0.0055999755859375;-0.917755126953125;0.253387451171875;0.1871792078018188;0.5107429027557373;0.1137721017003059
1768418180980091100;5.268091064453125;0.019866943359375;-0.9375;0.27520751953125;0.1987266838550567;0.4761612117290497;0.1297124624252319
1768418180990093000;5.278093017578125;0.041839599609375;-0.9519500732421876;0.291595458984375;0.2196809649467468;0.4514622688293457;0.1292237639427185
1768418181000094200;5.28809423828125;0.0717620849609375;-0.965179443359375;0.287017822265625;0.2417170256376266;0.4079126417636871;0.1245597749948501
1768418181010096000;5.29809619140625;0.086456298828125;-0.977569580078125;0.256011962890625;0.2854548990726471;0.3970970213413238;0.1210225597023963
1768418181020097000;5.308096923828125;0.1064910888671875;-0.978607177734375;0.2143096923828125;0.3393492996692657;0.4139162302017212;0.0976370796561241
1768418181030099200;5.31809912109375;0.1067657470703125;-0.9851531982421876;0.17633056640625;0.3591184914112091;0.4391118586063385;0.0336554311215877
1768418181040101000;5.32810107421875;0.0699310302734375;-1.0098419189453125;0.13006591796875;0.3203321993350982;0.4642832577228546;-0.0653619617223739
1768418181050102000;5.33810205078125;0.020050048828125;-1.0526580810546875;0.085418701171875;0.2201922833919525;0.497131198644638;-0.1681136339902877
1768418181060104200;5.348104248046875;-0.0407257080078125;-1.110076904296875;0.0529022216796875;0.0752191171050071;0.5312135219573975;-0.2452771365642547
1768418181070105000;5.35810498046875;-0.100494384765625;-1.174163818359375;0.0327606201171875;-0.0862525999546051;0.5490537881851196;-0.2908057272434234
1768418181080107300;5.368107177734375;-0.1470794677734375;-1.2220001220703125;0.034515380859375;-0.22500941157341;0.6001164317131042;-0.3107847571372986
1768418181090109200;5.378109130859375;-0.18194580078125;-1.2266998291015625;0.058990478515625;-0.290203332901001;0.6861456036567688;-0.3370589911937713
1768418181100110000;5.388110107421875;-0.16937255859375;-1.160552978515625;0.11444091796875;-0.305404394865036;0.7801043391227722;-0.3900937139987945
1768418181110112300;5.3981123046875;-0.1339569091796875;-1.048553466796875;0.190673828125;-0.2998162806034088;0.8466516733169556;-0.4588557183742523
1768418181120114200;5.4081142578125;-0.0975189208984375;-0.95037841796875;0.238037109375;-0.3013997972011566;0.8832498788833618;-0.4690886437892914
1768418181130115000;5.418114990234375;-0.0665740966796875;-0.883544921875;0.2610015869140625;-0.2842538356781006;0.9048752784729004;-0.3732694685459137
1768418181140117200;5.4281171875;-0.0065155029296875;-0.8618011474609375;0.2776947021484375;-0.250227689743042;0.8780689835548401;-0.1514816731214523
1768418181150118100;5.4381181640625;0.10052490234375;-0.9090576171875;0.2866973876953125;-0.2008122056722641;0.7976151704788208;0.1341679245233535
1768418181160120000;5.4481201171875;0.240692138671875;-1.039886474609375;0.2878875732421875;-0.184549331665039;0.6429941654205322;0.3210525810718536
1768418181170122200;5.458122314453125;0.3843536376953125;-1.2108306884765625;0.2749481201171875;-0.2340007722377777;0.3511383235454559;0.290492296218872
1768418181180123100;5.468123046875;0.442352294921875;-1.3794708251953125;0.288055419921875;-0.3689591288566589;0.042640671133995;0.19943268597126
1768418181190125000;5.478125;0.4187774658203125;-1.48785400390625;0.332000732421875;-0.5597413182258606;-0.1626653522253036;0.219012513756752
1768418181200127200;5.488127197265625;0.4011688232421875;-1.5140380859375;0.3376312255859375;-0.7450312972068787;-0.3202155530452728;0.3237338662147522
1768418181210128100;5.498128173828125;0.439239501953125;-1.4458465576171875;0.3353729248046875;-0.7573100924491882;-0.4245081543922424;0.3399498462677002
1768418181220130300;5.50813037109375;0.496368408203125;-1.29266357421875;0.3675079345703125;-0.6289113163948059;-0.3323928713798523;0.138487309217453
1768418181230131200;5.518131103515625;0.4775543212890625;-1.1588134765625;0.328643798828125;-0.4542242288589477;-0.1380295008420944;-0.2085713148117065
1768418181240133000;5.528133056640625;0.399688720703125;-1.0363311767578125;0.22467041015625;-0.2367827147245407;0.1176368817687034;-0.5139605402946472
1768418181250135300;5.53813525390625;0.2868194580078125;-0.9282073974609376;0.0714569091796875;-0.0138572258874773;0.4215083420276642;-0.6890436410903931
1768418181260136200;5.54813623046875;0.1813507080078125;-0.829559326171875;-0.097808837890625;0.1872300803661346;0.7482712864875793;-0.7300446033477783
1768418181270138000;5.55813818359375;0.130401611328125;-0.749603271484375;-0.2506256103515625;0.3662400543689728;0.994113564491272;-0.6906048059463501
1768418181280139300;5.56813916015625;0.1203460693359375;-0.706573486328125;-0.3524322509765625;0.4961972534656524;1.0638548135757446;-0.6126394271850586
1768418181290141200;5.57814111328125;0.1006011962890625;-0.7313690185546875;-0.3748931884765625;0.4933053255081177;0.9952318072319032;-0.5016961097717285
1768418181300143000;5.58814306640625;0.0638580322265625;-0.7972564697265625;-0.2953643798828125;0.378629058599472;0.8341673016548157;-0.3820344507694244
1768418181310144300;5.598144287109375;0.029632568359375;-0.876434326171875;-0.1446533203125;0.2017640173435211;0.5786463022232056;-0.2446371763944625
1768418181320146200;5.608146240234375;-0.01593017578125;-0.975006103515625;0.020599365234375;0.005503156222403;0.3289121091365814;-0.067048542201519
1768418181330147000;5.61814697265625;-0.023284912109375;-1.0556488037109375;0.2028961181640625;-0.1163479164242744;0.1529256254434585;0.1175460740923881
1768418181340149200;5.628149169921875;0.0298004150390625;-1.1038665771484375;0.369598388671875;-0.1222231164574623;0.0429546572268009;0.2467733025550842
1768418181350151200;5.638151123046875;0.0988311767578125;-1.1440277099609375;0.464385986328125;-0.0292566884309053;-0.0036203011404722;0.2931240200996399
1768418181360152000;5.648152099609375;0.159027099609375;-1.1776885986328125;0.48272705078125;0.1043082922697067;-0.0102555667981505;0.2494223415851593
1768418181370154200;5.658154296875;0.2127532958984375;-1.1908111572265625;0.4315338134765625;0.2157695740461349;0.0002657834847923;0.1363730281591415
1768418181380156200;5.66815625;0.2584991455078125;-1.1699676513671875;0.3358612060546875;0.284933477640152;-0.0006223807577043;-0.0037942056078463
1768418181390157000;5.678156982421875;0.281585693359375;-1.112701416015625;0.2320098876953125;0.3063159883022308;-0.0274047255516052;-0.1403778791427612
1768418181400159000;5.688158935546875;0.2648773193359375;-1.0291290283203125;0.1302032470703125;0.3116023540496826;-0.0778319463133812;-0.2492103576660156
1768418181410159900;5.698159912109375;0.2215576171875;-0.9453582763671876;0.053466796875;0.3250041902065277;-0.1170019879937172;-0.3114058077335357
1768418181420162000;5.708162109375;0.1661224365234375;-0.87847900390625;-0.0098419189453125;0.3374747037887573;-0.1360185593366623;-0.321505606174469
1768418181430164000;5.7181640625;0.1122283935546875;-0.82208251953125;-0.0692291259765625;0.3442892134189605;-0.1503932327032089;-0.2784878313541412
1768418181440164900;5.728164794921875;0.0682830810546875;-0.7761688232421875;-0.105743408203125;0.3443592488765716;-0.1670414507389068;-0.1715118288993835
1768418181450167000;5.7381669921875;0.0501251220703125;-0.749969482421875;-0.1245880126953125;0.3345516324043274;-0.1663330495357513;-0.0383969247341156
1768418181460168000;5.74816796875;0.054046630859375;-0.738861083984375;-0.12530517578125;0.3361620306968689;-0.1330430060625076;0.0831814408302307
1768418181470169900;5.758169921875;0.0551300048828125;-0.747802734375;-0.1071929931640625;0.3421117961406708;-0.0786849558353424;0.168375164270401
1768418181480172000;5.768172119140625;0.0491485595703125;-0.774993896484375;-0.087615966796875;0.336563378572464;-0.0271778255701065;0.2226783484220504
1768418181490173000;5.7781728515625;0.0471954345703125;-0.810394287109375;-0.061492919921875;0.3260942101478576;0.0065782740712165;0.2482281774282455
1768418181500174800;5.7881748046875;0.0454864501953125;-0.8513641357421875;-0.0338897705078125;0.2993582189083099;0.0190804842859506;0.2485389709472656
1768418181510176000;5.798176025390625;0.0474090576171875;-0.8864898681640625;-0.01611328125;0.2538250684738159;0.0057106162421405;0.2155685126781463
1768418181520178000;5.808177978515625;0.0484619140625;-0.907257080078125;-0.014617919921875;0.203586146235466;-0.0337611585855484;0.1868417859077453
1768418181530179800;5.818179931640625;0.0436553955078125;-0.925384521484375;0.00927734375;0.1681639701128006;-0.0570411831140518;0.1802946776151657
1768418181540181000;5.828180908203125;0.04833984375;-0.9353179931640624;0.052947998046875;0.1511037647724151;-0.0648218765854835;0.1637489795684814
1768418181550183000;5.838182861328125;0.0716400146484375;-0.93658447265625;0.081573486328125;0.1249374076724052;-0.1000909134745597;0.1320957243442535
1768418181560184800;5.848184814453125;0.0764923095703125;-0.9291229248046876;0.1025848388671875;0.0986381620168685;-0.1467801183462143;0.1088031828403472
1768418181570186000;5.85818603515625;0.0683441162109375;-0.9156494140625;0.11346435546875;0.0564198680222034;-0.2052165269851684;0.1010392680764198
1768418181580188000;5.86818798828125;0.0562744140625;-0.9058380126953124;0.11962890625;0.0109053784981369;-0.2652292847633362;0.0946801677346229
1768418181590188800;5.878188720703125;0.042999267578125;-0.899871826171875;0.11102294921875;-0.0341465175151824;-0.3304716646671295;0.087927721440792
1768418181600191000;5.88819091796875;0.015777587890625;-0.901214599609375;0.0977935791015625;-0.0804170742630958;-0.3716068565845489;0.0858462005853653
1768418181610193000;5.89819287109375;-0.0215911865234375;-0.9106597900390624;0.0873565673828125;-0.1205866038799285;-0.3891136646270752;0.0838751941919326
1768418181620194000;5.908194091796875;-0.0578460693359375;-0.9226226806640624;0.0778656005859375;-0.1649415493011474;-0.3860595524311065;0.0720941647887229
1768418181630196000;5.918196044921875;-0.07623291015625;-0.934234619140625;0.069000244140625;-0.2151514589786529;-0.3830549716949463;0.0451898500323295
1768418181640196900;5.92819677734375;-0.086395263671875;-0.944305419921875;0.067291259765625;-0.2627655863761902;-0.3788586258888244;0.009843842126429
1768418181650199000;5.938198974609375;-0.0832977294921875;-0.9567108154296876;0.070770263671875;-0.2951120734214782;-0.3741512298583984;-0.0331741981208324
1768418181660201000;5.948200927734375;-0.0676116943359375;-0.9659576416015624;0.0731353759765625;-0.3054379522800445;-0.3773542046546936;-0.0740388035774231
1768418181670201900;5.958201904296875;-0.0623321533203125;-0.9693145751953124;0.0810394287109375;-0.3029526770114898;-0.3923994600772857;-0.0987034067511558
1768418181680204000;5.9682041015625;-0.053863525390625;-0.967254638671875;0.0882415771484375;-0.3115075528621673;-0.4062244892120361;-0.1027277112007141
1768418181690205000;5.978204833984375;-0.0379638671875;-0.9559478759765624;0.0881195068359375;-0.3365199565887451;-0.3866334557533264;-0.0837199315428733
1768418181700206800;5.988206787109375;0.003448486328125;-0.9294586181640624;0.0811614990234375;-0.3827891945838928;-0.3427171409130096;-0.0473454110324382
1768418181710208800;5.998208740234375;0.028350830078125;-0.8933868408203125;0.0794830322265625;-0.4193668961524963;-0.3899797201156616;0.0194594524800777
1768418181720210000;6.0082099609375;-0.055816650390625;-0.8851776123046875;0.0997772216796875;-0.3774556815624237;-0.5281376242637634;0.1154823899269104
1768418181730211800;6.0182119140625;-0.211700439453125;-0.9380340576171876;0.1329193115234375;-0.2801373898983001;-0.5567042827606201;0.2114249020814895
1768418181740213000;6.028212890625;-0.2820281982421875;-1.042633056640625;0.1636962890625;-0.1606453359127044;-0.4860356748104095;0.2338234186172485
1768418181750215000;6.03821484375;-0.25628662109375;-1.18121337890625;0.1898956298828125;-0.0369628109037876;-0.4039272367954254;0.1564564555883407
1768418181760216800;6.048216796875;-0.2090911865234375;-1.3007965087890625;0.1930084228515625;0.0483334437012672;-0.3598295450210571;0.0618122331798076
1768418181770218000;6.058218017578125;-0.183746337890625;-1.331695556640625;0.16796875;0.0794402286410331;-0.3744625449180603;0.0035100462846457
1768418181780220000;6.068219970703125;-0.1769256591796875;-1.268768310546875;0.142913818359375;0.0862094536423683;-0.4395552575588226;-0.0372131504118442
1768418181790220800;6.078220703125;-0.171173095703125;-1.1728363037109375;0.1200103759765625;0.1102197170257568;-0.452115535736084;-0.0532288663089275
1768418181800223000;6.088222900390625;-0.126434326171875;-1.0957489013671875;0.0989990234375;0.1753172278404235;-0.4219552278518677;-0.050644002854824
1768418181810225000;6.098224853515625;-0.0435638427734375;-1.08837890625;0.06488037109375;0.266068160533905;-0.3579994142055511;-0.0211074165999889
1768418181820226000;6.10822607421875;0.0387725830078125;-1.1620025634765625;0.0072479248046875;0.3352834582328796;-0.2610531747341156;0.0243410263210535
1768418181830228000;6.11822802734375;0.1091461181640625;-1.276092529296875;-0.0301055908203125;0.3464426398277282;-0.1706031560897827;0.0471283644437789
1768418181840228900;6.128228759765625;0.1493072509765625;-1.4137420654296875;-0.00311279296875;0.2732115685939789;-0.0840509608387947;0.0196077898144722
1768418181850231000;6.13823095703125;0.1922149658203125;-1.5340423583984375;0.051727294921875;0.1479710936546325;0.1251051872968673;-0.0220222119241952
1768418181860232700;6.148232666015625;0.2552490234375;-1.50115966796875;0.0243682861328125;0.1492978781461715;0.4905683696269989;0.0271946024149656
1768418181870233900;6.15823388671875;0.3379669189453125;-1.310089111328125;-0.0994873046875;0.2369366437196731;0.6603361368179321;0.0507188364863395
1768418181880236000;6.168236083984375;0.3742218017578125;-1.19110107421875;-0.1419525146484375;0.3279975950717926;0.4982068538665771;-0.016040751710534
1768418181890237000;6.17823681640625;0.22796630859375;-1.1403656005859375;-0.1308135986328125;0.3066363632678985;0.2886986434459686;-0.0636823028326034
1768418181900238800;6.18823876953125;0.0729827880859375;-1.076416015625;-0.0908660888671875;0.1811133325099945;0.0717210546135902;-0.040667001157999
1768418181910240800;6.19824072265625;0.06451416015625;-1.004791259765625;-0.0236663818359375;0.038575354963541;-0.183072343468666;-0.010725081898272
1768418181920242000;6.208241943359375;0.12109375;-0.9703216552734376;0.05450439453125;-0.0633901581168174;-0.3845815062522888;0.0618548467755317
1768418181930243800;6.218243896484375;0.1800537109375;-0.9433135986328124;0.14617919921875;-0.1246710941195488;-0.4693712294101715;0.2358386218547821
1768418181940245000;6.228244873046875;0.2702484130859375;-0.9205780029296876;0.205810546875;-0.1584210693836212;-0.4910717308521271;0.4296576380729675
1768418181950247000;6.238246826171875;0.3629302978515625;-0.9261016845703124;0.252593994140625;-0.1391775906085968;-0.5337978601455688;0.5076498985290527
1768418181960248800;6.248248779296875;0.4085693359375;-0.96258544921875;0.2676544189453125;-0.0973028540611267;-0.5079109072685242;0.4612685441970825
1768418181970250000;6.25825;0.3973388671875;-0.997222900390625;0.240325927734375;-0.0327494256198406;-0.3672927916049957;0.4241134524345398
1768418181980252000;6.268251953125;0.3641204833984375;-0.9919586181640624;0.17730712890625;0.0282854344695806;-0.2054817825555801;0.4316675066947937
1768418181990252800;6.278252685546875;0.3538665771484375;-0.962554931640625;0.1018524169921875;0.066778227686882;-0.0860097184777259;0.4128842353820801
1768418182000255000;6.2882548828125;0.34881591796875;-0.941619873046875;0.04400634765625;0.0751024708151817;-0.0206943601369857;0.3034158051013946
1768418182010256600;6.298256591796875;0.31378173828125;-0.9300537109375;0.0001678466796875;0.0705814883112907;0.0333776623010635;0.1485868096351623
1768418182020258000;6.308258056640625;0.2548675537109375;-0.919189453125;-0.033233642578125;0.0586710348725318;0.0923919826745987;0.0277224406599998
1768418182030260000;6.318260009765625;0.1980133056640625;-0.9022064208984376;-0.0538330078125;0.0284920949488878;0.1573129296302795;-0.0369854494929313
1768418182040260900;6.3282607421875;0.159423828125;-0.892730712890625;-0.0723876953125;-0.0190775543451309;0.219480961561203;-0.0564331822097301
1768418182050263000;6.338262939453125;0.1393890380859375;-0.8934478759765625;-0.089508056640625;-0.0682413727045059;0.2731473743915558;-0.0497020408511161
1768418182060264700;6.3482646484375;0.1268310546875;-0.895050048828125;-0.1021728515625;-0.1164006441831588;0.3106247186660766;-0.0277224406599998
1768418182070265900;6.358265869140625;0.1256561279296875;-0.897552490234375;-0.0799560546875;-0.1639332771301269;0.3462953567504883;0.0029292108956724
1768418182080268000;6.36826806640625;0.1493988037109375;-0.8990020751953125;-0.0350341796875;-0.2026404589414596;0.3507502973079681;0.0203864984214305
1768418182090269000;6.37826904296875;0.163818359375;-0.897186279296875;0.0443878173828125;-0.2237870246171951;0.3738739788532257;0.03228709846735
1768418182100270800;6.388270751953125;0.1730194091796875;-0.89111328125;0.13140869140625;-0.199736014008522;0.4031152427196502;0.0492823272943496
1768418182110272800;6.398272705078125;0.196807861328125;-0.8697509765625;0.177215576171875;-0.1888330280780792;0.4302312731742859;0.0551953464746475
1768418182120274000;6.40827392578125;0.220733642578125;-0.8273162841796875;0.2139892578125;-0.1566660404205322;0.4412322640419006;0.0610021017491817
1768418182130275800;6.41827587890625;0.224090576171875;-0.791748046875;0.23443603515625;-0.1406548470258712;0.4414160251617431;0.0747671797871589
1768418182140277000;6.428277099609375;0.240234375;-0.7650909423828125;0.2339324951171875;-0.1257470101118087;0.4100666046142578;0.0806916505098342
1768418182150279000;6.43827880859375;0.2554779052734375;-0.7444610595703125;0.2545013427734375;-0.0978067219257354;0.3393879234790802;0.0785749703645706
1768418182160280800;6.44828076171875;0.23040771484375;-0.7500762939453125;0.2658843994140625;-0.0573173500597476;0.2873968780040741;0.0929219499230384
1768418182170282000;6.458281982421875;0.1871490478515625;-0.76605224609375;0.2537994384765625;-0.0206112693995237;0.2413859963417053;0.1308954358100891
1768418182180284000;6.468283935546875;0.157562255859375;-0.795379638671875;0.2385406494140625;0.0037643781397491;0.20778489112854;0.1763944774866104
1768418182190284800;6.478284912109375;0.1417236328125;-0.8330078125;0.22943115234375;0.0146934585645794;0.1741041541099548;0.2289373129606247
1768418182200287000;6.488286865234375;0.1383514404296875;-0.8709869384765625;0.2194671630859375;0.0364424288272857;0.1630728095769882;0.2829443514347076
1768418182210288600;6.49828857421875;0.1433563232421875;-0.8895111083984375;0.210662841796875;0.0554640591144561;0.1724063903093338;0.3171699643135071
1768418182220290000;6.5082900390625;0.1501007080078125;-0.8865814208984375;0.1764373779296875;0.0663577169179916;0.1779415011405944;0.3283235430717468
1768418182230292000;6.5182919921875;0.1450347900390625;-0.8813629150390625;0.1448516845703125;0.0774636343121528;0.1943668127059936;0.3235546350479126
1768418182240292900;6.52829296875;0.133148193359375;-0.872772216796875;0.123779296875;0.0942378193140029;0.212792158126831;0.310821533203125
1768418182250295000;6.538294921875;0.1254425048828125;-0.8751373291015625;0.1168365478515625;0.1142107248306274;0.2265045046806335;0.2933237552642822
1768418182260296700;6.548296630859375;0.122161865234375;-0.894073486328125;0.1259765625;0.1382167339324951;0.2368426322937011;0.2658966481685638
1768418182270297900;6.5582978515625;0.1181640625;-0.92864990234375;0.1348419189453125;0.1546910405158996;0.2362681925296783;0.227851003408432
1768418182280299800;6.5682998046875;0.114471435546875;-0.9585113525390624;0.143768310546875;0.1665024310350418;0.2375276088714599;0.1828489154577255
1768418182290301000;6.578301025390625;0.104400634765625;-0.9789886474609376;0.144439697265625;0.1677924692630767;0.2471155077219009;0.146704226732254
1768418182300302800;6.588302734375;0.085540771484375;-0.9872589111328124;0.1343841552734375;0.159240260720253;0.2677177190780639;0.1205234825611114
1768418182310304800;6.5983046875;0.06610107421875;-0.9866790771484376;0.115814208984375;0.1448658406734466;0.3009422719478607;0.1064603999257087
1768418182320306000;6.608305908203125;0.04876708984375;-0.98211669921875;0.0941925048828125;0.1345777809619903;0.3358317911624908;0.0905216410756111
1768418182330307800;6.618307861328125;0.03692626953125;-0.97015380859375;0.080535888671875;0.1212811544537544;0.3610665798187256;0.0741679668426513
1768418182340309000;6.62830908203125;0.0314178466796875;-0.9544525146484376;0.074798583984375;0.0999345853924751;0.3801169693470001;0.0599376372992992
1768418182350311000;6.638310791015625;0.019622802734375;-0.9264984130859376;0.08673095703125;0.0775970593094825;0.3942343890666961;0.0608305931091308
1768418182360312800;6.648312744140625;0.0141754150390625;-0.9068603515625;0.126861572265625;0.0687500387430191;0.4485034942626953;0.0660892724990844
1768418182370314000;6.65831396484375;0.0244598388671875;-0.9073486328125;0.1604461669921875;0.0638463571667671;0.4888612926006317;0.0784348845481872
1768418182380316000;6.66831591796875;0.0394744873046875;-0.91326904296875;0.1938934326171875;0.0659241527318954;0.5078964829444885;0.1037604808807373
1768418182390317000;6.678317138671875;0.066070556640625;-0.9308624267578124;0.210357666015625;0.077480673789978;0.5577524900436401;0.1379938274621963
1768418182400319000;6.688319091796875;0.100982666015625;-0.95654296875;0.20733642578125;0.1379200518131256;0.563366711139679;0.14659184217453
1768418182410319400;6.6983193359375;0.149993896484375;-0.9918212890625;0.178802490234375;0.2116525918245315;0.5457016825675964;0.0886023044586181
1768418182420321500;6.708321533203125;0.1829986572265625;-1.0346221923828125;0.1602630615234375;0.2576464414596557;0.5617431998252869;-0.0385364741086959
1768418182430323500;6.718323486328125;0.146759033203125;-1.0664215087890625;0.150482177734375;0.2262381911277771;0.5507150888442993;-0.2044620662927627
1768418182440324600;6.72832470703125;0.060943603515625;-1.094940185546875;0.13250732421875;0.12882961332798;0.5380306839942932;-0.3763310313224792
1768418182450326500;6.738326416015625;-0.040496826171875;-1.1386566162109375;0.1090545654296875;-0.0222571026533842;0.5533971190452576;-0.5277175903320312
1768418182460327400;6.748327392578125;-0.1183929443359375;-1.1982879638671875;0.0797576904296875;-0.2100991755723953;0.5748574137687683;-0.6451672911643982
1768418182470329600;6.75832958984375;-0.151611328125;-1.2479095458984375;0.0450439453125;-0.3813769221305847;0.6033790707588196;-0.7044260501861572
1768418182480331500;6.76833154296875;-0.1346282958984375;-1.2526092529296875;0.006317138671875;-0.4959942996501922;0.6198890805244446;-0.6655415296554565
1768418182490332400;6.77833251953125;-0.054656982421875;-1.20904541015625;-0.00897216796875;-0.5716778635978699;0.5453570485115051;-0.4885928630828857
1768418182500334600;6.78833447265625;0.0708465576171875;-1.1497955322265625;0.03582763671875;-0.6512118577957153;0.3877285420894623;-0.1939202100038528
1768418182510335500;6.79833544921875;0.2122039794921875;-1.122222900390625;0.1450042724609375;-0.7635045647621155;0.1408833563327789;0.0670357570052146
1768418182520337400;6.80833740234375;0.3413238525390625;-1.1377716064453125;0.30999755859375;-0.8967912793159485;-0.1652307659387588;0.1947111636400222
1768418182530339600;6.818339599609375;0.4040985107421875;-1.1808929443359375;0.4792938232421875;-0.9711243510246276;-0.3522493839263916;0.2977432608604431
1768418182540340500;6.828340576171875;0.4662322998046875;-1.2545013427734375;0.5572967529296875;-0.9332517981529236;-0.4760642647743225;0.3947758078575134
1768418182550342400;6.83834228515625;0.5802764892578125;-1.3031768798828125;0.5726318359375;-0.7504960894584656;-0.5691606402397156;0.4170885682106018
1768418182560343600;6.848343505859375;0.6984405517578125;-1.2730560302734375;0.57586669921875;-0.4765220880508423;-0.4986460208892822;0.3306660652160644
1768418182570345500;6.858345458984375;0.7734832763671875;-1.2298736572265625;0.47369384765625;-0.2250568121671676;-0.3177782297134399;0.0792737826704979
1768418182580347600;6.86834765625;0.7282562255859375;-1.181610107421875;0.2819061279296875;-0.0008623315370641;-0.0432542636990547;-0.2519014775753021
1768418182590348500;6.8783486328125;0.58233642578125;-1.12274169921875;0.054290771484375;0.1956821531057357;0.2791847586631775;-0.5322676301002502
1768418182600350500;6.8883505859375;0.4201812744140625;-1.0575408935546875;-0.1822052001953125;0.3150186538696289;0.5681222677230835;-0.7623913884162903
1768418182610351400;6.898351318359375;0.2897491455078125;-0.9870452880859376;-0.3700714111328125;0.3591237962245941;0.602527916431427;-0.9168480634689332
1768418182620353500;6.908353515625;0.163970947265625;-0.917266845703125;-0.436004638671875;0.2945245802402496;0.4716833829879761;-0.9151548147201538
1768418182630354400;6.9183544921875;0.0006561279296875;-0.837799072265625;-0.3815765380859375;0.132323682308197;0.3488248288631439;-0.7050052881240845
1768418182640356600;6.928356689453125;-0.1097564697265625;-0.77606201171875;-0.2178497314453125;-0.0230206307023763;0.2021014392375946;-0.3455661833286285
1768418182650358500;6.938358642578125;-0.1160736083984375;-0.7630157470703125;0.0191497802734375;-0.1144738495349884;0.0639643371105194;0.0335768684744834
1768418182660359400;6.948359375;-0.051422119140625;-0.808502197265625;0.2475738525390625;-0.1495141237974167;-0.0602830462157726;0.3446569740772247
1768418182670361600;6.958361572265625;0.0659637451171875;-0.8792266845703125;0.425628662109375;-0.145282357931137;-0.2292164117097854;0.5846701264381409
1768418182680362500;6.968362548828125;0.2082672119140625;-0.9439697265625;0.546417236328125;-0.098807007074356;-0.4097337126731872;0.7244261503219604
1768418182690364400;6.978364501953125;0.33746337890625;-1.0066680908203125;0.5871429443359375;0.0107695572078228;-0.5486588478088379;0.7346601486206055
1768418182700366600;6.98836669921875;0.4332275390625;-1.062896728515625;0.536712646484375;0.1560591012239456;-0.6372451782226562;0.619340181350708
1768418182710367500;6.998367431640625;0.471221923828125;-1.0952606201171875;0.3994140625;0.2705960869789123;-0.6887962222099304;0.4218162298202514
1768418182720369400;7.008369384765625;0.465057373046875;-1.1013031005859375;0.22943115234375;0.3119989037513733;-0.6997128129005432;0.1817961633205413
1768418182730370600;7.01837060546875;0.432403564453125;-1.0754241943359375;0.0818328857421875;0.3206413984298706;-0.703763484954834;-0.0461888015270233
1768418182740372500;7.02837255859375;0.3614654541015625;-1.0297088623046875;-0.036163330078125;0.3157254755496979;-0.7067901492118835;-0.2180566936731338
1768418182750373400;7.038373291015625;0.2718505859375;-0.973114013671875;-0.134429931640625;0.3057649731636047;-0.6928709149360657;-0.3046882748603821
1768418182760375600;7.04837548828125;0.197509765625;-0.9004974365234375;-0.1986541748046875;0.314519852399826;-0.6585797667503357;-0.3126979768276214
1768418182770377500;7.05837744140625;0.150787353515625;-0.84033203125;-0.245361328125;0.3215271532535553;-0.5987004637718201;-0.2644058167934418
1768418182780378400;7.06837841796875;0.112335205078125;-0.8007965087890625;-0.2788848876953125;0.3245304226875305;-0.5026447772979736;-0.1817476898431778
1768418182790380500;7.078380615234375;0.090057373046875;-0.7713623046875;-0.271026611328125;0.3278593719005584;-0.4070678949356079;-0.0815425291657447
1768418182800381400;7.08838134765625;0.0696868896484375;-0.7597503662109375;-0.23187255859375;0.3284258246421814;-0.30458465218544;0.0249026864767074
1768418182810383400;7.09838330078125;0.055877685546875;-0.761993408203125;-0.1818389892578125;0.321177214384079;-0.2212668806314468;0.1061666533350944
1768418182820385500;7.108385498046875;0.05572509765625;-0.778594970703125;-0.127716064453125;0.3054746985435486;-0.1661210656166076;0.1422743201255798
1768418182830386400;7.118386474609375;0.0543060302734375;-0.8082427978515625;-0.0756988525390625;0.2844024300575256;-0.132076010107994;0.1444178968667984
1768418182840388600;7.128388671875;0.042938232421875;-0.84271240234375;-0.038482666015625;0.251275360584259;-0.1026661917567253;0.1239919885993003
1768418182850389500;7.138389404296875;0.0475921630859375;-0.87030029296875;-0.0009613037109375;0.2058945745229721;-0.1096205040812492;0.1065192520618438
1768418182860391400;7.148391357421875;0.0615081787109375;-0.8903350830078125;0.0361480712890625;0.1480208933353424;-0.124579481780529;0.0902337580919265
1768418182870392300;7.158392333984375;0.0796966552734375;-0.891387939453125;0.072113037109375;0.1035697981715202;-0.1452557295560836;0.0849979817867279
1768418182880394500;7.16839453125;0.10272216796875;-0.8795623779296875;0.0930023193359375;0.0700837448239326;-0.1584570109844207;0.0839188694953918
1768418182890396400;7.178396484375;0.123504638671875;-0.8654327392578125;0.1038055419921875;0.0548259653151035;-0.1863778680562973;0.0839034244418144
1768418182900397600;7.1883974609375;0.1320648193359375;-0.8486328125;0.1092987060546875;0.0353292301297187;-0.2287572771310806;0.0794085413217544
1768418182910399500;7.1983994140625;0.125579833984375;-0.8391876220703125;0.1087799072265625;0.0055369781330227;-0.2622268199920654;0.0788210481405258
1768418182920400400;7.208400390625;0.1058197021484375;-0.8383026123046875;0.097808837890625;-0.0309366099536418;-0.271703153848648;0.0776750892400741
1768418182930402600;7.218402587890625;0.08026123046875;-0.8498992919921875;0.0876007080078125;-0.0601371079683303;-0.2787189781665802;0.0651795342564582
1768418182940404500;7.228404541015625;0.0449981689453125;-0.8753509521484375;0.07861328125;-0.0872472897171974;-0.3005449175834656;0.0437591969966888
1768418182950405400;7.2384052734375;-0.0011444091796875;-0.90240478515625;0.0750885009765625;-0.1251371502876281;-0.3268969058990478;0.0286297798156738
1768418182960407600;7.248407470703125;-0.043975830078125;-0.923492431640625;0.0851287841796875;-0.1798437982797622;-0.353563129901886;0.0312346182763576
1768418182970408400;7.258408447265625;-0.059539794921875;-0.9360809326171876;0.10968017578125;-0.2417300641536712;-0.3641763627529144;0.0449677407741546
1768418182980410400;7.268410400390625;-0.050140380859375;-0.9456024169921876;0.1365203857421875;-0.2850293517112732;-0.3481747508049011;0.0635824352502822
1768418182990411500;7.27841162109375;-0.030792236328125;-0.9579010009765624;0.14874267578125;-0.2860266864299774;-0.3167654275894165;0.070430226624012
1768418183000413400;7.288413330078125;-0.0193939208984375;-0.974853515625;0.1418304443359375;-0.2579686939716339;-0.2612640857696533;0.064638115465641
1768418183010415400;7.298415283203125;0.0012359619140625;-0.9877777099609376;0.1176910400390625;-0.2363214492797851;-0.2004870325326919;0.0447456315159797
1768418183020416500;7.30841650390625;0.0563201904296875;-0.9843292236328124;0.0800933837890625;-0.26506307721138;-0.0837907716631889;0.0238888207823038
1768418183030418400;7.31841845703125;0.1530609130859375;-0.9377593994140624;0.03125;-0.3328160345554352;-0.0363476201891899;0.013252155855298
1768418183040419300;7.32841943359375;0.1447906494140625;-0.8862762451171875;0.0232696533203125;-0.3582984805107116;-0.2136417031288147;0.0287751890718936
1768418183050421500;7.33842138671875;-0.06878662109375;-0.91033935546875;0.0949554443359375;-0.3096619844436645;-0.3570191264152527;0.1371503919363021
1768418183060423400;7.34842333984375;-0.230865478515625;-1.0104522705078125;0.1759796142578125;-0.2593234479427337;-0.3888289630413055;0.2545667588710785
1768418183070424300;7.35842431640625;-0.2315673828125;-1.1563720703125;0.267578125;-0.2011171281337738;-0.3628104329109192;0.25519660115242
1768418183080426500;7.368426513671875;-0.1768951416015625;-1.2948150634765625;0.3531646728515625;-0.120822824537754;-0.2974157035350799;0.1842017918825149
1768418183090427400;7.378427490234375;-0.1016082763671875;-1.3443145751953125;0.3794097900390625;-0.0242672562599182;-0.2749881446361542;0.1251952052116394
1768418183100429600;7.3884296875;-0.0629425048828125;-1.290313720703125;0.360198974609375;0.0691766738891601;-0.3515084981918335;0.0785267651081085
1768418183110430500;7.398430419921875;-0.0355072021484375;-1.19696044921875;0.3147125244140625;0.1539517492055893;-0.4635325074195862;0.0037049897946417
1768418183120432400;7.408432373046875;0.021148681640625;-1.124298095703125;0.2429351806640625;0.2255087494850158;-0.5400334000587463;-0.0643622130155563
1768418183130434600;7.4184345703125;0.104034423828125;-1.1151123046875;0.17059326171875;0.3088390529155731;-0.5377635955810547;-0.097873568534851
1768418183140435500;7.428435546875;0.211822509765625;-1.1873779296875;0.0836029052734375;0.3966948986053467;-0.4538202285766601;-0.123323269188404
1768418183150437400;7.438437255859375;0.288330078125;-1.295196533203125;0.0118560791015625;0.438998132944107;-0.3266090154647827;-0.1698921024799347
1768418183160438500;7.4484384765625;0.28582763671875;-1.389434814453125;-0.0034332275390625;0.379639208316803;-0.15292988717556;-0.241127923130989
1768418183170440400;7.4584404296875;0.2577972412109375;-1.432403564453125;-0.003814697265625;0.2479610741138458;0.1594298779964447;-0.2634625434875488
1768418183180441300;7.46844140625;0.274505615234375;-1.343017578125;-0.0917510986328125;0.227273628115654;0.4579334855079651;-0.1894263923168182
1768418183190443500;7.478443603515625;0.325958251953125;-1.200531005859375;-0.1842193603515625;0.3024402856826782;0.4843083620071411;-0.1851948946714401
1768418183200445400;7.488445556640625;0.2801666259765625;-1.1387939453125;-0.184234619140625;0.307759940624237;0.3230313062667846;-0.2358817756175995
1768418183210446300;7.4984462890625;0.1829833984375;-1.060943603515625;-0.1151123046875;0.2419590950012207;0.0957792550325393;-0.2350684404373169
1768418183220448500;7.508448486328125;0.1344146728515625;-0.9549560546875;-0.0139923095703125;0.1533474773168563;-0.1838968694210052;-0.1406236886978149
1768418183230449400;7.518449462890625;0.153900146484375;-0.8934173583984375;0.057281494140625;0.0960724726319313;-0.4503053724765777;0.0342549085617065
1768418183240451300;7.528451416015625;0.23431396484375;-0.8702850341796875;0.0992279052734375;0.0722233280539512;-0.5799816250801086;0.2631488144397735
1768418183250453500;7.53845361328125;0.356964111328125;-0.85498046875;0.1318359375;0.0829697176814079;-0.6453859210014343;0.465262234210968
1768418183260454400;7.548454345703125;0.4570465087890625;-0.8927001953125;0.172882080078125;0.1211543902754783;-0.66371750831604;0.579653799533844
1768418183270456300;7.558456298828125;0.4964599609375;-0.999969482421875;0.1925506591796875;0.1140392199158668;-0.5586528778076172;0.5490719079971313
1768418183280457500;7.56845751953125;0.522003173828125;-1.0812835693359375;0.161224365234375;0.0951859056949615;-0.3304657936096191;0.4734048545360565
1768418183290459400;7.57845947265625;0.525482177734375;-1.080230712890625;0.0877685546875;0.0996613427996635;-0.0558291785418987;0.453385591506958
1768418183300460300;7.588460205078125;0.5200653076171875;-1.0538330078125;0.001556396484375;0.1111899018287658;0.1391490995883941;0.4034526646137237
1768418183310462500;7.59846240234375;0.4816131591796875;-1.06036376953125;-0.0577392578125;0.095793105661869;0.2560770511627197;0.2424448579549789
1768418183320464400;7.60846435546875;0.4093017578125;-1.070709228515625;-0.0878448486328125;0.0416845977306366;0.3482522666454315;0.0249048173427581
1768418183330465300;7.61846533203125;0.3325042724609375;-1.043914794921875;-0.0927276611328125;-0.0006452839006669;0.4350912868976593;-0.1292368173599243
1768418183340467500;7.628467529296875;0.2510986328125;-1.0045013427734375;-0.0969085693359375;-0.059734970331192;0.5025150775909424;-0.17952261865139
1768418183350468400;7.63846826171875;0.19244384765625;-0.965850830078125;-0.106719970703125;-0.1344829797744751;0.5346159934997559;-0.1607670485973358
1768418183360470500;7.648470458984375;0.1730499267578125;-0.9441375732421876;-0.098968505859375;-0.1892625987529754;0.5397825241088867;-0.1155540272593498
1768418183370471400;7.658471435546875;0.1608123779296875;-0.9249267578125;-0.084320068359375;-0.2297772765159607;0.560236930847168;-0.051099669188261
1768418183380473300;7.668473388671875;0.1633453369140625;-0.905303955078125;-0.0585479736328125;-0.2688325345516205;0.5882613658905029;0.0261493120342493
1768418183390475500;7.6784755859375;0.171661376953125;-0.87542724609375;-0.012939453125;-0.3058286309242248;0.617084264755249;0.1026438176631927
1768418183400476400;7.688476318359375;0.183380126953125;-0.8397674560546875;0.0496673583984375;-0.3204895853996277;0.6188490986824036;0.1748988479375839
1768418183410478300;7.698478271484375;0.2004547119140625;-0.803192138671875;0.129730224609375;-0.3156618177890777;0.6131440997123718;0.2432547360658645
1768418183420479200;7.708479248046875;0.2184295654296875;-0.7660369873046875;0.206695556640625;-0.2894102334976196;0.6208121180534363;0.3018360137939453
1768418183430481200;7.718481201171875;0.25433349609375;-0.734161376953125;0.257415771484375;-0.2495773434638977;0.60505211353302;0.3248939216136932
1768418183440482300;7.728482421875;0.2787322998046875;-0.7149200439453125;0.2856292724609375;-0.2181997150182724;0.5826817750930786;0.3331422805786133
1768418183450484200;7.738484130859375;0.2685089111328125;-0.7029266357421875;0.2728424072265625;-0.1867120862007141;0.5371382832527161;0.3407061994075775
1768418183460486400;7.748486328125;0.2703857421875;-0.6954345703125;0.2584991455078125;-0.1568711102008819;0.4471053183078766;0.3408779501914978
1768418183470487300;7.7584873046875;0.2701568603515625;-0.7139739990234375;0.256591796875;-0.1259757727384567;0.3261104524135589;0.3137422204017639
1768418183480489200;7.7684892578125;0.2498321533203125;-0.751220703125;0.2606353759765625;-0.090001530945301;0.2311847507953643;0.2803927659988403
1768418183490490000;7.778489990234375;0.2183380126953125;-0.787322998046875;0.271087646484375;-0.0478074699640274;0.1737896353006363;0.2685757875442505
1768418183500492300;7.7884921875;0.19390869140625;-0.825592041015625;0.2681732177734375;-0.017988322302699;0.1349985599517822;0.2736469805240631
1768418183510493200;7.7984931640625;0.179779052734375;-0.85418701171875;0.2575225830078125;0.0187209565192461;0.0998789295554161;0.2790705263614654
1768418183520495400;7.808495361328125;0.168670654296875;-0.8748626708984375;0.24957275390625;0.0528277941048145;0.0603914372622966;0.2675124108791351
1768418183530497300;7.818497314453125;0.15899658203125;-0.8783111572265625;0.2373504638671875;0.0839526876807212;0.0342937931418418;0.242882415652275
1768418183540498200;7.828498291015625;0.15289306640625;-0.87420654296875;0.2136688232421875;0.1306906342506408;0.0353966057300567;0.2149645090103149
1768418183550500400;7.838500244140625;0.149566650390625;-0.875579833984375;0.179046630859375;0.17339788377285;0.0619624368846416;0.1803748309612274
1768418183560501200;7.848501220703125;0.1553192138671875;-0.8802947998046875;0.1356201171875;0.1922328323125839;0.0893386676907539;0.1459481567144394
1768418183570503200;7.858503173828125;0.1528778076171875;-0.8821563720703125;0.09637451171875;0.2045885622501373;0.1207357421517372;0.1408945322036743
1768418183580504300;7.86850439453125;0.139404296875;-0.88409423828125;0.0670166015625;0.2114310264587402;0.1478592306375503;0.165346086025238
1768418183590506200;7.87850634765625;0.1165771484375;-0.8843994140625;0.0520782470703125;0.2149823457002639;0.1732101291418075;0.2126938849687576
1768418183600508200;7.888508056640625;0.0936279296875;-0.880615234375;0.0534515380859375;0.2122933566570282;0.2196181118488311;0.2674298286437988
1768418183610509300;7.89850927734375;0.0791778564453125;-0.8783721923828125;0.064727783203125;0.2170963585376739;0.2640945017337799;0.3005587756633758
1768418183620511200;7.90851123046875;0.0812225341796875;-0.889251708984375;0.0747528076171875;0.2215369194746017;0.2935767471790313;0.2690722048282623
1768418183630512000;7.91851220703125;0.081085205078125;-0.904052734375;0.0891571044921875;0.2123215794563293;0.3353620171546936;0.2111194282770156
1768418183640514300;7.928514404296875;0.07568359375;-0.9239349365234376;0.105987548828125;0.1884015947580337;0.3786149621009826;0.1899939030408859
1768418183650515200;7.93851513671875;0.0808258056640625;-0.9456787109375;0.1298980712890625;0.1612677127122879;0.4035567939281463;0.2036564499139785
1768418183660517000;7.94851708984375;0.1147308349609375;-0.96881103515625;0.1598358154296875;0.1286911368370056;0.4023021757602691;0.1833346784114837
1768418183670519300;7.958519287109375;0.1688385009765625;-0.99432373046875;0.1904296875;0.1025908216834068;0.405711829662323;0.11223866045475
1768418183680520200;7.968520263671875;0.209259033203125;-1.0143585205078125;0.21771240234375;0.0979159101843833;0.3800762295722961;0.0354288294911384
1768418183690522000;7.978522216796875;0.2312774658203125;-1.020782470703125;0.2337188720703125;0.1179298311471939;0.3394108116626739;-0.018205901607871
1768418183700523300;7.988523193359375;0.2529754638671875;-0.9940643310546876;0.246307373046875;0.1455002129077911;0.3110518753528595;-0.082305260002613
1768418183710525200;7.998525146484375;0.2382049560546875;-0.9661865234375;0.248504638671875;0.1246487200260162;0.2426704317331314;-0.1847131252288818
1768418183720526300;8.0085263671875;0.1664581298828125;-0.9699554443359376;0.2422027587890625;0.0514900870621204;0.1621233969926834;-0.2770044505596161
