timestamp;acc_z;acc_y;acc_x;gyro_z;gyro_y;gyro_x
1767708643575376600;0.0420989990234375;0.0620880126953125;0.990997314453125;0.03930852189660072;-0.021207816898822784;0.05567098408937454
1767708643585378000;0.0433197021484375;0.0545501708984375;0.987701416015625;0.04080016165971756;-0.03068946860730648;0.051896754652261734
1767708643595378000;0.0416259765625;0.045318603515625;0.985809326171875;0.03905152902007103;-0.038592930883169174;0.05770430713891983
1767708643605377800;0.0326690673828125;0.044281005859375;0.979400634765625;0.03573775663971901;-0.04701331630349159;0.07068055868148804
1767708643615379000;0.03216552734375;0.0473175048828125;0.9731292724609375;0.023565247654914856;-0.059363991022109985;0.08760149031877518
1767708643625378800;0.0328521728515625;0.0423736572265625;0.9750213623046875;0.012870791368186474;-0.07340817153453827;0.09255203604698181
1767708643635379700;0.0333404541015625;0.0442352294921875;0.9739227294921875;-0.0029547770973294973;-0.0876409038901329;0.10185366123914719
1767708643645379800;0.030670166015625;0.0438690185546875;0.9648895263671875;-0.023479493334889412;-0.10404011607170105;0.11305171996355057
1767708643655381000;0.01324462890625;0.0426483154296875;0.959136962890625;-0.03413186967372894;-0.11122506111860275;0.13616237044334412
1767708643665380900;-0.0040435791015625;0.050506591796875;0.9570465087890625;-0.038541533052921295;-0.1069653332233429;0.17036481201648712
1767708643675381000;-0.004364013671875;0.057525634765625;0.969390869140625;-0.03574201837182045;-0.08344482630491257;0.2007562667131424
1767708643685382000;0.010223388671875;0.0658111572265625;1.000396728515625;-0.027966387569904327;-0.037640850991010666;0.20967359840869904
1767708643695381800;0.0297088623046875;0.074005126953125;1.028533935546875;-0.0244281105697155;0.022594524547457695;0.2027065008878708
1767708643705383000;0.04638671875;0.0672607421875;1.04437255859375;-0.024986842647194862;0.055030763149261475;0.20092138648033142
1767708643715382800;0.054443359375;0.0546875;1.0552215576171875;-0.022430473938584328;0.053705837577581406;0.21313437819480896
1767708643725383000;0.05572509765625;0.0413055419921875;1.056976318359375;-0.01519839372485876;0.01606232300400734;0.23045878112316132
1767708643735383800;0.05706787109375;0.020599365234375;1.0526275634765625;-0.010403105989098549;-0.037085048854351044;0.2362588793039322
1767708643745383700;0.0505218505859375;0.005035400390625;1.0533447265625;-0.013228453695774078;-0.08417719602584839;0.2309863418340683
1767708643755384800;0.03521728515625;0.00140380859375;1.0477752685546875;-0.024216389283537865;-0.10272344946861267;0.2213752567768097
1767708643765385000;0.0206756591796875;0.005218505859375;1.0428924560546875;-0.038848597556352615;-0.11631542444229126;0.20330198109149933
1767708643775385900;0.0134735107421875;0.01068115234375;1.0315093994140625;-0.050878893584012985;-0.11331936717033386;0.177266925573349
1767708643785385700;0.011016845703125;0.017120361328125;1.0159759521484375;-0.05567764490842819;-0.08762279152870178;0.15713129937648773
1767708643795385900;0.016754150390625;0.0209197998046875;1.0016021728515625;-0.06118825450539589;-0.06753350049257278;0.13667289912700653
1767708643805386800;0.022979736328125;0.026123046875;0.98974609375;-0.06684534251689911;-0.061653777956962585;0.11216728389263153
1767708643815387000;0.019256591796875;0.0343475341796875;0.98223876953125;-0.08347252011299133;-0.0669231042265892;0.08805608749389648
1767708643825388000;0.011932373046875;0.04931640625;0.9824981689453125;-0.09803042560815811;-0.08720520883798599;0.07765857875347137
1767708643835388000;0.003936767578125;0.0613555908203125;0.9940643310546875;-0.09693852812051773;-0.1081797331571579;0.08929818868637085
1767708643845388000;-0.0003509521484375;0.0630950927734375;0.9989013671875;-0.10135964304208755;-0.11544004082679749;0.0970759466290474
1767708643855389000;-0.003326416015625;0.0618438720703125;0.9969329833984375;-0.10673576593399048;-0.10945325344800949;0.08537454903125763
1767708643865388800;-0.0070037841796875;0.065216064453125;0.999847412109375;-0.10361001640558243;-0.10983781516551971;0.07951240241527557
1767708643875389700;-0.0148773193359375;0.0698089599609375;1.0029144287109375;-0.10170905292034149;-0.11693647503852844;0.0867420881986618
1767708643885389800;-0.019989013671875;0.0735015869140625;1.003936767578125;-0.10204354673624039;-0.14348392188549042;0.1005774736404419
1767708643895390700;-0.024322509765625;0.07952880859375;1.004364013671875;-0.10379031300544739;-0.17794203758239746;0.11290977150201797
1767708643905390800;-0.028289794921875;0.0916595458984375;1.00787353515625;-0.09688020497560501;-0.20223645865917206;0.12115545570850372
1767708643915391000;-0.0259246826171875;0.1018218994140625;1.0203704833984375;-0.0866273045539856;-0.2344132959842682;0.11911307275295258
1767708643925392000;-0.0350341796875;0.10333251953125;1.024749755859375;-0.07929082959890366;-0.22644779086112976;0.11237261444330215
1767708643935392000;-0.0395965576171875;0.1017913818359375;1.0333251953125;-0.07026057690382004;-0.24565264582633972;0.10013911873102188
1767708643945393000;-0.0353240966796875;0.094940185546875;1.03936767578125;-0.06458725035190582;-0.24481187760829926;0.0857178345322609
1767708643955392800;-0.0388946533203125;0.08001708984375;1.0367584228515625;-0.06223195046186447;-0.2620531916618347;0.059177037328481674
1767708643965393700;-0.03076171875;0.0669708251953125;1.0352325439453125;-0.06396140903234482;-0.2705257534980774;0.028378644958138466
1767708643975393800;-0.0388336181640625;0.05438232421875;1.0258636474609375;-0.06525703519582748;-0.2936753034591675;0.000550475378986448
1767708643985393700;-0.04534912109375;0.050567626953125;1.0125732421875;-0.06491215527057648;-0.29909589886665344;-0.02129889652132988
1767708643995395000;-0.0585479736328125;0.0543212890625;0.9917449951171875;-0.0609445758163929;-0.3016621172428131;-0.03856044262647629
1767708644005395000;-0.06585693359375;0.06280517578125;0.976806640625;-0.041723743081092834;-0.2787536084651947;-0.05878768116235733
1767708644015395800;-0.0700836181640625;0.0626068115234375;0.966827392578125;-0.021524466574192047;-0.25501206517219543;-0.08812399953603745
1767708644025396000;-0.0658111572265625;0.069488525390625;0.9629058837890625;0.005286108236759901;-0.25520408153533936;-0.11507146060466766
1767708644035395800;-0.0694122314453125;0.0731353759765625;0.95947265625;0.03748372569680214;-0.2421433925628662;-0.1332363486289978
1767708644045396700;-0.0761871337890625;0.077056884765625;0.94976806640625;0.07608465105295181;-0.21843832731246948;-0.1446557193994522
1767708644055396900;-0.073486328125;0.063720703125;0.9527435302734375;0.1302568018436432;-0.20035865902900696;-0.1629961133003235
1767708644065397800;-0.0695953369140625;0.0542144775390625;0.953399658203125;0.18803781270980835;-0.17398405075073242;-0.19065463542938232
1767708644075398000;-0.070098876953125;0.0560302734375;0.9469757080078125;0.24732084572315216;-0.15286491811275482;-0.20627887547016144
1767708644085398800;-0.0706024169921875;0.0514373779296875;0.9463348388671875;0.29734674096107483;-0.139461487531662;-0.2222362607717514
1767708644095398700;-0.062164306640625;0.036865234375;0.948028564453125;0.33810266852378845;-0.11451832205057144;-0.23339703679084778
1767708644105398500;-0.056488037109375;0.0276031494140625;0.94683837890625;0.3780359923839569;-0.10167815536260605;-0.24935869872570038
1767708644115400000;-0.0484161376953125;0.0252532958984375;0.9456787109375;0.4083954691886902;-0.057854246348142624;-0.27484995126724243
1767708644125399800;-0.033935546875;0.0203857421875;0.9416656494140625;0.43911024928092957;0.013999971561133862;-0.29954010248184204
1767708644135400700;-0.00213623046875;0.0123138427734375;0.950958251953125;0.45936280488967896;0.08671864867210388;-0.31858065724372864
1767708644145400800;0.0401458740234375;-0.003662109375;0.980377197265625;0.47270816564559937;0.16149835288524628;-0.3354155421257019
1767708644155401700;0.0750732421875;-0.01593017578125;1.015960693359375;0.4785018563270569;0.2337067723274231;-0.3468511700630188
1767708644165401600;0.1065521240234375;-0.018341064453125;1.053314208984375;0.4815133810043335;0.26305294036865234;-0.3489246964454651
1767708644175401700;0.12030029296875;-0.0112457275390625;1.0852813720703125;0.48271870613098145;0.2557055354118347;-0.35161688923835754
1767708644185403000;0.0998992919921875;-0.00469970703125;1.1085205078125;0.4831831753253937;0.2185954600572586;-0.370896577835083
1767708644195402800;0.07720947265625;-0.008056640625;1.13006591796875;0.4728149473667145;0.16194549202919006;-0.397830992937088
1767708644205404000;0.06146240234375;-0.01104736328125;1.124542236328125;0.44594046473503113;0.09240423142910004;-0.42203274369239807
1767708644215403800;0.0554046630859375;-0.0189666748046875;1.1054534912109375;0.4184238910675049;0.03237844631075859;-0.46554505825042725
1767708644225404700;0.0532989501953125;-0.037750244140625;1.0720977783203125;0.4055861234664917;-0.009669671766459942;-0.5462971329689026
1767708644235404800;0.052520751953125;-0.049163818359375;1.0300445556640625;0.41309329867362976;-0.03557610511779785;-0.6418614983558655
1767708644245404700;0.047882080078125;-0.0524139404296875;0.98004150390625;0.41783586144447327;-0.04572780802845955;-0.728871762752533
1767708644255405600;0.05291748046875;-0.054443359375;0.9396209716796875;0.41697752475738525;-0.06857426464557648;-0.8058736324310303
1767708644265405700;0.0625152587890625;-0.059295654296875;0.9065704345703125;0.40417012572288513;-0.09014827013015747;-0.880768895149231
1767708644275406800;0.05181884765625;-0.0526123046875;0.8889923095703125;0.40115541219711304;-0.0856776237487793;-0.9315188527107239
1767708644285406700;0.038787841796875;-0.03863525390625;0.888916015625;0.40089336037635803;-0.0812716856598854;-0.9634994268417358
1767708644295406800;0.0364532470703125;-0.037811279296875;0.900421142578125;0.39229854941368103;-0.0789177194237709;-0.9749404191970825
1767708644305407700;0.015228271484375;-0.0383453369140625;0.909515380859375;0.3725147247314453;-0.08893866091966629;-0.9580628871917725
1767708644315408000;-0.0282135009765625;-0.029510498046875;0.9205474853515625;0.35238999128341675;-0.1038997694849968;-0.9060273766517639
1767708644325408800;-0.077239990234375;-0.02069091796875;0.93853759765625;0.34510093927383423;-0.08541050553321838;-0.8217087388038635
1767708644335408600;-0.1098480224609375;-0.0131072998046875;0.964111328125;0.34337228536605835;-0.05240142345428467;-0.7227762937545776
1767708644345409800;-0.1116180419921875;-0.022552490234375;0.990509033203125;0.34423860907554626;-0.0156133146956563;-0.6256386041641235
1767708644355410000;-0.1010894775390625;-0.039642333984375;1.023193359375;0.33170071244239807;0.059599414467811584;-0.5256454348564148
1767708644365409800;-0.0774078369140625;-0.053955078125;1.05242919921875;0.30370181798934937;0.10996245592832565;-0.4176049530506134
1767708644375410700;-0.0557403564453125;-0.0692901611328125;1.08111572265625;0.26489609479904175;0.1381959617137909;-0.30152443051338196
1767708644385410800;-0.0332794189453125;-0.08001708984375;1.112152099609375;0.23499652743339539;0.13657622039318085;-0.21270693838596344
1767708644395411700;-0.0102691650390625;-0.07769775390625;1.14251708984375;0.2165038138628006;0.10493680089712143;-0.15428197383880615
1767708644405411800;-0.020660400390625;-0.0742645263671875;1.1673431396484375;0.21029917895793915;0.05277133733034134;-0.11601129174232483
1767708644415411700;-0.049591064453125;-0.091766357421875;1.1908111572265625;0.22299952805042267;-0.001984054921194911;-0.09077171236276627
1767708644425412600;-0.0865020751953125;-0.113922119140625;1.1979522705078125;0.24382837116718292;-0.05155986174941063;-0.06573773175477982
1767708644435413000;-0.116851806640625;-0.1469573974609375;1.1680450439453125;0.2489592283964157;-0.1208270862698555;-0.03642352297902107
1767708644445414000;-0.1275634765625;-0.1826019287109375;1.1087493896484375;0.22184450924396515;-0.18955448269844055;-0.007115167565643787
1767708644455413800;-0.13250732421875;-0.2022247314453125;1.048126220703125;0.18008321523666382;-0.22504723072052002;0.01583089493215084
1767708644465414700;-0.136993408203125;-0.2084808349609375;0.9932861328125;0.14786934852600098;-0.22771625220775604;0.023938888683915138
1767708644475414800;-0.1413116455078125;-0.2021942138671875;0.935516357421875;0.1086958572268486;-0.200055330991745;0.021615546196699142
1767708644485414700;-0.136932373046875;-0.1834259033203125;0.8820037841796875;0.06856387853622437;-0.1692739725112915;0.021461615338921547
1767708644495415800;-0.118194580078125;-0.1573638916015625;0.8513336181640625;0.038062162697315216;-0.15479783713817596;0.033370740711688995
1767708644505415700;-0.111572265625;-0.135986328125;0.8276214599609375;0.017297497019171715;-0.13584651052951813;0.05432289466261864
1767708644515416800;-0.1060791015625;-0.1190948486328125;0.811981201171875;-0.0028272117488086224;-0.1326209008693695;0.08900710195302963
1767708644525417000;-0.099456787109375;-0.0986480712890625;0.810516357421875;-0.016998425126075745;-0.13354501128196716;0.13296763598918915
1767708644535417900;-0.08544921875;-0.0854644775390625;0.829132080078125;-0.025962624698877335;-0.1594248116016388;0.18327847123146057
1767708644545417700;-0.07647705078125;-0.0829620361328125;0.852020263671875;-0.034509241580963135;-0.1579776555299759;0.24028849601745605
1767708644555417900;-0.056732177734375;-0.0911102294921875;0.8760528564453125;-0.060615941882133484;-0.14925579726696014;0.29267340898513794
1767708644565418800;-0.03179931640625;-0.1269989013671875;0.901275634765625;-0.09926000982522964;-0.13236363232135773;0.3316863179206848
1767708644575418600;-0.02178955078125;-0.1490936279296875;0.922119140625;-0.13984844088554382;-0.18242786824703217;0.3592599034309387
1767708644585419800;-0.02886962890625;-0.1479644775390625;0.9400787353515625;-0.18579809367656708;-0.2691606283187866;0.4095507562160492
1767708644595420000;-0.05438232421875;-0.1543121337890625;0.9531402587890625;-0.22701211273670197;-0.31083163619041443;0.47508981823921204
1767708644605419800;-0.07061767578125;-0.1580352783203125;0.9683685302734375;-0.2599647343158722;-0.31057438254356384;0.5306186079978943
1767708644615421000;-0.0788116455078125;-0.161590576171875;0.9808349609375;-0.2904944121837616;-0.2828354239463806;0.5629240870475769
1767708644625420800;-0.0852203369140625;-0.1596832275390625;0.9838714599609375;-0.32551339268684387;-0.2490905076265335;0.5698165893554688
1767708644635421700;-0.0833740234375;-0.1680450439453125;0.985015869140625;-0.35468271374702454;-0.22250151634216309;0.5627054572105408
1767708644645421800;-0.0661468505859375;-0.182220458984375;0.989959716796875;-0.3839340806007385;-0.20923525094985962;0.5529348254203796
1767708644655422700;-0.053863525390625;-0.194610595703125;0.9949188232421875;-0.40076765418052673;-0.2113841474056244;0.5497384667396545
1767708644665422600;-0.0416259765625;-0.193145751953125;1.00897216796875;-0.4094066917896271;-0.25382694602012634;0.5682027339935303
1767708644675422700;-0.058349609375;-0.171844482421875;1.009735107421875;-0.4285276532173157;-0.2782779633998871;0.609553337097168
1767708644685423900;-0.073089599609375;-0.1550445556640625;0.999542236328125;-0.45598670840263367;-0.27501532435417175;0.6536494493484497
1767708644695423700;-0.066558837890625;-0.1377105712890625;0.9912261962890625;-0.47940441966056824;-0.24063551425933838;0.6806509494781494
1767708644705425000;-0.0601348876953125;-0.1271514892578125;0.98846435546875;-0.47993332147598267;-0.18907006084918976;0.69501793384552
1767708644715424800;-0.0564422607421875;-0.127288818359375;0.9857635498046875;-0.472739040851593;-0.14289696514606476;0.7065014839172363
1767708644725424600;-0.0626373291015625;-0.12689208984375;0.9857025146484375;-0.4701049327850342;-0.08716552704572678;0.740588366985321
1767708644735425800;-0.071929931640625;-0.1283721923828125;0.9875335693359375;-0.46506649255752563;-0.0020591560751199722;0.7869880795478821
1767708644745425700;-0.0606842041015625;-0.1374053955078125;0.9941558837890625;-0.4477205276489258;0.12348518520593643;0.8244819045066833
1767708644755426800;-0.012481689453125;-0.1488037109375;1.022857666015625;-0.39392679929733276;0.2956859767436981;0.8337100148200989
1767708644765427000;0.0576019287109375;-0.15142822265625;1.05633544921875;-0.3398723602294922;0.3961808979511261;0.7995080947875977
1767708644775427800;0.1195068359375;-0.1485137939453125;1.0753936767578125;-0.3090534508228302;0.3730183243751526;0.7273481488227844
1767708644785427700;0.1029815673828125;-0.132720947265625;1.0711669921875;-0.2931823432445526;0.302604079246521;0.6475127339363098
1767708644795427800;0.0313568115234375;-0.1038665771484375;1.05657958984375;-0.2648178040981293;0.2426920086145401;0.5827915072441101
1767708644805428700;-0.0388031005859375;-0.087890625;1.0408477783203125;-0.22632554173469543;0.16118648648262024;0.5371843576431274
1767708644815428600;-0.0993804931640625;-0.0860443115234375;1.0055694580078125;-0.20463037490844727;0.06464610248804092;0.4956235885620117
1767708644825429800;-0.1490478515625;-0.097320556640625;0.9677581787109375;-0.18186460435390472;-0.014446317218244076;0.4670169949531555
1767708644835429600;-0.1769866943359375;-0.1114349365234375;0.9378662109375;-0.15673395991325378;-0.016500946134328842;0.4529951810836792
1767708644845430800;-0.186065673828125;-0.104156494140625;0.9106597900390625;-0.13572268187999725;0.017353158444166183;0.4798488914966583
1767708644855431000;-0.1756591796875;-0.0791015625;0.88885498046875;-0.14889679849147797;0.04358982294797897;0.5311363339424133
1767708644865430800;-0.1347503662109375;-0.046905517578125;0.8896331787109375;-0.19542914628982544;0.01769217848777771;0.5728052258491516
1767708644875431700;-0.0999603271484375;-0.009979248046875;0.9197540283203125;-0.24127227067947388;-0.011024155654013157;0.600957989692688
1767708644885431800;-0.0678863525390625;0.0305938720703125;0.9539031982421875;-0.2752012014389038;0.0065740132704377174;0.6035508513450623
1767708644895432700;-0.035400390625;0.0689239501953125;1.006439208984375;-0.27113428711891174;0.05408560484647751;0.6036808490753174
1767708644905432600;-0.0099029541015625;0.1019287109375;1.06317138671875;-0.245016947388649;0.08122241497039795;0.6141536831855774
1767708644915432700;0.023040771484375;0.126068115234375;1.1068115234375;-0.21739090979099274;0.06831514090299606;0.6259435415267944
1767708644925433900;0.031707763671875;0.156280517578125;1.1341094970703125;-0.19849126040935516;0.04776619002223015;0.6267744302749634
1767708644935434000;-0.0019073486328125;0.1932220458984375;1.1581878662109375;-0.20583891868591309;0.038966309279203415;0.6293390393257141
1767708644945435000;-0.03271484375;0.2204742431640625;1.184356689453125;-0.2267702966928482;0.023748738691210747;0.624930202960968
1767708644955434800;-0.035369873046875;0.2429351806640625;1.2039337158203125;-0.24676556885242462;0.006674946751445532;0.594374418258667
1767708644965435600;-0.022125244140625;0.256622314453125;1.2062530517578125;-0.2607753872871399;-0.00905341561883688;0.536838173866272
1767708644975435800;-0.011627197265625;0.25701904296875;1.2023468017578125;-0.2616875469684601;-0.022584138438105583;0.4563206732273102
1767708644985435600;-0.0265350341796875;0.232940673828125;1.18365478515625;-0.25570234656333923;-0.03206925466656685;0.39422905445098877
1767708644995436500;-0.057159423828125;0.2025604248046875;1.1385955810546875;-0.2573407292366028;-0.03611459583044052;0.36424720287323
1767708645005436700;-0.072509765625;0.169219970703125;1.10931396484375;-0.252475380897522;-0.025258485227823257;0.33949071168899536
1767708645015437800;-0.072235107421875;0.1358795166015625;1.0841217041015625;-0.24328775703907013;0.0047177900560200214;0.32286781072616577
1767708645025438000;-0.0685577392578125;0.115997314453125;1.06439208984375;-0.23008646070957184;0.011033209972083569;0.2977491319179535
1767708645035438800;-0.0676116943359375;0.1069488525390625;1.0399017333984375;-0.21878667175769806;0.013584252446889877;0.26638028025627136
1767708645045438700;-0.069610595703125;0.114776611328125;1.017120361328125;-0.21043314039707184;-0.007486145943403244;0.2326393723487854
1767708645055438800;-0.06951904296875;0.13134765625;0.997222900390625;-0.2026660293340683;-0.05255189165472984;0.20433689653873444
1767708645065439700;-0.07666015625;0.1567230224609375;0.9709625244140625;-0.1981588900089264;-0.08823318779468536;0.19588108360767365
1767708645075439600;-0.0838775634765625;0.1873779296875;0.9412078857421875;-0.18698479235172272;-0.0889703556895256;0.1977144032716751
1767708645085440800;-0.0788116455078125;0.205810546875;0.91326904296875;-0.1739683300256729;-0.07177192717790604;0.17964433133602142
1767708645095441000;-0.0608673095703125;0.212860107421875;0.89422607421875;-0.15831346809864044;-0.05627072975039482;0.15014448761940002
1767708645105440800;-0.047760009765625;0.2133026123046875;0.886993408203125;-0.15011972188949585;-0.05167225003242493;0.13681776821613312
1767708645115442000;-0.048004150390625;0.2032470703125;0.885711669921875;-0.1451558619737625;-0.04501887410879135;0.13298387825489044
1767708645125441800;-0.05877685546875;0.1857147216796875;0.88067626953125;-0.1471274048089981;-0.05498575419187546;0.1196020320057869
1767708645135442700;-0.0894927978515625;0.1788330078125;0.8563995361328125;-0.15413284301757812;-0.05580361187458038;0.11883503943681717
1767708645145442800;-0.134674072265625;0.17572021484375;0.8400421142578125;-0.13979758322238922;-0.02346564456820488;0.14692392945289612
1767708645155443700;-0.1447601318359375;0.178131103515625;0.8425445556640625;-0.11066126823425293;-0.006729275453835726;0.1891840398311615
1767708645165443600;-0.1320648193359375;0.179351806640625;0.8581085205078125;-0.06877294182777405;0.0059718722477555275;0.22400008141994476
1767708645175443700;-0.1139373779296875;0.1668243408203125;0.88153076171875;-0.017372598871588707;0.025494175031781197;0.23811297118663788
1767708645185444900;-0.0870513916015625;0.1562957763671875;0.8989410400390625;0.030489198863506317;0.04024862125515938;0.24016998708248138
1767708645195444700;-0.0709381103515625;0.14190673828125;0.911590576171875;0.07092876732349396;0.03790690377354622;0.23887090384960175
1767708645205446000;-0.0550689697265625;0.1162567138671875;0.919586181640625;0.11742090433835983;0.018492724746465683;0.2310987263917923
1767708645215445800;-0.0524139404296875;0.0993499755859375;0.9254913330078125;0.17597022652626038;0.00549197057262063;0.22038669884204865
1767708645225445600;-0.06573486328125;0.086761474609375;0.9357452392578125;0.227289617061615;0.00857244897633791;0.21300335228443146
1767708645235446800;-0.0740814208984375;0.072967529296875;0.943359375;0.26085343956947327;-0.010381268337368965;0.20765838027000427
1767708645245446700;-0.09405517578125;0.0567474365234375;0.95257568359375;0.294048935174942;-0.021577464416623116;0.19010788202285767
1767708645255447800;-0.11737060546875;0.0515594482421875;0.956207275390625;0.3117016851902008;-0.017903100699186325;0.1653713881969452
1767708645265448000;-0.13232421875;0.058197021484375;0.96905517578125;0.32052794098854065;0.034024812281131744;0.14333797991275787
1767708645275448800;-0.1277618408203125;0.0623779296875;0.988067626953125;0.30810561776161194;0.13230237364768982;0.13564811646938324
1767708645285448700;-0.0888824462890625;0.0561065673828125;1.0284423828125;0.2771413326263428;0.22830906510353088;0.1404753476381302
1767708645295448800;-0.023895263671875;0.0441131591796875;1.0888519287109375;0.23695901036262512;0.2506343424320221;0.17835988104343414
1767708645305449700;0.0237579345703125;0.052764892578125;1.156707763671875;0.2153426706790924;0.22006259858608246;0.2701084613800049
1767708645315449600;0.009979248046875;0.085906982421875;1.1897430419921875;0.16353939473628998;0.2025160938501358;0.3962506651878357
1767708645325450800;-0.017486572265625;0.1199493408203125;1.171173095703125;0.06976230442523956;0.14753086864948273;0.4792422354221344
1767708645335450600;-0.003662109375;0.1300201416015625;1.162384033203125;0.0016399745363742113;0.03122236765921116;0.4751705229282379
1767708645345451800;-0.003875732421875;0.1132659912109375;1.16546630859375;-0.024878185242414474;-0.11020586639642715;0.45468682050704956
1767708645355452000;-0.0368499755859375;0.09033203125;1.118408203125;-0.04267103224992752;-0.18311549723148346;0.4444639980792999
1767708645365451800;-0.0629730224609375;0.0704345703125;1.0297698974609375;-0.0584380105137825;-0.19633355736732483;0.42249664664268494
1767708645375452700;-0.0726165771484375;0.06591796875;0.9486846923828125;-0.06350786983966827;-0.15950150787830353;0.35631898045539856
1767708645385452800;-0.0619659423828125;0.061859130859375;0.8745880126953125;-0.06594199687242508;-0.12185027450323105;0.23936305940151215
1767708645395453700;-0.0632781982421875;0.0414581298828125;0.8177947998046875;-0.047094542533159256;-0.05884787067770958;0.1108921617269516
1767708645405453600;-0.0880889892578125;0.01849365234375;0.807373046875;0.018732141703367233;0.04500102996826172;0.021329523995518684
1767708645415453700;-0.1255950927734375;0.0105133056640625;0.8227691650390625;0.08736073970794678;0.14493800699710846;0.007397462613880634
1767708645425454800;-0.1459808349609375;0.00872802734375;0.8470306396484375;0.1188259869813919;0.20253552496433258;0.03327246755361557
1767708645435454700;-0.141265869140625;0.0123443603515625;0.8899688720703125;0.1332685798406601;0.24661937355995178;0.05299956724047661
1767708645445456000;-0.132781982421875;0.018829345703125;0.9507293701171875;0.1483505815267563;0.2698003351688385;0.062423694878816605
1767708645455455700;-0.1162872314453125;0.0207672119140625;1.0114288330078125;0.16307733952999115;0.2465224266052246;0.06674813479185104
1767708645465456600;-0.105743408203125;0.0309600830078125;1.0433349609375;0.164356991648674;0.20846585929393768;0.08184400200843811
1767708645475456800;-0.0924530029296875;0.044219970703125;1.0707550048828125;0.15857499837875366;0.1375512033700943;0.10225526243448257
1767708645485456600;-0.0723419189453125;0.0551605224609375;1.0899200439453125;0.14997538924217224;0.05254390090703964;0.1183205172419548
1767708645495457500;-0.05706787109375;0.0667724609375;1.100738525390625;0.14261147379875183;-0.02672588638961315;0.1242428570985794
1767708645505458000;-0.05059814453125;0.0652618408203125;1.110809326171875;0.12844718992710114;-0.07805591821670532;0.11610530316829681
1767708645515458800;-0.0468292236328125;0.057281494140625;1.1075439453125;0.12014824897050858;-0.09523650258779526;0.09196534007787704
1767708645525458700;-0.05145263671875;0.0471954345703125;1.08013916015625;0.10161557048559189;-0.09269344806671143;0.06088971719145775
1767708645535459800;-0.0583038330078125;0.0303955078125;1.0440673828125;0.08675486594438553;-0.08506695926189423;0.022232867777347565
1767708645545459700;-0.0625152587890625;0.0032501220703125;1.011077880859375;0.07791130989789963;-0.06150037795305252;-0.009093363769352436
1767708645555459800;-0.053863525390625;-0.021026611328125;0.9840087890625;0.06180024892091751;-0.03273317962884903;-0.03243384137749672
1767708645565460700;-0.0399322509765625;-0.0347747802734375;0.968536376953125;0.04634859040379524;-0.01721280813217163;-0.05721402168273926
1767708645575460600;-0.041351318359375;-0.0410614013671875;0.9585723876953125;0.03339284285902977;-0.004429901950061321;-0.08120084553956985
1767708645585461800;-0.0579376220703125;-0.02825927734375;0.9559478759765625;0.026678482070565224;0.007673099637031555;-0.0961957722902298
1767708645595462000;-0.0739593505859375;-0.0084381103515625;0.9625244140625;0.023374564945697784;0.02184910513460636;-0.09237493574619293
1767708645605461800;-0.07879638671875;0.00494384765625;0.9732513427734375;0.020068250596523285;0.02545475959777832;-0.07792729139328003
1767708645615462700;-0.0775909423828125;0.019073486328125;0.983184814453125;0.01979927159845829;0.03544427827000618;-0.06529431790113449
1767708645625462800;-0.06622314453125;0.0332183837890625;0.9889678955078125;0.02081207185983658;0.025678465142846107;-0.054488010704517365
1767708645635463700;-0.064178466796875;0.042694091796875;0.993316650390625;0.028717665001749992;0.01050297450274229;-0.04159457981586456
1767708645645463800;-0.063568115234375;0.042510986328125;0.99639892578125;0.03949148207902908;-0.004746552091091871;-0.02581907995045185
1767708645655464700;-0.0634307861328125;0.03277587890625;0.9965362548828125;0.0434955470263958;-0.01053253561258316;-0.0070858728140592575
1767708645665464800;-0.0618896484375;0.021728515625;0.9945068359375;0.04939178377389908;-0.014915832318365574;0.004113784991204739
1767708645675465000;-0.058349609375;0.0104217529296875;0.9923858642578125;0.05277213454246521;-0.016506537795066833;0.008283495903015137
1767708645685465900;-0.056732177734375;0.0002288818359375;0.994293212890625;0.05282672867178917;-0.01110538188368082;0.007737548090517521
1767708645695465700;-0.0540771484375;-0.0034637451171875;0.9961700439453125;0.03947683423757553;-0.003366768127307296;-0.000287088769255206
1767708645705466600;-0.053802490234375;-0.00445556640625;0.9986419677734375;0.02744653820991516;-0.00036432043998502195;-0.013189838267862797
1767708645715466800;-0.051361083984375;-0.0048370361328125;0.9964599609375;0.016410931944847107;-0.0017259946325793862;-0.022414760664105415
1767708645725467600;-0.0535125732421875;-0.0026702880859375;0.9952392578125;0.012132562696933746;0.005502623505890369;-0.02562892995774746
1767708645735467800;-0.0507354736328125;-0.0045166015625;0.9936370849609375;0.010159427300095558;0.004779042676091194;-0.030236998572945595
1767708645745467600;-0.048370361328125;-0.0058746337890625;0.993316650390625;0.010338391177356243;0.007348992861807346;-0.04202201962471008
1767708645755468800;-0.05181884765625;-0.0071868896484375;0.9942474365234375;0.015984559431672096;0.018208831548690796;-0.056412141770124435
1767708645765469000;-0.052215576171875;-0.0116424560546875;0.9985504150390625;0.021468274295330048;0.026992734521627426;-0.07128030806779861
1767708645775469800;-0.0526123046875;-0.0169219970703125;0.99993896484375;0.026864103972911835;0.036792367696762085;-0.08565258979797363
1767708645785469700;-0.064666748046875;-0.020782470703125;0.9977264404296875;0.035179559141397476;0.04767271503806114;-0.0968375951051712
1767708645795469800;-0.0733795166015625;-0.016876220703125;0.9930267333984375;0.04084516689181328;0.05258810892701149;-0.10739196836948395
1767708645805470700;-0.076141357421875;-0.0147247314453125;0.9929656982421875;0.04800401255488396;0.05054333433508873;-0.1221967488527298
1767708645815470600;-0.0768890380859375;-0.0188751220703125;0.9924468994140625;0.05487416684627533;0.03491457551717758;-0.14164288341999054
1767708645825472000;-0.0806121826171875;-0.0225830078125;0.9932708740234375;0.06594838947057724;0.0019912454299628735;-0.15818165242671967
1767708645835472000;-0.089202880859375;-0.0251312255859375;0.995147705078125;0.08028046041727066;-0.031685225665569305;-0.17037999629974365
1767708645845472800;-0.100799560546875;-0.0316009521484375;0.9907073974609375;0.09648259729146957;-0.06743896007537842;-0.1811079978942871
1767708645855473000;-0.11456298828125;-0.032470703125;0.987274169921875;0.11290604621171951;-0.10977976024150848;-0.19565153121948242
1767708645865472800;-0.1278533935546875;-0.0334014892578125;0.9820404052734375;0.1336294263601303;-0.14955194294452667;-0.23317839205265045
1767708645875473700;-0.1330108642578125;-0.0418243408203125;0.97650146484375;0.1617574691772461;-0.1814001500606537;-0.29579275846481323
1767708645885473800;-0.1374359130859375;-0.057098388671875;0.967315673828125;0.1962834894657135;-0.19943055510520935;-0.36483415961265564
1767708645895474700;-0.1324462890625;-0.0677947998046875;0.95159912109375;0.2309352159500122;-0.19403551518917084;-0.43807029724121094
1767708645905474600;-0.101593017578125;-0.0750274658203125;0.9351348876953125;0.2511712312698364;-0.20690657198429108;-0.5098206400871277
1767708645915476000;-0.0643768310546875;-0.079803466796875;0.92059326171875;0.24121075868606567;-0.24468857049942017;-0.5759307146072388
1767708645925475800;-0.0470428466796875;-0.0743408203125;0.9031982421875;0.21922582387924194;-0.2806423008441925;-0.6441028118133545
1767708645935475700;-0.0382843017578125;-0.0624847412109375;0.906524658203125;0.20610415935516357;-0.3332842290401459;-0.7216356992721558
1767708645945476900;-0.0517120361328125;-0.0494842529296875;0.9140167236328125;0.1812795102596283;-0.3939225375652313;-0.7974742650985718
1767708645955476700;-0.0955047607421875;-0.040924072265625;0.931488037109375;0.16144481301307678;-0.4663618505001068;-0.859558641910553
1767708645965477600;-0.165740966796875;-0.0295257568359375;0.9438323974609375;0.13654638826847076;-0.5141234993934631;-0.8922825455665588
1767708645975477800;-0.239044189453125;-0.02508544921875;0.9546356201171875;0.11603419482707977;-0.5011400580406189;-0.8995601534843445
1767708645985479000;-0.2865447998046875;-0.0273895263671875;0.975738525390625;0.10827533900737762;-0.4284147322177887;-0.872253954410553
1767708645995478800;-0.306121826171875;-0.03057861328125;0.995147705078125;0.0934404656291008;-0.3389231860637665;-0.8088361024856567
1767708646005479000;-0.2848052978515625;-0.0316925048828125;1.0108184814453125;0.054064299911260605;-0.2618827521800995;-0.752558708190918
1767708646015479800;-0.238128662109375;-0.02667236328125;1.0365142822265625;0.0015875103417783976;-0.20944616198539734;-0.7285793423652649
1767708646025479700;-0.2004241943359375;-0.0144500732421875;1.066925048828125;-0.048655953258275986;-0.1743241250514984;-0.7267167568206787
1767708646035480800;-0.1857452392578125;-0.00201416015625;1.0913543701171875;-0.07224942743778229;-0.15440315008163452;-0.721841037273407
1767708646045480700;-0.198089599609375;0.008392333984375;1.1117401123046875;-0.06950663775205612;-0.15287476778030396;-0.6948549151420593
1767708646055481600;-0.2236785888671875;0.006805419921875;1.13104248046875;-0.03515905141830444;-0.16722388565540314;-0.646313488483429
1767708646065481700;-0.2489166259765625;-0.0010528564453125;1.1423187255859375;0.01338531356304884;-0.20255842804908752;-0.5841875672340393
1767708646075481600;-0.259124755859375;-0.0124053955078125;1.130462646484375;0.06298908591270447;-0.24882179498672485;-0.5167261958122253
1767708646085482200;-0.263641357421875;-0.021636962890625;1.0992584228515625;0.11829069256782532;-0.2840823233127594;-0.445578008890152
1767708646095482000;-0.2680511474609375;-0.035430908203125;1.06121826171875;0.17254939675331116;-0.28460270166397095;-0.3691069483757019
1767708646105483300;-0.2564697265625;-0.04962158203125;1.0224609375;0.2128845751285553;-0.25959187746047974;-0.3112473487854004
1767708646115483400;-0.2366485595703125;-0.063018798828125;0.987030029296875;0.23853667080402374;-0.22601689398288727;-0.277351975440979
1767708646125483300;-0.220001220703125;-0.0682220458984375;0.9516754150390625;0.25235608220100403;-0.19061627984046936;-0.2656551003456116
1767708646135484200;-0.2145843505859375;-0.065185546875;0.9205322265625;0.2592898905277252;-0.13810354471206665;-0.25702914595603943
1767708646145484300;-0.212371826171875;-0.0571746826171875;0.8970947265625;0.25321441888809204;-0.08676179498434067;-0.24482865631580353
1767708646155485200;-0.2114105224609375;-0.0542449951171875;0.87957763671875;0.24443957209587097;-0.023930100724101067;-0.2374945729970932
1767708646165485000;-0.210601806640625;-0.0558929443359375;0.8689422607421875;0.246062234044075;0.06598727405071259;-0.239787295460701
1767708646175486200;-0.2224273681640625;-0.0611114501953125;0.858551025390625;0.2458856701850891;0.17359495162963867;-0.24160170555114746
1767708646185486300;-0.2284698486328125;-0.0619354248046875;0.8577423095703125;0.245463028550148;0.24576103687286377;-0.23621945083141327
1767708646195486200;-0.2155303955078125;-0.0580291748046875;0.8614501953125;0.2258051633834839;0.2832125425338745;-0.22127379477024078
1767708646205487400;-0.2091827392578125;-0.0658721923828125;0.8702239990234375;0.18541380763053894;0.29293814301490784;-0.21458260715007782
1767708646215487200;-0.2046051025390625;-0.0773162841796875;0.886444091796875;0.14450044929981232;0.3024357557296753;-0.21278390288352966
1767708646225488100;-0.2189788818359375;-0.0839385986328125;0.89837646484375;0.1094745621085167;0.3425464332103729;-0.21318630874156952
1767708646235488300;-0.236663818359375;-0.0829925537109375;0.8954925537109375;0.0804988369345665;0.4002544581890106;-0.21266458928585052
1767708646245489200;-0.2433624267578125;-0.070220947265625;0.894561767578125;0.059717390686273575;0.4380660355091095;-0.21188828349113464
1767708646255489000;-0.2397308349609375;-0.0521697998046875;0.896575927734375;0.04194026067852974;0.4666196405887604;-0.19166770577430725
1767708646265489400;-0.239898681640625;-0.0425262451171875;0.8982391357421875;0.023429691791534424;0.4996145963668823;-0.15715153515338898
1767708646275490300;-0.2399139404296875;-0.036712646484375;0.9067230224609375;-0.0007534082396887243;0.520553708076477;-0.12121963500976562
1767708646285490200;-0.25323486328125;-0.03167724609375;0.9102020263671875;-0.0261213481426239;0.5369702577590942;-0.095516137778759
1767708646295491300;-0.2726287841796875;-0.0330657958984375;0.9115142822265625;-0.04423350840806961;0.5641813278198242;-0.07921332865953445
1767708646305491200;-0.28350830078125;-0.035797119140625;0.906524658203125;-0.06280692666769028;0.5912848711013794;-0.07089813798666
1767708646315492000;-0.2882843017578125;-0.0387420654296875;0.9009857177734375;-0.08222110569477081;0.5958625674247742;-0.06396060436964035
1767708646325492200;-0.2920379638671875;-0.0540771484375;0.90093994140625;-0.0923943817615509;0.5850597620010376;-0.06187988072633743
1767708646335492000;-0.296173095703125;-0.070526123046875;0.90234375;-0.09039860218763351;0.565160870552063;-0.05369571968913078
1767708646345493200;-0.2973175048828125;-0.079010009765625;0.9141845703125;-0.07485613226890564;0.5419559478759766;-0.03961159288883209
1767708646355493400;-0.2924041748046875;-0.096405029296875;0.9349517822265625;-0.06047053262591362;0.5183984041213989;-0.013295832090079784
1767708646365494300;-0.289642333984375;-0.1119384765625;0.957305908203125;-0.04736991226673126;0.4880106747150421;0.009020659141242504
1767708646375494100;-0.284820556640625;-0.114349365234375;0.982025146484375;-0.03807414695620537;0.44907447695732117;0.030493726953864098
1767708646385495300;-0.2825469970703125;-0.108795166015625;0.994476318359375;-0.04972414672374725;0.40129098296165466;0.06155204400420189
1767708646395495200;-0.280914306640625;-0.09796142578125;0.9978790283203125;-0.08311725407838821;0.343438059091568;0.1076902449131012
1767708646405495000;-0.277252197265625;-0.083465576171875;0.9965972900390625;-0.12479812651872635;0.2631179094314575;0.15415628254413605
1767708646415496200;-0.2754669189453125;-0.0663299560546875;0.992919921875;-0.16800524294376373;0.1674659550189972;0.19115078449249268
1767708646425496300;-0.2751312255859375;-0.0586700439453125;0.9804229736328125;-0.2022247463464737;0.07695816457271576;0.20783522725105286
1767708646435497200;-0.27197265625;-0.06036376953125;0.9669342041015625;-0.23043186962604523;-0.013222594745457172;0.2153104543685913
1767708646445497300;-0.268798828125;-0.0752410888671875;0.960906982421875;-0.24165071547031403;-0.07537518441677094;0.2149096429347992
1767708646455498200;-0.267242431640625;-0.0984344482421875;0.95635986328125;-0.22562620043754578;-0.073623888194561;0.21837174892425537
1767708646465498000;-0.2457275390625;-0.1177520751953125;0.96331787109375;-0.17345966398715973;-0.024686170741915703;0.22719533741474152
1767708646475498200;-0.205810546875;-0.1388702392578125;0.9926910400390625;-0.08189193904399872;0.07464946806430817;0.2549915611743927
1767708646485499100;-0.1710662841796875;-0.139862060546875;1.0423583984375;0.012468653731048107;0.13301530480384827;0.30101069808006287
1767708646495499000;-0.122161865234375;-0.1199798583984375;1.0885772705078125;0.06789569556713104;0.10558687895536423;0.3116481602191925
1767708646505500400;-0.103271484375;-0.0949554443359375;1.1197052001953125;0.08968940377235413;0.027730165049433708;0.2605644762516022
1767708646515500300;-0.1267242431640625;-0.0793609619140625;1.1634979248046875;0.1139148473739624;-0.051237355917692184;0.16001524031162262
1767708646525501200;-0.1779327392578125;-0.0888824462890625;1.2201995849609375;0.15384602546691895;-0.10702472180128098;0.058511778712272644
1767708646535501300;-0.224212646484375;-0.1198577880859375;1.2413787841796875;0.15434695780277252;-0.13913072645664215;0.004029895178973675
1767708646545501200;-0.249786376953125;-0.1737213134765625;1.215667724609375;0.06440908461809158;-0.11402936279773712;0.05759751424193382
1767708646555502000;-0.219970703125;-0.215118408203125;1.1362152099609375;-0.1295553296804428;-0.11375639587640762;0.19706885516643524
1767708646565502200;-0.1500396728515625;-0.2031707763671875;1.153045654296875;-0.2665829658508301;-0.1542510837316513;0.33999353647232056
1767708646575503000;-0.0758819580078125;-0.178619384765625;1.254241943359375;-0.3394278585910797;-0.1448754221200943;0.42638513445854187
1767708646585503200;-0.0103607177734375;-0.1042327880859375;1.3257293701171875;-0.37305933237075806;-0.05107862874865532;0.452224463224411
1767708646595504400;0.0583343505859375;-0.019256591796875;1.392059326171875;-0.36014458537101746;0.06623281538486481;0.42972180247306824
1767708646605504300;0.1379241943359375;0.0236358642578125;1.42138671875;-0.3198520243167877;0.17146043479442596;0.39361679553985596
1767708646615504400;0.2135009765625;0.042144775390625;1.40924072265625;-0.28083139657974243;0.24189278483390808;0.3365463316440582
1767708646625505300;0.2584686279296875;0.061737060546875;1.3764190673828125;-0.25273770093917847;0.23677872121334076;0.24689394235610962
1767708646635505200;0.25;0.0962677001953125;1.308624267578125;-0.252321720123291;0.18966899812221527;0.14482749998569489
1767708646645506000;0.1877899169921875;0.1295318603515625;1.22540283203125;-0.28556543588638306;0.1703437715768814;0.05710989236831665
1767708646655506200;0.1320037841796875;0.15325927734375;1.150909423828125;-0.3319835364818573;0.16735704243183136;-0.029019933193922043
1767708646665507300;0.0910491943359375;0.16339111328125;1.0829925537109375;-0.3812171220779419;0.18598930537700653;-0.11762383580207825
1767708646675507200;0.05474853515625;0.137115478515625;1.01861572265625;-0.4142131507396698;0.24203899502754211;-0.18708918988704681
1767708646685507300;0.0403900146484375;0.109161376953125;0.97747802734375;-0.4166182577610016;0.2891945242881775;-0.2197912186384201
1767708646695508200;0.029388427734375;0.0762176513671875;0.9515380859375;-0.402728796005249;0.31154218316078186;-0.21784284710884094
1767708646705508400;0.0240631103515625;0.0526885986328125;0.9195098876953125;-0.39369189739227295;0.3368973433971405;-0.18760797381401062
1767708646715509200;0.024688720703125;0.042510986328125;0.9000701904296875;-0.3945843279361725;0.38113537430763245;-0.15348409116268158
1767708646725509000;0.0254364013671875;0.038421630859375;0.8977203369140625;-0.3944719433784485;0.447928786277771;-0.1325652301311493
1767708646735510000;0.0385284423828125;0.0407562255859375;0.89520263671875;-0.3847295641899109;0.48239487409591675;-0.13036465644836426
1767708646745510400;0.0613555908203125;0.052215576171875;0.87896728515625;-0.38185974955558777;0.48578721284866333;-0.13273754715919495
1767708646755510300;0.06024169921875;0.07025146484375;0.8502960205078125;-0.38513249158859253;0.4772360622882843;-0.12360475957393646
1767708646765511200;0.0660247802734375;0.10430908203125;0.8177032470703125;-0.3824392557144165;0.4292701482772827;-0.12144866585731506
1767708646775511300;0.0702972412109375;0.1399078369140625;0.7904052734375;-0.38559696078300476;0.3820059597492218;-0.14713166654109955
1767708646785512200;0.0511627197265625;0.1624755859375;0.780487060546875;-0.3776727318763733;0.36587706208229065;-0.20265457034111023
1767708646795512300;0.0302581787109375;0.164581298828125;0.7712554931640625;-0.34788286685943604;0.3968866467475891;-0.2773013710975647
1767708646805513200;0.01055908203125;0.1549072265625;0.7557830810546875;-0.2933975160121918;0.41917142271995544;-0.3420689105987549
1767708646815513000;0.00872802734375;0.1458587646484375;0.7513427734375;-0.2266043871641159;0.395511656999588;-0.37275439500808716
1767708646825513200;0;0.1341400146484375;0.742767333984375;-0.16190101206302643;0.3531327545642853;-0.3511388599872589
1767708646835514400;-0.012481689453125;0.12939453125;0.7266998291015625;-0.11080534011125565;0.29906898736953735;-0.2934585213661194
1767708646845514200;-0.0169830322265625;0.1178741455078125;0.7118988037109375;-0.08350607752799988;0.22483764588832855;-0.22866752743721008
1767708646855515100;-0.0268096923828125;0.104156494140625;0.6971588134765625;-0.07402815669775009;0.15792758762836456;-0.16721002757549286
1767708646865515300;-0.057830810546875;0.11456298828125;0.68817138671875;-0.07575707882642746;0.13875602185726166;-0.10355328768491745
1767708646875516200;-0.0823516845703125;0.1329345703125;0.6843414306640625;-0.08328902721405029;0.1439473181962967;-0.03714683651924133
1767708646885516300;-0.08856201171875;0.146484375;0.6834716796875;-0.092592254281044;0.15474936366081238;0.01811562106013298
1767708646895516200;-0.084228515625;0.1585845947265625;0.684417724609375;-0.10851076245307922;0.18719466030597687;0.043525904417037964
1767708646905517300;-0.075927734375;0.1717987060546875;0.691253662109375;-0.12156131863594055;0.22120562195777893;0.050452787429094315
1767708646915517400;-0.06195068359375;0.17535400390625;0.7050933837890625;-0.12618376314640045;0.24849343299865723;0.042379945516586304
1767708646925518300;-0.0557861328125;0.1653594970703125;0.7140655517578125;-0.1258585900068283;0.2644590735435486;0.02021712064743042
1767708646935518200;-0.04412841796875;0.162109375;0.734954833984375;-0.12319197505712509;0.2609138786792755;-0.008184692822396755
1767708646945519000;-0.0245513916015625;0.16143798828125;0.7798919677734375;-0.10758958011865616;0.2605021595954895;-0.06334888190031052
1767708646955519200;-0.0051727294921875;0.1668701171875;0.84112548828125;-0.05986279994249344;0.2548847496509552;-0.16242752969264984
1767708646965519000;-0.0268096923828125;0.1561279296875;0.9108428955078125;0.0037060549948364496;0.24905508756637573;-0.27093908190727234
1767708646975520300;-0.0836639404296875;0.1343536376953125;1.0037994384765625;0.09166254103183746;0.2021978348493576;-0.3654717206954956
1767708646985520000;-0.1566009521484375;0.110626220703125;1.0941925048828125;0.19774556159973145;0.11565282940864563;-0.4259755313396454
1767708646995521300;-0.2282867431640625;0.080596923828125;1.1660919189453125;0.3151262700557709;0.01859472319483757;-0.44000720977783203
1767708647005521400;-0.269989013671875;0.050445556640625;1.2259979248046875;0.4178640842437744;-0.09301143139600754;-0.4063025116920471
1767708647015522300;-0.2691497802734375;-0.0012359619140625;1.2606658935546875;0.4650995135307312;-0.15356692671775818;-0.3588617444038391
1767708647025522200;-0.2562713623046875;-0.061737060546875;1.2653350830078125;0.4345701038837433;-0.17743949592113495;-0.29991614818573
1767708647035523000;-0.231292724609375;-0.0634307861328125;1.2617645263671875;0.3496256470680237;-0.2059827297925949;-0.2806234061717987
1767708647045523200;-0.21484375;-0.0018768310546875;1.22662353515625;0.17293129861354828;-0.2069433331489563;-0.3594018518924713
1767708647055523000;-0.2201995849609375;0.0997161865234375;1.1909942626953125;-0.03616998717188835;-0.24454423785209656;-0.5258795022964478
1767708647065524200;-0.2116241455078125;0.155181884765625;1.2389373779296875;-0.1805143803358078;-0.31039753556251526;-0.7241848707199097
1767708647075524400;-0.2483367919921875;0.1684417724609375;1.261138916015625;-0.2601032257080078;-0.34816303849220276;-0.8479717969894409
1767708647085525800;-0.31048583984375;0.187774658203125;1.2462615966796875;-0.20928238332271576;-0.3487318754196167;-0.8940370082855225
1767708647095525600;-0.358642578125;0.188201904296875;1.192352294921875;-0.07634643465280533;-0.22454042732715607;-0.8296977281570435
1767708647105526800;-0.3206634521484375;0.1415252685546875;1.1218414306640625;0.09784320741891861;-0.04843224585056305;-0.671633780002594
1767708647115526700;-0.126312255859375;0.101318359375;1.0966033935546875;0.22010892629623413;0.060138437896966934;-0.47588637471199036
1767708647125526800;0.131622314453125;0.119110107421875;1.1191558837890625;0.25307753682136536;0.09721443057060242;-0.29164543747901917
1767708647135527700;0.370819091796875;0.1883544921875;1.2151031494140625;0.19374389946460724;-0.034928690642118454;-0.19504618644714355
1767708647145527600;0.514923095703125;0.2603912353515625;1.316741943359375;0.08844650536775589;-0.2001914083957672;-0.20356883108615875
1767708647155528400;0.5373687744140625;0.3291778564453125;1.388671875;-0.023380689322948456;-0.27331462502479553;-0.25025591254234314
1767708647165528600;0.47369384765625;0.36029052734375;1.43218994140625;-0.12400317192077637;-0.2931021749973297;-0.1937532275915146
1767708647175529700;0.3452301025390625;0.31329345703125;1.41217041015625;-0.1899009644985199;-0.33934956789016724;-0.04338635504245758
1767708647185529600;0.231170654296875;0.217437744140625;1.314483642578125;-0.1892721951007843;-0.473742812871933;0.016773920506238937
1767708647195529700;0.1588287353515625;0.1226654052734375;1.1684722900390625;-0.08582942187786102;-0.5922002196311951;-0.010674482211470604
1767708647205530600;0.1000823974609375;0.0084075927734375;1.017730712890625;0.09857770800590515;-0.5888129472732544;-0.011335745453834534
1767708647215530800;0.06243896484375;-0.1024932861328125;0.969390869140625;0.29979416728019714;-0.5214935541152954;0.02316763624548912
1767708647225531600;0.04949951171875;-0.1790313720703125;1.009063720703125;0.4581369459629059;-0.4717739224433899;0.05061577260494232
1767708647235531500;0.0202484130859375;-0.2376861572265625;1.06500244140625;0.49135029315948486;-0.4385131597518921;0.016695355996489525
1767708647245532700;-0.0239410400390625;-0.26611328125;1.1156463623046875;0.41600412130355835;-0.3581475019454956;-0.08106023073196411
1767708647255532800;-0.044921875;-0.2057342529296875;1.16741943359375;0.354462206363678;-0.25148576498031616;-0.16011936962604523
1767708647265533700;-0.039276123046875;-0.1002197265625;1.1901092529296875;0.2727079689502716;-0.1355961710214615;-0.12958702445030212
1767708647275533600;-0.0166473388671875;-0.0194091796875;1.1731414794921875;0.15874063968658447;-0.0735573098063469;-0.05887024104595184
1767708647285533700;0.04559326171875;0.068572998046875;1.184173583984375;0.07984369993209839;-0.0669420138001442;-0.020723121240735054
1767708647295534600;0.08160400390625;0.1217803955078125;1.2120361328125;0.03285328671336174;-0.07295889407396317;-0.010721620172262192
1767708647305534700;0.0803985595703125;0.14556884765625;1.185577392578125;-0.019902069121599197;-0.07501272857189178;-0.0001531317684566602
1767708647315535600;0.05157470703125;0.151580810546875;1.11322021484375;-0.07683166116476059;-0.07288059592247009;0.021439511328935623
1767708647325535500;0.02691650390625;0.13824462890625;1.0273590087890625;-0.11973652243614197;-0.057799648493528366;0.044071320444345474
1767708647335536600;0.02130126953125;0.1112213134765625;0.938690185546875;-0.1400417983531952;-0.05980048328638077;0.0699487254023552
1767708647345536800;0.0170135498046875;0.0800628662109375;0.8511962890625;-0.1301308423280716;-0.08019683510065079;0.13541029393672943
1767708647355536600;0.0152740478515625;0.057769775390625;0.7798004150390625;-0.09998118877410889;-0.13527074456214905;0.25112757086753845
1767708647365537500;0.0204925537109375;0.0279388427734375;0.71868896484375;-0.06154485419392586;-0.194301575422287;0.40510356426239014
1767708647375537700;0.012847900390625;-0.000579833984375;0.6699676513671875;-0.004862665664404631;-0.1925169825553894;0.5594683289527893
1767708647385538600;0.0208587646484375;-0.0066986083984375;0.6449432373046875;0.09612946212291718;-0.1674656867980957;0.6918402314186096
1767708647395538700;0.034088134765625;-0.0042877197265625;0.64276123046875;0.22829149663448334;-0.1276349276304245;0.7970548272132874
1767708647405539800;0.02166748046875;-0.022247314453125;0.6443023681640625;0.3604511320590973;-0.05149701237678528;0.8745205998420715
1767708647415539700;0.0110626220703125;-0.036224365234375;0.640716552734375;0.44963347911834717;0.0143533730879426;0.9227597713470459
1767708647425539800;0.005767822265625;-0.047119140625;0.6430206298828125;0.48861148953437805;0.0663185715675354;0.9357924461364746
1767708647435540700;-0.006866455078125;-0.047943115234375;0.656158447265625;0.4888450503349304;0.08689921349287033;0.9053266644477844
1767708647445540600;-0.005859375;-0.0555572509765625;0.6710662841796875;0.4406556785106659;0.04555736482143402;0.8260952234268188
1767708647455541500;-0.006011962890625;-0.08740234375;0.6822662353515625;0.3630005717277527;0.006943393498659134;0.7108296751976013
1767708647465541600;-0.0190277099609375;-0.1119537353515625;0.7053985595703125;0.2725878655910492;-0.017559552565217018;0.585038959980011
1767708647475542500;-0.034210205078125;-0.1156463623046875;0.7364654541015625;0.188718780875206;-0.07810412347316742;0.47985661029815674
1767708647485542700;-0.064788818359375;-0.1265716552734375;0.7532196044921875;0.09554942697286606;-0.07801783829927444;0.41432660818099976
1767708647495543800;-0.118499755859375;-0.1268157958984375;0.7714691162109375;0.03235287964344025;-0.012524580582976341;0.4038177728652954
1767708647505543700;-0.1473846435546875;-0.110992431640625;0.79168701171875;-0.03038187325000763;0.04772358015179634;0.4185194969177246
1767708647515543800;-0.1562957763671875;-0.0989227294921875;0.798583984375;-0.09919369220733643;0.10445050895214081;0.4417521059513092
1767708647525544700;-0.1798858642578125;-0.0774993896484375;0.81060791015625;-0.15509743988513947;0.13783563673496246;0.47016483545303345
1767708647535544600;-0.206268310546875;-0.0496673583984375;0.8199462890625;-0.2171621471643448;0.12377706915140152;0.5135887265205383
1767708647545545500;-0.209686279296875;-0.0121002197265625;0.833526611328125;-0.2894081175327301;0.03615693747997284;0.5736662149429321
1767708647555545600;-0.1949615478515625;0.0106048583984375;0.85186767578125;-0.3722670376300812;-0.0644780620932579;0.6224411725997925
1767708647565546800;-0.179931640625;0.0345611572265625;0.8887939453125;-0.44494178891181946;-0.12129739671945572;0.6455113887786865
1767708647575546600;-0.146209716796875;0.0728759765625;0.940216064453125;-0.47294971346855164;-0.17188866436481476;0.6239522695541382
1767708647585546800;-0.0955810546875;0.09503173828125;0.9835357666015625;-0.46871235966682434;-0.24014122784137726;0.5627080798149109
1767708647595547600;-0.053375244140625;0.1181793212890625;0.9847412109375;-0.44993361830711365;-0.2803182005882263;0.5020610094070435
1767708647605547800;-0.0691986083984375;0.1326904296875;0.9795684814453125;-0.40364307165145874;-0.27311381697654724;0.5206562280654907
1767708647615548700;-0.18670654296875;0.104278564453125;1.03094482421875;-0.24879516661167145;-0.24633947014808655;0.6990054845809937
1767708647625548500;-0.37353515625;0.0706787109375;1.1499786376953125;-0.04097539559006691;-0.21609582006931305;0.970723032951355
1767708647635549400;-0.5752410888671875;0.002044677734375;1.25927734375;0.1685277670621872;-0.11099495738744736;1.2291492223739624
1767708647645549600;-0.633209228515625;-0.0706787109375;1.3341522216796875;0.325956255197525;0.013439642265439034;1.279013752937317
1767708647655550700;-0.5092315673828125;-0.166259765625;1.3326263427734375;0.3969273865222931;0.02178439125418663;1.0704046487808228
1767708647665550600;-0.31884765625;-0.27398681640625;1.265380859375;0.3859482407569885;-0.05516258627176285;0.7162065505981445
1767708647675550700;-0.174560546875;-0.345703125;1.16204833984375;0.32263851165771484;-0.026817765086889267;0.43302226066589355
1767708647685551600;-0.0780487060546875;-0.331695556640625;1.1377716064453125;0.282840758562088;0.06430947780609131;0.27868807315826416
1767708647695551700;0.06976318359375;-0.233734130859375;1.22705078125;0.30491968989372253;0.16145573556423187;0.1905912458896637
1767708647705552600;0.1930084228515625;-0.1601409912109375;1.3348846435546875;0.34157729148864746;0.14128948748111725;0.16685450077056885
1767708647715552500;0.2060394287109375;-0.0848388671875;1.4371795654296875;0.3582814633846283;0.06549139320850372;0.20230570435523987
1767708647725553700;0.173095703125;0.0147552490234375;1.50689697265625;0.3354744017124176;-0.02040008082985878;0.2329147458076477
1767708647735553800;0.1784515380859375;0.0520782470703125;1.5729217529296875;0.3152032196521759;-0.10666599124670029;0.23629802465438843
1767708647745553700;0.1959686279296875;0.0668182373046875;1.6084442138671875;0.2620584964752197;-0.15387345850467682;0.19482621550559998
1767708647755554600;0.237030029296875;0.05694580078125;1.5411834716796875;0.14823980629444122;-0.1052451953291893;0.1285204291343689
1767708647765554700;0.2720947265625;0.024261474609375;1.3832244873046875;-0.028564533218741417;-0.01973135955631733;0.12201352417469025
1767708647775555600;0.2617645263671875;0.0242767333984375;1.19354248046875;-0.19291885197162628;0.03624056279659271;0.18186087906360626
1767708647785555700;0.2626190185546875;0.0405731201171875;1.056884765625;-0.2549065947532654;0.08039896935224533;0.24666143953800201
1767708647795556600;0.280517578125;0.072509765625;0.965728759765625;-0.24174311757087708;0.17443332076072693;0.2386690378189087
1767708647805556500;0.2737274169921875;0.12237548828125;0.9106292724609375;-0.19458280503749847;0.3069990873336792;0.19253402948379517
1767708647815557600;0.226837158203125;0.16314697265625;0.915802001953125;-0.15038657188415527;0.41908007860183716;0.1699560135602951
1767708647825557800;0.1580352783203125;0.192535400390625;0.960479736328125;-0.11449568718671799;0.47929176688194275;0.17202796041965485
1767708647835557600;0.104156494140625;0.1994476318359375;1.024200439453125;-0.062122493982315063;0.5454569458961487;0.13997282087802887
1767708647845558500;0.1103363037109375;0.18939208984375;1.0850067138671875;0.001826395862735808;0.6275856494903564;0.06311851739883423
1767708647855558700;0.126678466796875;0.1560516357421875;1.1256103515625;0.02419082447886467;0.6639606952667236;-0.010055829770863056
1767708647865559600;0.1160736083984375;0.116455078125;1.134429931640625;-0.030704915523529053;0.6441795229911804;-0.023960992693901062
1767708647875559700;0.083587646484375;0.080291748046875;1.131072998046875;-0.14004498720169067;0.5533452033996582;0.0027545075863599777
1767708647885560800;0.0418701171875;0.0396270751953125;1.1161956787109375;-0.23980353772640228;0.47485893964767456;0.03489779680967331
1767708647895560700;0.0030975341796875;0.015045166015625;1.0892181396484375;-0.2875252664089203;0.40994730591773987;0.049204032868146896
1767708647905560800;-0.0156707763671875;-0.001190185546875;1.018463134765625;-0.2773647606372833;0.3494216501712799;0.041068606078624725
1767708647915561700;-0.021240234375;-0.0223236083984375;0.922821044921875;-0.2205536812543869;0.296362966299057;0.02087785117328167
1767708647925561600;-0.01214599609375;-0.0402374267578125;0.8220672607421875;-0.14754924178123474;0.27021098136901855;-0.00373002327978611
1767708647935562500;0.0002899169921875;-0.0563507080078125;0.7294158935546875;-0.06760168075561523;0.2427322119474411;-0.02225683629512787
1767708647945562600;0.0232696533203125;-0.066162109375;0.661407470703125;0.020620590075850487;0.2196761667728424;-0.03410284221172333
1767708647955563500;0.0494537353515625;-0.0669403076171875;0.6034698486328125;0.07800105959177017;0.21616984903812408;-0.05450106039643288
1767708647965563600;0.06939697265625;-0.04901123046875;0.5500946044921875;0.07651767879724503;0.22087059915065765;-0.09620882570743561
1767708647975564800;0.0759429931640625;-0.0071563720703125;0.5406494140625;0.02881513722240925;0.22108444571495056;-0.15358956158161163
1767708647985564700;0.0754852294921875;0.042877197265625;0.5509033203125;-0.0461035780608654;0.23440638184547424;-0.21995793282985687
1767708647995564800;0.061981201171875;0.0854949951171875;0.5676116943359375;-0.121153324842453;0.28281837701797485;-0.2940097749233246
1767708648005565700;0.0626983642578125;0.1257476806640625;0.5877685546875;-0.18662287294864655;0.3156636953353882;-0.37782052159309387
1767708648015565600;0.0827789306640625;0.152740478515625;0.6001129150390625;-0.244773268699646;0.31825679540634155;-0.472177118062973
1767708648025566500;0.0758819580078125;0.1773529052734375;0.62396240234375;-0.26102280616760254;0.2972199618816376;-0.5364623665809631
1767708648035566600;0.040802001953125;0.2077178955078125;0.6455535888671875;-0.22166287899017334;0.2855582535266876;-0.5645366311073303
1767708648045567700;0.0046539306640625;0.2269439697265625;0.663726806640625;-0.18671688437461853;0.27502545714378357;-0.5613658428192139
1767708648055567600;-0.022247314453125;0.2460784912109375;0.6949462890625;-0.14741049706935883;0.3022991418838501;-0.5122742056846619
1767708648065568800;-0.0436553955078125;0.2557525634765625;0.742828369140625;-0.12353125959634781;0.3655942380428314;-0.41589948534965515
1767708648075568600;-0.0425262451171875;0.2427215576171875;0.7706756591796875;-0.11317235976457596;0.455921471118927;-0.3020687699317932
1767708648085568500;-0.0303192138671875;0.2026519775390625;0.8135528564453125;-0.037886928766965866;0.5127621293067932;-0.23651373386383057
1767708648095569400;-0.0128326416015625;0.151824951171875;0.8260650634765625;0.07210535556077957;0.47478169202804565;-0.22494415938854218
1767708648105569300;-0.0231170654296875;0.104278564453125;0.8458709716796875;0.2077806293964386;0.3601866662502289;-0.22849789261817932
1767708648115570400;-0.063934326171875;0.060943603515625;0.8883056640625;0.36112597584724426;0.2145165652036667;-0.21556851267814636
1767708648125570300;-0.08306884765625;0.041748046875;0.92852783203125;0.4943452775478363;0.08031507581472397;-0.19090551137924194
1767708648135571200;-0.061279296875;0.024871826171875;1.0011138916015625;0.5795808434486389;-0.07808680832386017;-0.16416150331497192
1767708648145571600;-0.0416259765625;0.0186920166015625;1.0786285400390625;0.5918718576431274;-0.24049675464630127;-0.1445518583059311
1767708648155571500;-0.0308990478515625;0.03558349609375;1.1489105224609375;0.5108334422111511;-0.40039509534835815;-0.1404189020395279
1767708648165572400;-0.075103759765625;0.0603790283203125;1.210113525390625;0.3366187512874603;-0.46022140979766846;-0.16538496315479279
1767708648175572500;-0.1561126708984375;0.0697174072265625;1.2764892578125;0.13799329102039337;-0.41342565417289734;-0.25980547070503235
1767708648185573400;-0.198150634765625;0.0735931396484375;1.3447723388671875;-0.05803081393241882;-0.4205876886844635;-0.4305165112018585
1767708648195573200;-0.258270263671875;0.0499114990234375;1.3634185791015625;-0.22003117203712463;-0.4375759959220886;-0.6164272427558899
1767708648205574400;-0.33648681640625;0.0305023193359375;1.3132171630859375;-0.28346338868141174;-0.47854262590408325;-0.7056340575218201
1767708648215574300;-0.3462066650390625;0.0223541259765625;1.255584716796875;-0.23910845816135406;-0.4984060525894165;-0.6909704804420471
1767708648225575400;-0.300689697265625;0.0027923583984375;1.24652099609375;-0.18222679197788239;-0.5605011582374573;-0.6667777895927429
1767708648235575600;-0.271392822265625;0.0129852294921875;1.197845458984375;-0.1511136144399643;-0.5339755415916443;-0.6541413068771362
1767708648245575400;-0.1772003173828125;0.04510498046875;1.182403564453125;-0.06887120753526688;-0.38826996088027954;-0.6227839589118958
1767708648255576300;0.0200347900390625;0.0739593505859375;1.206268310546875;0.0018607506062835455;-0.2658809423446655;-0.5295791625976562
1767708648265576400;0.2576751708984375;0.130950927734375;1.2457275390625;0.004792358260601759;-0.1700313836336136;-0.40753793716430664
1767708648275577300;0.47808837890625;0.2111358642578125;1.32293701171875;-0.05769551917910576;-0.12384577840566635;-0.35183393955230713
1767708648285577200;0.6693878173828125;0.261749267578125;1.4134521484375;-0.21201825141906738;-0.25182583928108215;-0.35852351784706116
1767708648295578400;0.7275543212890625;0.2977447509765625;1.4550018310546875;-0.43016761541366577;-0.3550422489643097;-0.3087919354438782
1767708648305578500;0.5824432373046875;0.32452392578125;1.4426116943359375;-0.5753037929534912;-0.41540786623954773;-0.17136962711811066
1767708648315579400;0.347625732421875;0.29400634765625;1.37615966796875;-0.6126196980476379;-0.527435839176178;-0.03726108372211456
1767708648325579500;0.1842041015625;0.209686279296875;1.1796417236328125;-0.560524046421051;-0.6088252663612366;0.12833267450332642
1767708648335579400;0.0977020263671875;0.09429931640625;1.03668212890625;-0.4406333267688751;-0.6365364789962769;0.29909375309944153
1767708648345580300;0.0594329833984375;-0.00592041015625;1.009613037109375;-0.2787773013114929;-0.561716616153717;0.3875858187675476
1767708648355580400;0.02490234375;-0.07623291015625;1.0409088134765625;-0.0580609068274498;-0.36800092458724976;0.40135514736175537
1767708648365581300;0.0022735595703125;-0.086822509765625;1.083740234375;0.15130802989006042;-0.1416812390089035;0.3601666986942291
1767708648375581200;-0.0023345947265625;-0.09442138671875;1.1213836669921875;0.2867012619972229;0.052026450634002686;0.31205296516418457
1767708648385582300;0.0175323486328125;-0.0609588623046875;1.1646270751953125;0.3438178300857544;0.16741588711738586;0.2821483314037323
1767708648395582500;0.0554046630859375;0.018218994140625;1.190399169921875;0.325130432844162;0.18553471565246582;0.300025075674057
1767708648405583400;0.06500244140625;0.0751800537109375;1.206207275390625;0.22276489436626434;0.23086491227149963;0.353564977645874
1767708648415583500;0.056915283203125;0.100677490234375;1.236602783203125;0.08221977204084396;0.27040138840675354;0.41709789633750916
1767708648425583400;0.084259033203125;0.13385009765625;1.2613372802734375;-0.03239096328616142;0.2594486176967621;0.4679434895515442
1767708648435584300;0.1135711669921875;0.12762451171875;1.229766845703125;-0.10664814710617065;0.22662781178951263;0.5172023773193359
1767708648445584400;0.121551513671875;0.089141845703125;1.1365509033203125;-0.14308898150920868;0.20147879421710968;0.5748803615570068
1767708648455585300;0.1092529296875;0.0543670654296875;1.0268402099609375;-0.15831027925014496;0.1673080325126648;0.6477715969085693
1767708648465585400;0.090576171875;0.0124359130859375;0.905731201171875;-0.18278951942920685;0.10533440858125687;0.7383432984352112
1767708648475586300;0.075347900390625;-0.0309295654296875;0.7967987060546875;-0.19071775674819946;0.07979416102170944;0.8272907733917236
1767708648485586400;0.0746612548828125;-0.06573486328125;0.705322265625;-0.14854446053504944;0.061350710690021515;0.9112032055854797
1767708648495586300;0.06048583984375;-0.058868408203125;0.6339874267578125;-0.051657333970069885;0.03913275524973869;0.995159924030304
1767708648505587500;0.0484771728515625;-0.047119140625;0.575958251953125;0.07085686177015305;0.055277902632951736;1.0543590784072876
1767708648515587300;0.0597381591796875;-0.049102783203125;0.5339202880859375;0.20206227898597717;0.044735245406627655;1.0606558322906494
1767708648525588200;0.0794830322265625;-0.058013916015625;0.50927734375;0.2930790185928345;0.010333064943552017;1.023554801940918
1767708648535588400;0.0610504150390625;-0.082000732421875;0.5140380859375;0.34625622630119324;0.012538694776594639;1.0021896362304688
1767708648545589500;0.0230865478515625;-0.117279052734375;0.5575408935546875;0.3901509642601013;0.08319582045078278;1.0174309015274048
1767708648555589400;-0.0006256103515625;-0.122406005859375;0.6072845458984375;0.3983124792575836;0.1493237018585205;1.021816611289978
1767708648565590300;-0.0153656005859375;-0.1303253173828125;0.66436767578125;0.3675388693809509;0.18164277076721191;0.968633234500885
1767708648575590400;-0.046905517578125;-0.135009765625;0.7271881103515625;0.3228004276752472;0.19105863571166992;0.8852317929267883
1767708648585590300;-0.079559326171875;-0.130126953125;0.769622802734375;0.26695606112480164;0.17628315091133118;0.7898378968238831
1767708648595591400;-0.1183319091796875;-0.12548828125;0.784393310546875;0.2060687392950058;0.15539304912090302;0.7007602453231812
1767708648605591300;-0.147430419921875;-0.1124725341796875;0.80010986328125;0.12292032688856125;0.1356731355190277;0.6346978545188904
1767708648615592200;-0.1644287109375;-0.0898590087890625;0.8115234375;0.04218340665102005;0.09854521602392197;0.5916150808334351
1767708648625592600;-0.1715240478515625;-0.055938720703125;0.82440185546875;-0.011825766414403915;0.06540590524673462;0.564940333366394
1767708648635593500;-0.1700439453125;-0.0242919921875;0.8121490478515625;-0.07600155472755432;0.047144342213869095;0.5466838479042053
1767708648645593300;-0.1611175537109375;-0.000579833984375;0.8017730712890625;-0.13278867304325104;0.027703799307346344;0.5293498635292053
1767708648655594200;-0.16888427734375;0.0031585693359375;0.815155029296875;-0.17368869483470917;-0.012544021010398865;0.5276089310646057
1767708648665594400;-0.200897216796875;0.0067901611328125;0.835418701171875;-0.1971554160118103;-0.06133366376161575;0.5473906397819519
1767708648675594200;-0.25799560546875;0.0330352783203125;0.8292236328125;-0.2420182228088379;-0.1578942984342575;0.6131818890571594
1767708648685595400;-0.278167724609375;0.0368499755859375;0.867584228515625;-0.2254997044801712;-0.17229080200195312;0.6498174071311951
1767708648695595300;-0.23876953125;0.031982421875;0.9472503662109375;-0.15764954686164856;-0.17940518260002136;0.6147153377532959
1767708648705596400;-0.0995941162109375;0.02008056640625;1.048919677734375;-0.10788439214229584;-0.2123868316411972;0.4711981415748596
1767708648715596500;0.0445709228515625;-0.0039520263671875;1.1251220703125;-0.10006134957075119;-0.3098851442337036;0.2934342622756958
1767708648725597400;0.0717315673828125;-0.001556396484375;1.0899505615234375;-0.15900589525699615;-0.37256211042404175;0.2139250636100769
1767708648735597300;-0.0998992919921875;0.04815673828125;0.98541259765625;-0.2541923224925995;-0.4014821946620941;0.36926963925361633
1767708648745597400;-0.4066925048828125;0.1410980224609375;0.9729766845703125;-0.24054177105426788;-0.4684865176677704;0.7659405469894409
1767708648755598300;-0.6328582763671875;0.178802490234375;1.1858673095703125;0.03279869258403778;-0.36809760332107544;1.062787413597107
1767708648765598200;-0.6402740478515625;0.1173858642578125;1.342742919921875;0.28364184498786926;-0.2667403519153595;1.0515533685684204
1767708648775599400;-0.5074310302734375;0.017364501953125;1.348236083984375;0.3864899277687073;-0.1579776555299759;0.7578378915786743
1767708648785599500;-0.2847900390625;-0.172882080078125;1.27471923828125;0.38584011793136597;-0.0460876002907753;0.3104249835014343
1767708648795600400;-0.076873779296875;-0.3363494873046875;1.2018890380859375;0.3532715141773224;0.04470089077949524;-0.05178489908576012
1767708648805600500;0.050506591796875;-0.3845367431640625;1.1379547119140625;0.3421916961669922;0.20264898240566254;-0.20415526628494263
1767708648815601400;0.1868743896484375;-0.304656982421875;1.2036285400390625;0.4143284857273102;0.36747947335243225;-0.21053992211818695
1767708648825601300;0.3679046630859375;-0.199981689453125;1.32745361328125;0.5008314251899719;0.3990184962749481;-0.08454151451587677
1767708648835601400;0.39788818359375;-0.10943603515625;1.4126434326171875;0.5073114037513733;0.2806721329689026;0.13333675265312195
1767708648845602300;0.365325927734375;-0.0040283203125;1.4575653076171875;0.42999133467674255;0.10477621108293533;0.27125734090805054
1767708648855602200;0.3075103759765625;0.019561767578125;1.54803466796875;0.40541887283325195;0.019182216376066208;0.30624300241470337
1767708648865603300;0.2491912841796875;0.0041656494140625;1.589080810546875;0.37276318669319153;0.006843524985015392;0.2004699856042862
1767708648875603500;0.269378662109375;-0.033966064453125;1.474456787109375;0.22112013399600983;0.022605976089835167;-0.04643434286117554
1767708648885604400;0.2751922607421875;-0.0427703857421875;1.273681640625;0.017071926966309547;0.058702196925878525;-0.21998003125190735
1767708648895604500;0.27777099609375;-0.005401611328125;1.1163787841796875;-0.1367061883211136;0.06094937026500702;-0.2521611452102661
1767708648905605400;0.33038330078125;0.0087432861328125;1.061126708984375;-0.2014058232307434;0.14656014740467072;-0.29588332772254944
1767708648915605200;0.368133544921875;0.0371856689453125;1.0840606689453125;-0.19166184961795807;0.26452964544296265;-0.3715288043022156
1767708648925605400;0.3065643310546875;0.1056060791015625;1.135772705078125;-0.17376300692558289;0.32511016726493835;-0.4215722680091858
1767708648935606300;0.176971435546875;0.13702392578125;1.168304443359375;-0.18730810284614563;0.355164498090744;-0.4111712872982025
1767708648945606400;0.140472412109375;0.14898681640625;1.2005615234375;-0.21865244209766388;0.48208409547805786;-0.4860846996307373
1767708648955607300;0.205047607421875;0.119903564453125;1.2447662353515625;-0.19989819824695587;0.6541141867637634;-0.6259145140647888
1767708648965607400;0.230194091796875;0.112091064453125;1.275665283203125;-0.1417350322008133;0.7449710965156555;-0.6761848330497742
1767708648975608300;0.1877593994140625;0.0951080322265625;1.24261474609375;-0.17886854708194733;0.6503519415855408;-0.5691478848457336
1767708648985608400;0.131591796875;0.0684814453125;1.1430206298828125;-0.31953272223472595;0.4545150399208069;-0.3906356692314148
1767708648995609300;0.0889739990234375;0.0502166748046875;1.0524139404296875;-0.43379777669906616;0.2779543995857239;-0.25054460763931274
1767708649005609200;0.072357177734375;0.0310821533203125;0.9718017578125;-0.49942633509635925;0.17719341814517975;-0.2163536101579666
1767708649015609300;0.0669708251953125;0.0087890625;0.88787841796875;-0.4937812089920044;0.14295423030853271;-0.261735200881958
1767708649025610500;0.0756988525390625;-0.024566650390625;0.7996368408203125;-0.4227467179298401;0.13838903605937958;-0.33978766202926636
1767708649035610400;0.0704193115234375;-0.0483856201171875;0.7003173828125;-0.3512946367263794;0.15565083920955658;-0.3899618685245514
1767708649045611300;0.073577880859375;-0.0585479736328125;0.6175384521484375;-0.27893468737602234;0.12019218504428864;-0.4036787450313568
1767708649055611400;0.0739898681640625;-0.0485382080078125;0.5753936767578125;-0.1950259506702423;0.07219377160072327;-0.4042827785015106
1767708649065612300;0.0670166015625;-0.0319976806640625;0.537628173828125;-0.14515052735805511;0.054898668080568314;-0.40959763526916504
1767708649075612400;0.0758819580078125;-0.0112762451171875;0.5116424560546875;-0.11170842498540878;0.09541440010070801;-0.4353610575199127
1767708649085612000;0.0745086669921875;0.0219573974609375;0.536224365234375;-0.088251031935215;0.1582743227481842;-0.45729032158851624
1767708649095613000;0.072357177734375;0.068939208984375;0.5530242919921875;-0.10535811632871628;0.2173541635274887;-0.47467437386512756
1767708649105613000;0.0630645751953125;0.094940185546875;0.5692138671875;-0.13512639701366425;0.21179454028606415;-0.5200498700141907
1767708649115614200;0.0590362548828125;0.13763427734375;0.60809326171875;-0.16303099691867828;0.22514629364013672;-0.5848751664161682
1767708649125614000;0.039520263671875;0.202728271484375;0.606231689453125;-0.1863405853509903;0.2637224495410919;-0.6320586800575256
1767708649135615200;0.021148681640625;0.229248046875;0.5880126953125;-0.21564334630966187;0.257742315530777;-0.6392236351966858
1767708649145615000;0.0184326171875;0.2254486083984375;0.5785675048828125;-0.21607397496700287;0.23416535556316376;-0.6222702264785767
1767708649155616000;0.0040435791015625;0.218170166015625;0.569549560546875;-0.20319172739982605;0.21629874408245087;-0.5937477946281433
1767708649165616000;-0.0180816650390625;0.2047119140625;0.575103759765625;-0.1499926894903183;0.21326354146003723;-0.572643518447876
1767708649175616000;-0.027099609375;0.1851348876953125;0.6277923583984375;-0.05223763734102249;0.22916394472122192;-0.5744124054908752
1767708649185617200;-0.01849365234375;0.169830322265625;0.6878814697265625;0.03392547741532326;0.21278363466262817;-0.571658194065094
1767708649195617300;-0.0271759033203125;0.1450042724609375;0.746673583984375;0.11743395030498505;0.12206172943115234;-0.5187332034111023
1767708649205618200;-0.0361328125;0.1211700439453125;0.806396484375;0.21417354047298431;-0.06501095741987228;-0.4486542344093323
1767708649215618000;-0.019866943359375;0.1003875732421875;0.86285400390625;0.3127613663673401;-0.2661136984825134;-0.3931654095649719
1767708649225619200;-0.0108184814453125;0.096343994140625;0.9143829345703125;0.3992842733860016;-0.3840464651584625;-0.3583855926990509
1767708649235619000;-0.0018463134765625;0.091094970703125;0.974029541015625;0.4331468939781189;-0.43832993507385254;-0.32332560420036316
1767708649245620000;0.01910400390625;0.0816497802734375;1.0430755615234375;0.4007636606693268;-0.49020352959632874;-0.23866690695285797
1767708649255620000;-0.01885986328125;0.082000732421875;1.1037139892578125;0.32542097568511963;-0.5603584051132202;-0.11066818982362747
1767708649265620000;-0.097259521484375;0.1195220947265625;1.1454315185546875;0.22297023236751556;-0.5404201149940491;-0.0441054105758667
1767708649275621000;-0.1806488037109375;0.16595458984375;1.1824188232421875;0.11722516268491745;-0.44977089762687683;-0.07075858861207962
1767708649285621200;-0.271240234375;0.1941375732421875;1.2253570556640625;-0.0012399677652865648;-0.37042438983917236;-0.18017536401748657
1767708649295622100;-0.3561553955078125;0.1494140625;1.3281402587890625;-0.12023959308862686;-0.32843807339668274;-0.349264532327652
1767708649305622000;-0.4075469970703125;0.0641326904296875;1.4642333984375;-0.33429357409477234;-0.2749652564525604;-0.5040554404258728
1767708649315623200;-0.491455078125;-0.00469970703125;1.4957122802734375;-0.5777248740196228;-0.2266368716955185;-0.5216863751411438
1767708649325623000;-0.537689208984375;0.004791259765625;1.4181365966796875;-0.6042816042900085;-0.085578553378582;-0.47327035665512085
1767708649335624200;-0.374114990234375;0.011566162109375;1.3254547119140625;-0.40705084800720215;-0.0758497565984726;-0.47608211636543274
1767708649345624300;-0.0803680419921875;-0.0574951171875;1.2455902099609375;-0.24140702188014984;-0.10979307442903519;-0.5035353302955627
1767708649355624200;0.135528564453125;-0.1273193359375;1.2327728271484375;-0.14197684824466705;-0.07046377658843994;-0.49815893173217773
1767708649365625000;0.3855438232421875;-0.0781097412109375;1.364288330078125;-0.06594306230545044;-0.14879080653190613;-0.48055994510650635
1767708649375625200;0.6389312744140625;0.0253753662109375;1.4679107666015625;-0.07532990723848343;-0.31711164116859436;-0.4697653651237488
1767708649385626000;0.7766876220703125;0.1028594970703125;1.480560302734375;-0.15663008391857147;-0.4996151328086853;-0.44149911403656006
1767708649395626000;0.723052978515625;0.206451416015625;1.4288330078125;-0.32880452275276184;-0.3998076021671295;-0.3577355146408081
1767708649405627100;0.602569580078125;0.3511810302734375;1.3545379638671875;-0.6341468691825867;-0.30728405714035034;-0.23456136882305145
1767708649415627000;0.3775177001953125;0.38543701171875;1.2821044921875;-0.7489640116691589;-0.4209331274032593;-0.0540965236723423
1767708649425627000;0.18768310546875;0.2942962646484375;1.158538818359375;-0.6322011351585388;-0.3714126944541931;0.07582152634859085
1767708649435628300;0.1329498291015625;0.165740966796875;1.0616455078125;-0.42581096291542053;-0.4243760406970978;0.18863676488399506
1767708649445628200;0.0882720947265625;0.01629638671875;1.04888916015625;-0.20788875222206116;-0.4255630075931549;0.27478814125061035
1767708649455629000;0.0677337646484375;-0.084869384765625;1.08258056640625;0.0016165387351065874;-0.3391469120979309;0.28453773260116577
1767708649465629200;0.0795440673828125;-0.14080810546875;1.1801605224609375;0.2009861022233963;-0.17914311587810516;0.22506055235862732
1767708649475630000;0.0686492919921875;-0.1736297607421875;1.247802734375;0.358046293258667;-0.03789598122239113;0.16869127750396729
1767708649485630000;0.0585784912109375;-0.1642913818359375;1.2823028564453125;0.4621495306491852;0.055313590914011;0.15764954686164856
1767708649495631000;0.0457305908203125;-0.1125335693359375;1.2642669677734375;0.45575422048568726;0.18442869186401367;0.23183909058570862
1767708649505631200;0.0258026123046875;-0.048095703125;1.1857757568359375;0.32351866364479065;0.28378352522850037;0.35977602005004883
1767708649515632000;0.072723388671875;0.0110015869140625;1.1344451904296875;0.11102744936943054;0.275860071182251;0.4264400005340576
1767708649525632300;0.1356658935546875;0.03509521484375;1.1437530517578125;-0.05320223420858383;0.23973456025123596;0.4054305851459503
1767708649535632100;0.1630859375;0.0485382080078125;1.145751953125;-0.15335866808891296;0.1926293671131134;0.37231284379959106
1767708649545633000;0.1462554931640625;0.04937744140625;1.0838470458984375;-0.21988043189048767;0.1761569231748581;0.37458959221839905
1767708649555633200;0.09710693359375;0.0267486572265625;0.9804840087890625;-0.2935546636581421;0.14109960198402405;0.422489196062088
1767708649565634000;0.059906005859375;0.0211029052734375;0.8822479248046875;-0.3519439399242401;0.06362558156251907;0.49055638909339905
1767708649575634000;0.0471954345703125;0.0206756591796875;0.7993316650390625;-0.37732359766960144;0.02219824679195881;0.5373896956443787
1767708649585635000;0.0635223388671875;-0.0030364990234375;0.7039031982421875;-0.3563554584980011;-0.10347792506217957;0.5637744069099426
1767708649595635200;0.0567779541015625;-0.0494537353515625;0.615447998046875;-0.2957080900669098;-0.1289273500442505;0.5728195905685425
1767708649605635000;0.0418701171875;-0.060333251953125;0.5550384521484375;-0.18854674696922302;-0.09135894477367401;0.5755285620689392
1767708649615636200;0.0457611083984375;-0.068756103515625;0.5032501220703125;-0.05710482969880104;-0.0724712684750557;0.5670940279960632
1767708649625636000;0.02874755859375;-0.087188720703125;0.4449310302734375;0.06652230024337769;-0.050095923244953156;0.5627501606941223
1767708649635637000;0.016387939453125;-0.1029815673828125;0.42822265625;0.19897009432315826;-0.009846239350736141;0.5717721581459045
1767708649645637000;-0.000518798828125;-0.1167755126953125;0.4519195556640625;0.3262263238430023;0.04131761193275452;0.5850093960762024
1767708649655638300;-0.01202392578125;-0.129364013671875;0.491241455078125;0.41190633177757263;0.09632254391908646;0.5871719121932983
1767708649665638100;-0.019989013671875;-0.1400146484375;0.5367584228515625;0.43268883228302;0.11881905794143677;0.5696086287498474
1767708649675639000;-0.05047607421875;-0.1363677978515625;0.576019287109375;0.39290866255760193;0.110143281519413;0.5392608046531677
1767708649685639200;-0.09234619140625;-0.1163330078125;0.61181640625;0.319228857755661;0.07592352479696274;0.5054080486297607
1767708649695639000;-0.1145172119140625;-0.1020050048828125;0.6547698974609375;0.22998632490634918;0.038367629051208496;0.45917531847953796
1767708649705640200;-0.1129608154296875;-0.0912933349609375;0.71533203125;0.1593845933675766;0.019113773480057716;0.3929675221443176
1767708649715640000;-0.111907958984375;-0.075225830078125;0.7808074951171875;0.1342930942773819;0.05415777862071991;0.30761799216270447
1767708649725641000;-0.13507080078125;-0.0602264404296875;0.8194580078125;0.11840493977069855;0.10216844826936722;0.2423495203256607
1767708649735641000;-0.1757049560546875;-0.037109375;0.842132568359375;0.07663139700889587;0.08255213499069214;0.23691001534461975
1767708649745642200;-0.2074432373046875;-0.01873779296875;0.857666015625;-0.003919640555977821;0.004320712294429541;0.2743700444698334
1767708649755642000;-0.234130859375;-0.001220703125;0.8612518310546875;-0.11449728161096573;-0.08950857818126678;0.328383207321167
1767708649765643000;-0.2397918701171875;0.0264129638671875;0.88299560546875;-0.23702239990234375;-0.15763916075229645;0.35227149724960327
1767708649775643100;-0.2000885009765625;0.03228759765625;0.942718505859375;-0.3396627604961395;-0.18321242928504944;0.3331744968891144
1767708649785643000;-0.1426849365234375;0.0052337646484375;1.02386474609375;-0.4125324487686157;-0.18830066919326782;0.2956966459751129
1767708649795644200;-0.0801849365234375;-0.0027923583984375;1.0894317626953125;-0.45648738741874695;-0.200651615858078;0.29307395219802856
1767708649805644000;-0.0668182373046875;0.0225677490234375;1.109344482421875;-0.5156359076499939;-0.26323696970939636;0.3583480417728424
1767708649815645200;-0.164306640625;0.1004791259765625;1.101470947265625;-0.5275764465332031;-0.3345465660095215;0.4907289743423462
1767708649825645300;-0.3647918701171875;0.1731414794921875;1.1520233154296875;-0.37898141145706177;-0.34324949979782104;0.6897499561309814
1767708649835646200;-0.568511962890625;0.1993408203125;1.26409912109375;-0.10153168439865112;-0.24164006114006042;0.8898526430130005
1767708649845646000;-0.665313720703125;0.139801025390625;1.39752197265625;0.19067621231079102;-0.16022109985351562;0.9682036638259888
1767708649855647000;-0.579010009765625;0.005157470703125;1.4843902587890625;0.4000518023967743;-0.06638834625482559;0.8392403721809387
1767708649865647000;-0.349578857421875;-0.144622802734375;1.4185791015625;0.4345565140247345;0.08424697071313858;0.5537987351417542
1767708649875647000;-0.1212921142578125;-0.2435302734375;1.2430572509765625;0.34538963437080383;0.2787346839904785;0.27363473176956177
1767708649885648100;0.0723419189453125;-0.2453765869140625;1.108795166015625;0.28020796179771423;0.4791564643383026;0.1012246236205101
1767708649895648000;0.2651824951171875;-0.2159423828125;1.1378021240234375;0.37489718198776245;0.5531423091888428;0.0667039304971695
1767708649905649200;0.3700408935546875;-0.1991119384765625;1.28619384765625;0.542215883731842;0.48668763041496277;0.13724946975708008
1767708649915649300;0.320404052734375;-0.1503753662109375;1.376434326171875;0.6131494045257568;0.315794974565506;0.17404715716838837
1767708649925650200;0.2345428466796875;-0.0693511962890625;1.466644287109375;0.6679021716117859;0.12512515485286713;0.16274496912956238
1767708649935650000;0.181365966796875;-0.049407958984375;1.590301513671875;0.7397116422653198;0.0031904669012874365;0.17905737459659576
1767708649945650200;0.2012176513671875;-0.0389404296875;1.6045989990234375;0.6925864815711975;-0.04921867698431015;0.16557857394218445
1767708649955651000;0.272979736328125;-0.02764892578125;1.487335205078125;0.5022828578948975;-0.019845344126224518;0.06878332793712616
1767708649965651000;0.339111328125;-0.01971435546875;1.3469390869140625;0.2656910717487335;-0.08710454404354095;0.006417152937501669
1767708649975652000;0.3824462890625;0.01885986328125;1.2307281494140625;0.06367245316505432;-0.12950898706912994;-0.060864683240652084
1767708649985652200;0.351531982421875;0.0831451416015625;1.1326446533203125;-0.09908690303564072;-0.08723423629999161;-0.1526433378458023
1767708649995653000;0.2943115234375;0.161468505859375;1.09869384765625;-0.19694794714450836;0.08879484981298447;-0.25040557980537415
1767708650005653200;0.228240966796875;0.2210693359375;1.1130523681640625;-0.22316277027130127;0.26346200704574585;-0.33601343631744385
1767708650015654100;0.1609039306640625;0.23382568359375;1.143310546875;-0.22730478644371033;0.3777100145816803;-0.39722511172294617
1767708650025654000;0.136444091796875;0.1953125;1.162017822265625;-0.2372804582118988;0.4849850535392761;-0.445986807346344
1767708650035654100;0.1844024658203125;0.1273193359375;1.1875152587890625;-0.24658554792404175;0.5524176359176636;-0.5197744965553284
1767708650045655000;0.2265777587890625;0.07916259765625;1.2165985107421875;-0.23830577731132507;0.5666168332099915;-0.5841785073280334
1767708650055655000;0.20245361328125;0.05389404296875;1.1753082275390625;-0.274773508310318;0.49857357144355774;-0.5847044587135315
1767708650065656000;0.1524658203125;0.0360107421875;1.1134796142578125;-0.3351638913154602;0.3622484803199768;-0.5396493673324585
1767708650075656200;0.108001708984375;0.0251922607421875;1.072357177734375;-0.348817378282547;0.2509952187538147;-0.49519082903862
1767708650085657000;0.08209228515625;0.009002685546875;1.0185546875;-0.3371058702468872;0.15746259689331055;-0.4784454107284546
1767708650095658000;0.0682373046875;-0.0052490234375;0.95892333984375;-0.301633358001709;0.08610931783914566;-0.48116955161094666
1767708650105659100;0.0432281494140625;-0.0095672607421875;0.87652587890625;-0.23908288776874542;0.044497959315776825;-0.4832580089569092
1767708650115659000;0.020904541015625;-0.006317138671875;0.769500732421875;-0.16557058691978455;0.041615087538957596;-0.4701927900314331
1767708650125659000;-0.0011444091796875;-0.000335693359375;0.667572021484375;-0.09379653632640839;0.06859024614095688;-0.4645945727825165
1767708650135660000;0.001434326171875;-0.0047607421875;0.5955352783203125;-0.049797914922237396;0.08140458166599274;-0.47330203652381897
1767708650145660000;0.022186279296875;-0.011932373046875;0.542449951171875;-0.06563706696033478;0.07841358333826065;-0.48156610131263733
1767708650155660800;0.0428924560546875;0.006317138671875;0.5140838623046875;-0.07883595675230026;0.09219837188720703;-0.48565539717674255
1767708650165661000;0.0612335205078125;0.0437469482421875;0.490478515625;-0.09497471898794174;0.12789671123027802;-0.5172838568687439
1767708650175662000;0.0813446044921875;0.0899505615234375;0.4738311767578125;-0.12357307225465775;0.15214799344539642;-0.5758193731307983
1767708650185662000;0.0876617431640625;0.1410980224609375;0.478424072265625;-0.16149728000164032;0.18791210651397705;-0.6412409543991089
1767708650195662800;0.066986083984375;0.19921875;0.5019683837890625;-0.19039444625377655;0.23434539139270782;-0.6806155443191528
1767708650205663000;0.0442962646484375;0.23211669921875;0.5269317626953125;-0.2161104679107666;0.28369349241256714;-0.6904205083847046
1767708650215662800;0.0278778076171875;0.2304840087890625;0.554473876953125;-0.21214954555034637;0.3121539056301117;-0.6845559477806091
1767708650225664000;0.0066986083984375;0.2154998779296875;0.5856475830078125;-0.17558513581752777;0.34551531076431274;-0.6769699454307556
1767708650235664000;-0.0200042724609375;0.20477294921875;0.60211181640625;-0.13146188855171204;0.3474777936935425;-0.6710162162780762
1767708650245665000;-0.0392608642578125;0.2153778076171875;0.6344757080078125;-0.08571037650108337;0.3082638084888458;-0.6317965984344482
1767708650255665200;-0.0588836669921875;0.230194091796875;0.67230224609375;-0.05736395716667175;0.2883945107460022;-0.5494160056114197
1767708650265666000;-0.064300537109375;0.23309326171875;0.715423583984375;-0.024382304400205612;0.26353177428245544;-0.466239333152771
1767708650275666000;-0.04730224609375;0.201080322265625;0.77703857421875;0.02504090406000614;0.21766628324985504;-0.4438072741031647
1767708650285666800;-0.0362091064453125;0.168853759765625;0.8348846435546875;0.10184434056282043;0.12270487844944;-0.4809066951274872
1767708650295667000;-0.0484771728515625;0.1355133056640625;0.882476806640625;0.20546500384807587;0.017657557502388954;-0.5266153216362
1767708650305666800;-0.062835693359375;0.0865936279296875;0.9137725830078125;0.30223068594932556;-0.05964921414852142;-0.5302659869194031
1767708650315668000;-0.061126708984375;0.0394744873046875;0.9530487060546875;0.3725227117538452;-0.08118247240781784;-0.46041208505630493
1767708650325667800;-0.0329132080078125;0.01007080078125;1.0279693603515625;0.40285584330558777;-0.13251915574073792;-0.3026501536369324
1767708650335669000;-0.0018768310546875;-0.0035858154296875;1.0967864990234375;0.3802141845226288;-0.23862908780574799;-0.12680988013744354
1767708650345669000;-0.02520751953125;0.0279388427734375;1.1365509033203125;0.314227432012558;-0.3170818090438843;-0.04319966956973076
1767708650355670000;-0.0760955810546875;0.0994110107421875;1.1679534912109375;0.19327890872955322;-0.3226291835308075;-0.1134709045290947
1767708650365670000;-0.153717041015625;0.1570281982421875;1.2571868896484375;0.04697949439287186;-0.34681469202041626;-0.36036670207977295
1767708650375670000;-0.263885498046875;0.14654541015625;1.3717498779296875;-0.12843893468379974;-0.40176287293434143;-0.6699234843254089
1767708650385671000;-0.3883514404296875;0.0658111572265625;1.4515533447265625;-0.34155094623565674;-0.48125743865966797;-0.8824823498725891
1767708650395670800;-0.4603118896484375;-0.0236358642578125;1.4947357177734375;-0.5075114369392395;-0.5478207468986511;-0.9100961685180664
1767708650405672200;-0.4345550537109375;-0.0969390869140625;1.43603515625;-0.447897344827652;-0.497651606798172;-0.7689390182495117
1767708650415672000;-0.284271240234375;-0.1208343505859375;1.2894439697265625;-0.2184670865535736;-0.3947712779045105;-0.6150993704795837
1767708650425673000;0.0155181884765625;-0.1180572509765625;1.171722412109375;-0.046850331127643585;-0.24917493760585785;-0.562472403049469
1767708650435673000;0.319549560546875;-0.0506439208984375;1.15740966796875;0.0772005096077919;-0.05847848951816559;-0.5405300855636597
1767708650445674000;0.6374053955078125;0.065582275390625;1.2692718505859375;0.13576875627040863;-0.12127076834440231;-0.5392986536026001
1767708650455673900;0.8401947021484375;0.176605224609375;1.3472900390625;0.05807555466890335;-0.36802995204925537;-0.5396163463592529
1767708650465674000;0.7821044921875;0.32598876953125;1.392730712890625;-0.12615446746349335;-0.42947253584861755;-0.42321836948394775
1767708650475675000;0.5938262939453125;0.4647064208984375;1.42315673828125;-0.48599520325660706;-0.3138492703437805;-0.3071351647377014
1767708650485674800;0.3983306884765625;0.511627197265625;1.4100799560546875;-0.8036554455757141;-0.41307705640792847;-0.2929365336894989
1767708650495676200;0.2177734375;0.420166015625;1.29718017578125;-0.7579324245452881;-0.5021824240684509;-0.28250041604042053
1767708650505676000;0.092681884765625;0.240997314453125;1.033477783203125;-0.553879976272583;-0.3916569948196411;-0.10518847405910492
1767708650515677000;0.0848541259765625;0.07989501953125;0.9139404296875;-0.26769590377807617;-0.25211986899375916;0.13692723214626312
1767708650525677000;0.15118408203125;-0.0085906982421875;0.9406890869140625;0.008620652370154858;-0.1577129364013672;0.330106258392334
1767708650535678000;0.1935577392578125;-0.03411865234375;1.0438079833984375;0.20138931274414062;-0.15657176077365875;0.417858749628067
1767708650545677800;0.1400604248046875;0.00830078125;1.154754638671875;0.26410195231437683;-0.16690722107887268;0.4519754648208618
1767708650555678000;0.04364013671875;0.095733642578125;1.28558349609375;0.3051740229129791;-0.12515579164028168;0.4921649396419525
1767708650565679000;-0.00933837890625;0.17022705078125;1.375701904296875;0.34675902128219604;-0.023978037759661674;0.5773767828941345
1767708650575679000;0.015655517578125;0.1963653564453125;1.4167327880859375;0.3557048439979553;0.06281597912311554;0.7158235907554626
1767708650585680100;0.072998046875;0.1741943359375;1.4196319580078125;0.2890467047691345;0.07832623273134232;0.8517297506332397
1767708650595680000;0.1390380859375;0.133758544921875;1.3513641357421875;0.16698898375034332;0.0435703806579113;0.9037066698074341
1767708650605681000;0.195709228515625;0.083953857421875;1.2674713134765625;0.0414062961935997;-0.02900555171072483;0.8768002390861511
1767708650615681000;0.1947479248046875;0.02288818359375;1.159515380859375;-0.07244890183210373;-0.0771227478981018;0.8237945437431335
1767708650625682000;0.1560211181640625;-0.0191802978515625;1.0352020263671875;-0.16173776984214783;-0.09602533280849457;0.7989230155944824
1767708650635681800;0.102386474609375;-0.060516357421875;0.8903656005859375;-0.22936953604221344;-0.13404116034507751;0.827275812625885
1767708650645682000;0.0541534423828125;-0.0861968994140625;0.757415771484375;-0.2639637291431427;-0.18668226897716522;0.8898600935935974
1767708650655683000;0.0355224609375;-0.0985107421875;0.6655120849609375;-0.2374836653470993;-0.20794999599456787;0.9418578147888184
1767708650665683000;0.0365447998046875;-0.0909881591796875;0.58135986328125;-0.15263721346855164;-0.18753154575824738;0.9654890894889832
1767708650675684000;0.0372161865234375;-0.086181640625;0.5112762451171875;-0.028356008231639862;-0.15641117095947266;0.9713102579116821
1767708650685684000;0.0240325927734375;-0.0732421875;0.4629974365234375;0.09760245680809021;-0.12751774489879608;0.9915952682495117
1767708650695684900;0.0058441162109375;-0.0574188232421875;0.446929931640625;0.19553834199905396;-0.10182170569896698;1.0426957607269287
1767708650705685000;-0.00927734375;-0.051239013671875;0.46258544921875;0.2930441200733185;-0.05994615703821182;1.0854296684265137
1767708650715686100;-0.0190887451171875;-0.0568389892578125;0.5061187744140625;0.39167696237564087;0.01581891067326069;1.090348243713379
1767708650725686000;-0.0315399169921875;-0.07476806640625;0.5691375732421875;0.4574016332626343;0.12938249111175537;1.054498314857483
1767708650735686100;-0.049041748046875;-0.0819244384765625;0.62347412109375;0.47452205419540405;0.19762253761291504;0.9959242343902588
1767708650745687000;-0.0634002685546875;-0.089935302734375;0.6554718017578125;0.43995606899261475;0.18711049854755402;0.9082226157188416
1767708650755687000;-0.082489013671875;-0.115142822265625;0.6883697509765625;0.3652397692203522;0.14780117571353912;0.8020098805427551
1767708650765688000;-0.110198974609375;-0.1117401123046875;0.7144317626953125;0.2748568654060364;0.11118617653846741;0.7109503149986267
1767708650775688000;-0.124542236328125;-0.10546875;0.720550537109375;0.16327068209648132;0.06242050230503082;0.6509497761726379
1767708650785688800;-0.139373779296875;-0.1071319580078125;0.7091522216796875;0.05257852375507355;0.07524655014276505;0.6001793146133423
1767708650795689000;-0.146728515625;-0.089508056640625;0.712615966796875;-0.019994746893644333;0.11739986389875412;0.5304720997810364
1767708650805688800;-0.149139404296875;-0.083648681640625;0.7350311279296875;-0.05795810744166374;0.12521757185459137;0.4428535997867584
1767708650815690000;-0.181671142578125;-0.0575408935546875;0.7656097412109375;-0.09463835507631302;0.05109727382659912;0.39175233244895935
1767708650825690000;-0.228729248046875;-0.03778076171875;0.7866363525390625;-0.1659032106399536;-0.047687627375125885;0.4038950204849243
1767708650835691000;-0.261749267578125;-0.0248260498046875;0.81878662109375;-0.25413215160369873;-0.10387766361236572;0.4525725245475769
1767708650845691000;-0.233367919921875;-0.0069122314453125;0.8792266845703125;-0.3436548411846161;-0.11459235846996307;0.5077449679374695
1767708650855692000;-0.120208740234375;-0.0077362060546875;0.97137451171875;-0.41238704323768616;-0.12251739203929901;0.5265545845031738
1767708650865692000;0.0212249755859375;-0.027862548828125;1.06085205078125;-0.4882117509841919;-0.1443936675786972;0.48702824115753174
1767708650875693000;0.1153106689453125;-0.0381317138671875;1.0888519287109375;-0.5621309876441956;-0.17475342750549316;0.410499632358551
1767708650885693200;0.0336761474609375;-0.0124053955078125;1.0861663818359375;-0.5323706865310669;-0.27763959765434265;0.388231098651886
1767708650895693000;-0.2801666259765625;0.0427703857421875;1.1192169189453125;-0.35704681277275085;-0.2962031662464142;0.517268717288971
1767708650905694000;-0.641448974609375;0.104827880859375;1.23046875;-0.050991810858249664;-0.16921645402908325;0.7446390390396118
1767708650915694000;-0.804290771484375;0.104949951171875;1.3861236572265625;0.24024242162704468;-0.03473081439733505;0.8902952671051025
1767708650925695000;-0.7145538330078125;0.021881103515625;1.4951934814453125;0.455175518989563;0.05864972993731499;0.8553796410560608
1767708650935694800;-0.4503326416015625;-0.1245574951171875;1.506561279296875;0.5831430554389954;0.1206774190068245;0.596388041973114
1767708650945696000;-0.1460418701171875;-0.3027191162109375;1.32281494140625;0.5170122385025024;0.16119341552257538;0.22645923495292664
1767708650955695900;0.0384979248046875;-0.3789825439453125;1.1274261474609375;0.3771435618400574;0.18779386579990387;-0.019155584275722504
1767708650965697000;0.1479339599609375;-0.32171630859375;1.1306610107421875;0.3520038425922394;0.19760708510875702;-0.0767432451248169
1767708650975697200;0.232696533203125;-0.169708251953125;1.21435546875;0.4235118627548218;0.25327354669570923;-0.037572942674160004
1767708650985697000;0.2946319580078125;-0.0517730712890625;1.3184051513671875;0.4989088773727417;0.23189501464366913;0.021018998697400093
1767708650995698000;0.308624267578125;0.0063018798828125;1.4217071533203125;0.48716166615486145;0.10885697603225708;0.05477110296487808
1767708651005698000;0.3003082275390625;0.0528564453125;1.516937255859375;0.42027798295021057;0.000008255799002654385;0.050269827246665955
1767708651015699000;0.2888336181640625;0.063018798828125;1.6079559326171875;0.3851953446865082;0.017617342993617058;0.032705217599868774
1767708651025698800;0.301544189453125;0.0433807373046875;1.600341796875;0.3589610755443573;0.06513293087482452;-0.043287284672260284
1767708651035700000;0.3155670166015625;0.0086669921875;1.4464874267578125;0.27650588750839233;0.08399849385023117;-0.13870860636234283
1767708651045700000;0.3143463134765625;-0.00836181640625;1.197662353515625;0.10487394779920578;0.09376164525747299;-0.22955650091171265
1767708651055701000;0.319580078125;0.0134124755859375;0.972503662109375;-0.0627286285161972;0.1394154131412506;-0.3085751533508301
1767708651065701000;0.3101654052734375;0.0514373779296875;0.900238037109375;-0.11542806029319763;0.2302028387784958;-0.36903584003448486
1767708651075701000;0.281829833984375;0.106109619140625;0.9188690185546875;-0.08592822402715683;0.31783947348594666;-0.37058764696121216
1767708651085702000;0.1891021728515625;0.1605377197265625;0.99542236328125;-0.03786855190992355;0.3190845251083374;-0.2942441403865814
1767708651095701200;0.1125335693359375;0.1864013671875;1.0897369384765625;-0.04483804479241371;0.34363219141960144;-0.27392634749412537
1767708651105702100;0.1307220458984375;0.15240478515625;1.1496734619140625;-0.09841365367174149;0.49540334939956665;-0.4088034927845001
1767708651115702300;0.2156829833984375;0.0781097412109375;1.2375335693359375;-0.11614444851875305;0.6639851927757263;-0.6349937319755554
1767708651125703400;0.2116546630859375;0.0416717529296875;1.300079345703125;-0.13262036442756653;0.7435631155967712;-0.7540830969810486
1767708651135703300;0.1028594970703125;0.0349273681640625;1.274200439453125;-0.2217896580696106;0.6852082014083862;-0.7012955546379089
1767708651145704200;0.0341644287109375;0.025482177734375;1.2043914794921875;-0.34850552678108215;0.539233386516571;-0.6071836948394775
1767708651155704300;0.0388031005859375;0.0052490234375;1.1212158203125;-0.4297502934932709;0.43062329292297363;-0.5974146723747253
1767708651165704200;0.0695343017578125;-0.00860595703125;1.0253753662109375;-0.45405006408691406;0.37009310722351074;-0.6748588681221008
1767708651175705000;0.0944061279296875;-0.021697998046875;0.92120361328125;-0.40719521045684814;0.31595608592033386;-0.7691020369529724
1767708651185705200;0.101165771484375;-0.021728515625;0.83203125;-0.2368474304676056;0.2793373763561249;-0.8200613260269165
1767708651195706400;0.0775604248046875;-0.0240631103515625;0.729217529296875;-0.04827006161212921;0.2912571430206299;-0.8115370869636536
1767708651205706200;0.072723388671875;-0.07733154296875;0.5878448486328125;-0.014771223068237305;0.29698002338409424;-0.777288019657135
1767708651215707400;0.109649658203125;-0.0887908935546875;0.5297088623046875;-0.0031316110398620367;0.26275333762168884;-0.7835384607315063
1767708651225707300;0.115264892578125;-0.0539703369140625;0.5277099609375;0.027648139744997025;0.25705069303512573;-0.8223175406455994
1767708651235707400;0.0856781005859375;-0.000213623046875;0.4973907470703125;-0.0060331248678267;0.3422074019908905;-0.8475419282913208
1767708651245708300;0.0705108642578125;0.068206787109375;0.4825439453125;-0.05216946080327034;0.4403872489929199;-0.8631512522697449
1767708651255708200;0.0911712646484375;0.09906005859375;0.5117034912109375;-0.09856119751930237;0.5171725749969482;-0.8581740856170654
1767708651265709000;0.102783203125;0.147735595703125;0.508331298828125;-0.1918293535709381;0.5946213006973267;-0.8225604295730591
1767708651275709200;0.088836669921875;0.19415283203125;0.519012451171875;-0.26072800159454346;0.6652858853340149;-0.7815168499946594
1767708651285710300;0.0764923095703125;0.216552734375;0.5346527099609375;-0.3066299855709076;0.7450030446052551;-0.7572743892669678
1767708651295710200;0.0608367919921875;0.2156524658203125;0.5152587890625;-0.34638404846191406;0.7888386845588684;-0.7660215497016907
1767708651305711400;0.0419158935546875;0.2162933349609375;0.519439697265625;-0.3518485724925995;0.7462310194969177;-0.7634829878807068
1767708651315711200;-0.0182342529296875;0.226409912109375;0.5527801513671875;-0.33193346858024597;0.7135998606681824;-0.6980233192443848
1767708651325711400;-0.0751190185546875;0.2231597900390625;0.60675048828125;-0.2646670639514923;0.731112003326416;-0.5992271900177002
1767708651335712300;-0.071929931640625;0.2255706787109375;0.6785888671875;-0.15235544741153717;0.7618589997291565;-0.5026609897613525
1767708651345712000;-0.054412841796875;0.219390869140625;0.7802581787109375;-0.025112809613347054;0.6857402920722961;-0.4001750946044922
1767708651355713300;-0.0145416259765625;0.200164794921875;0.87237548828125;0.07414639741182327;0.5023193359375;-0.31053709983825684
1767708651365713400;0.02117919921875;0.1670379638671875;0.959442138671875;0.164694145321846;0.2844402492046356;-0.24285872280597687
1767708651375714300;0.0481109619140625;0.1169586181640625;1.0250396728515625;0.24327842891216278;0.08988514542579651;-0.21337006986141205
1767708651385714200;0.0894012451171875;0.079254150390625;1.070709228515625;0.3086816668510437;-0.05609362944960594;-0.21871796250343323
1767708651395715300;0.093017578125;0.042816162109375;1.1058349609375;0.3466745913028717;-0.13686171174049377;-0.2364168018102646
1767708651405715200;0.071502685546875;0.045928955078125;1.1535491943359375;0.355873167514801;-0.1994135081768036;-0.21006348729133606
1767708651415715300;0.0294647216796875;0.08966064453125;1.1983489990234375;0.3133770823478699;-0.2785693109035492;-0.1400548368692398
1767708651425716200;-0.0300140380859375;0.1371612548828125;1.2338104248046875;0.1952454000711441;-0.3449515402317047;-0.0859742984175682
1767708651435716000;-0.0760345458984375;0.1776275634765625;1.2921142578125;0.0369444340467453;-0.42274245619773865;-0.12151684612035751
1767708651445717200;-0.1295623779296875;0.17767333984375;1.3556976318359375;-0.1313582956790924;-0.4697621762752533;-0.25353214144706726
1767708651455717400;-0.2127685546875;0.1300201416015625;1.4052276611328125;-0.30516815185546875;-0.49616315960884094;-0.3852273225784302
1767708651465718300;-0.297607421875;0.076141357421875;1.42816162109375;-0.4463561773300171;-0.5225127339363098;-0.4285481572151184
1767708651475718100;-0.3526458740234375;0.034393310546875;1.3952484130859375;-0.5230227112770081;-0.5404624342918396;-0.4028473198413849
1767708651485719300;-0.339202880859375;0.0317840576171875;1.3201446533203125;-0.4748767614364624;-0.5382131338119507;-0.3665878474712372
1767708651495719200;-0.234832763671875;0.0115814208984375;1.2451324462890625;-0.32072076201438904;-0.49551013112068176;-0.35946282744407654
1767708651505719300;-0.02655029296875;-0.041107177734375;1.1851654052734375;-0.13489416241645813;-0.37642690539360046;-0.3626224100589752
1767708651515720400;0.20849609375;-0.0467681884765625;1.1619720458984375;-0.00493244081735611;-0.21122142672538757;-0.2989235818386078
1767708651525720300;0.4473419189453125;0.0357818603515625;1.2017974853515625;0.026502713561058044;-0.11320938169956207;-0.20730312168598175
1767708651535721200;0.6744537353515625;0.15496826171875;1.2570037841796875;-0.0488053560256958;-0.1550005078315735;-0.18708492815494537
1767708651545721300;0.810089111328125;0.2483367919921875;1.2787628173828125;-0.20060713589191437;-0.20340025424957275;-0.19199314713478088
1767708651555722200;0.8504180908203125;0.32696533203125;1.293121337890625;-0.3960634469985962;-0.28472867608070374;-0.11044342070817947
1767708651565722000;0.7657623291015625;0.3635406494140625;1.3132476806640625;-0.5880552530288696;-0.4602016806602478;0.032838374376297
1767708651575723300;0.58062744140625;0.3186187744140625;1.27227783203125;-0.6528488993644714;-0.6745390295982361;0.09919130057096481
1767708651585723100;0.4081573486328125;0.2349853515625;1.129486083984375;-0.5841494798660278;-0.7447998523712158;0.13900475203990936
1767708651595723300;0.245849609375;0.09576416015625;1.0172271728515625;-0.4292546808719635;-0.6204821467399597;0.214067280292511
1767708651605724400;0.1884918212890625;-0.0340118408203125;0.971099853515625;-0.2311709076166153;-0.42529138922691345;0.2657746970653534
1767708651615724300;0.1877288818359375;-0.1121063232421875;0.9688568115234375;-0.05258172005414963;-0.2821480631828308;0.2654644250869751
1767708651625725200;0.1632537841796875;-0.1626129150390625;0.99468994140625;0.05531705170869827;-0.1621263176202774;0.21366381645202637
1767708651635725300;0.117218017578125;-0.179168701171875;1.0481719970703125;0.10863033682107925;-0.07271654903888702;0.17522960901260376
1767708651645726200;0.077392578125;-0.1336822509765625;1.1197357177734375;0.152908056974411;0.05433354526758194;0.24611443281173706
1767708651655726000;0.0478363037109375;-0.0541229248046875;1.1887969970703125;0.1834164261817932;0.25893276929855347;0.427347868680954
1767708651665726200;0.04107666015625;0.0224609375;1.25537109375;0.18814274668693542;0.4346712827682495;0.5877652168273926
1767708651675727400;0.1058197021484375;0.078521728515625;1.309326171875;0.14391589164733887;0.43889319896698;0.6235328316688538
1767708651685727200;0.189361572265625;0.141204833984375;1.321380615234375;0.036254942417144775;0.318151593208313;0.5599549412727356
1767708651695728400;0.2347564697265625;0.16619873046875;1.279327392578125;-0.0745844915509224;0.1825394481420517;0.4682854413986206
1767708651705728300;0.2326507568359375;0.1465606689453125;1.2172393798828125;-0.13408802449703217;0.06143726035952568;0.39916282892227173
1767708651715729200;0.2021636962890625;0.1128997802734375;1.103424072265625;-0.1464991569519043;-0.073616161942482;0.37985891103744507
1767708651725729300;0.1676788330078125;0.0868377685546875;0.962432861328125;-0.11378622055053711;-0.1952323466539383;0.405380517244339
1767708651735730200;0.1210479736328125;0.0332489013671875;0.8238525390625;-0.06899610906839371;-0.2770252227783203;0.4806489050388336
1767708651745730000;0.0725555419921875;-0.0210113525390625;0.7089691162109375;0.001281779375858605;-0.2980567216873169;0.6101094484329224
1767708651755730200;0.048675537109375;-0.02862548828125;0.6059112548828125;0.10435250401496887;-0.28075656294822693;0.7443833351135254
1767708651765731300;0.05914306640625;-0.0236053466796875;0.5195465087890625;0.21565745770931244;-0.28818386793136597;0.8474718928337097
1767708651775731200;0.06549072265625;-0.04730224609375;0.4530029296875;0.3002453148365021;-0.2883172929286957;0.9001151323318481
1767708651785732400;0.0522003173828125;-0.0767974853515625;0.414581298828125;0.37074345350265503;-0.2513049244880676;0.9156491160392761
1767708651795732200;0.0213165283203125;-0.0950164794921875;0.4136810302734375;0.45610520243644714;-0.18383347988128662;0.9141470789909363
1767708651805733000;-0.0147857666015625;-0.1179046630859375;0.4388275146484375;0.520402193069458;-0.08373723924160004;0.9049866199493408
1767708651815733200;-0.0382537841796875;-0.1475067138671875;0.478302001953125;0.5317935943603516;0.020676782354712486;0.8705085515975952
1767708651825734400;-0.04644775390625;-0.168426513671875;0.54150390625;0.4867190420627594;0.0775160938501358;0.8131057024002075
1767708651835734300;-0.0400238037109375;-0.182952880859375;0.628997802734375;0.43096232414245605;0.08828592300415039;0.6953814625740051
1767708651845734400;-0.0145263671875;-0.1922149658203125;0.7146759033203125;0.3851380944252014;0.0289421696215868;0.49953392148017883
1767708651855735300;-0.01531982421875;-0.184234619140625;0.77386474609375;0.31174883246421814;-0.07209230214357376;0.28248468041419983
1767708651865735200;-0.0465087890625;-0.155364990234375;0.80084228515625;0.18608678877353668;-0.1523573100566864;0.13755840063095093
1767708651875736300;-0.126220703125;-0.1265869140625;0.8093719482421875;0.07540607452392578;-0.11158298701047897;0.08819431066513062
1767708651885736200;-0.1977386474609375;-0.0939788818359375;0.8052520751953125;-0.007389472797513008;-0.024709872901439667;0.09130754321813583
1767708651895737000;-0.22216796875;-0.0470428466796875;0.8021392822265625;-0.07060626149177551;-0.011700864881277084;0.11525016278028488
1767708651905737200;-0.2326202392578125;-0.0097198486328125;0.791534423828125;-0.12975560128688812;-0.04976622387766838;0.12656459212303162
1767708651915737000;-0.2333831787109375;0.013427734375;0.795166015625;-0.19380861520767212;-0.1312035620212555;0.12059565633535385
1767708651925738200;-0.23870849609375;0.04058837890625;0.8178253173828125;-0.26475176215171814;-0.20311956107616425;0.13909929990768433
1767708651935738400;-0.2470703125;0.062347412109375;0.8562164306640625;-0.3216720521450043;-0.20095227658748627;0.21811635792255402
1767708651945739300;-0.15765380859375;0.0729522705078125;0.9433746337890625;-0.32588863372802734;-0.09840886294841766;0.21295461058616638
1767708651955739100;0.0370941162109375;0.050323486328125;1.0241851806640625;-0.2978825569152832;-0.03713032603263855;0.11330924928188324
1767708651965740300;0.1453399658203125;0.0206756591796875;1.0438995361328125;-0.29526573419570923;-0.03393533080816269;0.02401851676404476
1767708651975740200;-0.0019683837890625;-0.0006256103515625;1.0677490234375;-0.23942004144191742;-0.07959336042404175;0.08857087790966034
1767708651985741300;-0.3309173583984375;-0.001800537109375;1.1679840087890625;-0.06531615555286407;-0.09031258523464203;0.3539109230041504
1767708651995741400;-0.6748504638671875;0.0470123291015625;1.303619384765625;0.18414586782455444;-0.08549626171588898;0.7243361473083496
1767708652005741300;-0.82025146484375;0.054290771484375;1.4575958251953125;0.4122573435306549;0.03093261644244194;0.9724375605583191
1767708652015742200;-0.6531829833984375;0.010955810546875;1.5506439208984375;0.5689641237258911;0.1826276034116745;0.9011743068695068
1767708652025742300;-0.270843505859375;-0.1055908203125;1.44256591796875;0.5175584554672241;0.3483223021030426;0.5144534707069397
1767708652035743200;0.0681610107421875;-0.218597412109375;1.284881591796875;0.3429504334926605;0.4997597634792328;0.12058473378419876
1767708652045743000;0.346160888671875;-0.2156524658203125;1.2652740478515625;0.20010752975940704;0.4160930812358856;-0.12005077302455902
1767708652055744300;0.556732177734375;-0.1419219970703125;1.3819580078125;0.14708586037158966;0.09082470834255219;-0.10801514983177185
1767708652065744100;0.519622802734375;-0.0523834228515625;1.4892730712890625;0.17207401990890503;-0.1250804215669632;0.1419677883386612
1767708652075745300;0.33197021484375;0.0575714111328125;1.519805908203125;0.19275826215744019;-0.15373577177524567;0.37506815791130066
1767708652085745400;0.2579803466796875;0.1118316650390625;1.536376953125;0.21696719527244568;-0.14882595837116241;0.403288871049881
1767708652095745300;0.274444580078125;0.0497894287109375;1.5362548828125;0.2727462947368622;-0.13657861948013306;0.29305556416511536
1767708652105746200;0.342041015625;-0.0165252685546875;1.4391632080078125;0.2834269106388092;-0.11874236166477203;0.15382978320121765
1767708652115746300;0.3784332275390625;-0.0413970947265625;1.2742919921875;0.23633423447608948;-0.04743089899420738;0.09099169075489044
1767708652125747500;0.400421142578125;-0.0407867431640625;1.0965118408203125;0.1173069179058075;0.005152684170752764;0.04996756091713905
1767708652135747300;0.4508056640625;0.021087646484375;0.9880218505859375;0.023388413712382317;0.026084864512085915;-0.0024498419370502234
1767708652145748500;0.438690185546875;0.1005401611328125;1.00048828125;-0.026567429304122925;0.1111435666680336;-0.04060042276978493
1767708652155748400;0.3731842041015625;0.1831817626953125;1.0519561767578125;-0.057019609957933426;0.2550109922885895;-0.015780827030539513
1767708652165749200;0.2592620849609375;0.2486419677734375;1.1491851806640625;-0.05356708914041519;0.38384008407592773;0.06603334844112396
1767708652175749400;0.19537353515625;0.2638702392578125;1.20880126953125;-0.10403212904930115;0.5598662495613098;0.03987604379653931
1767708652185749200;0.244842529296875;0.2376861572265625;1.2210540771484375;-0.1820496916770935;0.7787240147590637;-0.21374423801898956
1767708652195750100;0.3329620361328125;0.1587677001953125;1.2629241943359375;-0.21013033390045166;0.9226657152175903;-0.5311874747276306
1767708652205750500;0.3236083984375;0.06884765625;1.26507568359375;-0.2246304452419281;0.9871544241905212;-0.6575637459754944
1767708652215751400;0.2358856201171875;0.0188751220703125;1.210662841796875;-0.2626023292541504;0.8837356567382812;-0.584514856338501
1767708652225751300;0.1561279296875;-0.006988525390625;1.136993408203125;-0.32135140895843506;0.7096043229103088;-0.44294387102127075
1767708652235752400;0.1057891845703125;-0.000823974609375;1.048736572265625;-0.3533865511417389;0.5272598266601562;-0.3497020900249481
1767708652245752300;0.107574462890625;0.0118255615234375;0.9791412353515625;-0.30715620517730713;0.3927976191043854;-0.3569815754890442
1767708652255752400;0.1053314208984375;-0.022552490234375;0.908050537109375;-0.1921880841255188;0.328676700592041;-0.42488762736320496
1767708652265753300;0.1154022216796875;-0.0528411865234375;0.8189239501953125;-0.049963563680648804;0.2275729775428772;-0.5087380409240723
1767708652275753200;0.099517822265625;-0.0783843994140625;0.7252960205078125;0.08146476745605469;0.10108267515897751;-0.5562760233879089
1767708652285754400;0.0548858642578125;-0.1047821044921875;0.635101318359375;0.1729360967874527;0.056839846074581146;-0.5644950866699219
1767708652295754500;0.02337646484375;-0.112518310546875;0.5810394287109375;0.22346265614032745;0.01369051169604063;-0.5598185658454895
1767708652305755400;0.025421142578125;-0.09979248046875;0.5347900390625;0.22570502758026123;-0.027586353942751884;-0.5637264847755432
1767708652315755300;0.0396881103515625;-0.05596923828125;0.50335693359375;0.19087061285972595;-0.010242783464491367;-0.5635009407997131
1767708652325756400;0.0561370849609375;-0.01318359375;0.47509765625;0.12439678609371185;0.02383156307041645;-0.5541268587112427
1767708652335756300;0.0948486328125;0.023681640625;0.4720306396484375;0.06943366676568985;0.04807671532034874;-0.5771898031234741
1767708652345756400;0.123443603515625;0.0737457275390625;0.4889678955078125;0.024466194212436676;0.07478822022676468;-0.6286522150039673
1767708652355757300;0.1278228759765625;0.14471435546875;0.4636993408203125;-0.02484622783958912;0.11668454110622406;-0.7089393138885498
