time,seconds_elapsed,z,y,x
1768418175762985000,0.05098486328125,-0.6510077475070953,-0.2719622531801462,-0.13160280190799384
1768418175772987000,0.06098681640625,-0.6662760437875985,-0.2722416546434164,-0.14008421452734618
1768418175782989000,0.070989013671875,-0.7507049700558185,-0.30241993528604505,-0.18756156662572174
1768418175792990000,0.080989990234375,-0.7116583233028649,-0.2655383576124906,-0.1814888225832954
1768418175802991900,0.090991943359375,-0.7235673722833394,-0.32097207554280754,-0.2034927837943658
1768418175812993000,0.100992919921875,-0.6879290726691484,-0.38272330605685706,-0.2230749977512285
1768418175822995000,0.110994873046875,-0.7112813066840171,-0.37508886565566063,-0.2857104637539014
1768418175832997000,0.1209970703125,-0.7966384537130594,-0.32031799554824825,-0.3111542632205412
1768418175842998000,0.130998046875,-0.7714654340118169,-0.24530747048854826,-0.3296464169183746
1768418175853000000,0.141,-0.7406430102467536,-0.16068565199673174,-0.3726564508769661
1768418175863002000,0.151002197265625,-0.7664040589690208,-0.051343233746290205,-0.4425322799293324
1768418175873003000,0.1610029296875,-0.8276993624091148,0.015521394258737563,-0.5137288727240636
1768418175883005000,0.1710048828125,-0.9021078299224377,0.05739888052344322,-0.5478411318147555
1768418175893007000,0.181007080078125,-0.9622878655970096,0.08727204073965548,-0.5724969957740977
1768418175903008000,0.191008056640625,-0.9953729735970497,0.10262450817227363,-0.5491390261381864
1768418175913010000,0.201010009765625,-1.0358698191583156,0.11078618731796741,-0.5458688088284805
1768418175923011000,0.211010986328125,-1.095659394210577,0.07821604310274123,-0.5703388678921386
1768418175933013000,0.221012939453125,-1.1730687971055507,0.024491467177867886,-0.4938280212720856
1768418175943015000,0.231014892578125,-1.2504103954613208,0.0003442833930253982,-0.3561311768053099
1768418175953016000,0.24101611328125,-1.267584817624092,0.0017284312278032302,-0.2806697661729529
1768418175963018000,0.25101806640625,-1.1785258934676646,-0.010852817925810812,-0.23907971854750065
1768418175973020200,0.261020263671875,-1.0682254438400267,-0.03956453314721584,-0.23765808824654666
1768418175983021000,0.27102099609375,-1.0843301909446716,-0.15050620328783987,-0.22346607942804692
1768418175993023000,0.28102294921875,-1.1310241375803947,-0.21274726314544676,-0.24391393377091733
1768418176003024000,0.29102392578125,-1.133283899205923,-0.25929449478685856,-0.27798889305852353
1768418176013026000,0.301026123046875,-1.1234054792702197,-0.2402776596277952,-0.29265469340123235
1768418176023028000,0.311028076171875,-1.0796247897326945,-0.1399094059497118,-0.26867095654979345
1768418176033029000,0.321029052734375,-1.0171510901629923,-0.15030571227967737,-0.33536143356431275
1768418176043031000,0.331031005859375,-0.9628922612309455,-0.2034574567526579,-0.3943775034934282
1768418176053033000,0.341032958984375,-0.9252841228485107,-0.23735680374503135,-0.3578598637614399
1768418176063034000,0.3510341796875,-0.8528560885626822,-0.3120107704520225,-0.2513773649867624
1768418176073036000,0.3610361328125,-0.6599591157257556,-0.450277669891715,-0.0968069809999317
1768418176083037000,0.371036865234375,-0.47267596418261526,-0.5167483301430941,0.023954729952663182
1768418176093039000,0.3810390625,-0.3001507847776636,-0.5199421577483415,0.11313932631537317
1768418176103041000,0.391041015625,-0.12340544866072013,-0.4563958605110645,0.21872166137993335
1768418176113042000,0.4010419921875,-0.03021393647789955,-0.314068872025609,0.2529092507291585
1768418176123044000,0.411044189453125,-0.005541304046846926,-0.03156768917441368,0.32418533850088715
1768418176133046000,0.4210458984375,-0.03421444082353264,-0.10875380470752716,0.3322145503733307
1768418176143047000,0.431046875,0.03659687898065895,-0.2071025352567434,0.15176285228542982
1768418176153049000,0.441049072265625,0.013406630594469606,-0.23451544283926484,0.0892683291234076
1768418176163051000,0.451051025390625,-0.041430911540985105,-0.22873744395971296,-0.012903247649595141
1768418176173052200,0.46105224609375,-0.035085341906547544,-0.30542613136470315,-0.07508768194913863
1768418176183054000,0.47105419921875,-0.04305942605827003,-0.3594342004060745,-0.15478687628172338
1768418176193055000,0.481054931640625,0.011488229752518236,-0.25501930168569087,-0.24996939788497982
1768418176203057200,0.49105712890625,0.1286930154085159,-0.09321779740154743,-0.35391273357085884
1768418176213059000,0.50105908203125,0.14018822289109228,0.05938333233892917,-0.29202004875950516
1768418176223060000,0.51106005859375,0.1776245483705774,0.19683365469872952,-0.17575119224674998
1768418176233062100,0.521062255859375,0.2312684237420559,0.22851240303218365,-0.007248363693058491
1768418176243063800,0.531063720703125,0.29068394131753594,0.1828553982287645,0.22632336855530738
1768418176253065000,0.54106494140625,0.36765725435018537,0.10572598131895064,0.4707174505259841
1768418176263067000,0.55106689453125,0.40866731013059615,0.06411620607972145,0.638281536924839
1768418176273068000,0.561068115234375,0.44710890366248784,0.011574702459573745,0.6894539441488683
1768418176283070200,0.5710703125,0.4396703511595726,-0.05404957009553909,0.744376059295237
1768418176293072000,0.58107177734375,0.47826983866691586,-0.02224748764336109,0.6314872736748307
1768418176303073000,0.591072998046875,0.5056383956510573,0.252284908285737,0.7226091947756708
1768418176313075000,0.601074951171875,0.31643326306939124,0.08656360020935534,0.838746387732774
1768418176323076900,0.611076904296875,0.1819722587186843,0.1910609165161848,0.7161199058216065
1768418176333078000,0.621078125,0.0899556538004428,0.29218144986629485,0.8791730176020414
1768418176343080000,0.631079833984375,0.06164258250780403,0.2900824317604303,0.7876037911251187
1768418176353081900,0.641081787109375,0.12227386908121406,0.32900808248221874,0.6949025649435818
1768418176363083000,0.6510830078125,0.1437222422361374,0.2770721435397863,0.6703739075604825
1768418176373085000,0.6610849609375,0.122789198192209,0.22393501211404798,0.5979160626582801
1768418176383086000,0.671086181640625,0.08711940746121108,0.1629220327466726,0.4741717556983232
1768418176393087700,0.681087646484375,0.03668919690661132,0.18014438570439814,0.3286292392324656
1768418176403090000,0.69108984375,0.09008651363849639,0.22181612026393413,0.18446838638335467
1768418176413091000,0.701091064453125,0.09495908811092377,0.2999421469956636,0.16914390293620526
1768418176423093000,0.711093017578125,0.037383681976795195,0.3717956693291664,0.1547559696868062
1768418176433095000,0.721094970703125,0.035509631733223794,0.5092144275069237,0.15286058439426123
1768418176443096000,0.731095947265625,0.030106311384961008,0.6043523793160915,0.188949331189692
1768418176453098000,0.741097900390625,-0.04148001137971878,0.674718293440342,0.22119243540763853
1768418176463100200,0.75110009765625,-0.15177337367944418,0.7338748312860727,0.22806129826381802
1768418176473101000,0.76110107421875,-0.2646083832859993,0.6974421664237975,0.16517653367519378
1768418176483103000,0.77110302734375,-0.3564144872587174,0.5508832394570112,0.07503025267347693
1768418176493103900,0.781103759765625,-0.4404009304564446,0.45949616461396214,0.008782879783958196
1768418176503106000,0.79110595703125,-0.5363222146630287,0.3574374736309051,0.012489406151697038
1768418176513108000,0.80110791015625,-0.5785455917559563,0.3258879046350717,0.12942973218522966
1768418176523109000,0.811109130859375,-0.611298910518363,0.30464170298874377,0.29501828072741626
1768418176533111000,0.821111083984375,-0.5319020601332187,0.2666413504183292,0.18976868474856018
1768418176543113000,0.831113037109375,-0.4188847527623176,0.24937223570942876,-0.016034969804063437
1768418176553114000,0.841114013671875,-0.44315307870879767,0.21827508665621279,0.2302006483800709
1768418176563116000,0.851115966796875,-0.4172188653767109,-0.009585574468970298,0.6006867694806307
1768418176573118200,0.8611181640625,-0.3541604977868497,-0.15319675754606724,0.8891596471525728
1768418176583119000,0.871119140625,-0.713486123251915,0.24679274061024187,0.778674488607794
1768418176593121000,0.88112109375,-0.9889048735614866,0.4135398846030235,1.3052663135036826
1768418176603122000,0.891121826171875,-0.8809201535303145,0.37790333855450153,1.3551532109618185
1768418176613124000,0.9011240234375,-0.8358756546020507,0.3867898248434067,1.1034051129665225
1768418176623126000,0.9111259765625,-0.9197031809110194,0.38520869313180445,0.9225414730768651
1768418176633127200,0.921127197265625,-1.0464880976758897,0.36098318341374397,0.7976411279495805
1768418176643129000,0.931129150390625,-1.1255131190739571,0.2589993112325668,0.641682796735689
1768418176653131000,0.941131103515625,-1.1619476836323737,0.17073825945556162,0.5224086939923465
1768418176663132200,0.951132080078125,-1.2230968566000462,0.11441373016536235,0.4282387834977358
1768418176673134000,0.961134033203125,-1.3177578385472297,0.09241349528133869,0.30111681679822505
1768418176683136000,0.971135986328125,-1.422062408760935,0.13274784375727175,0.1906510936062783
1768418176693137200,0.98113720703125,-1.455099293705076,0.2115437325745821,0.09503061897717416
1768418176703139000,0.99113916015625,-1.4789724828541277,0.31280279761254787,0.1059234035871923
1768418176713140000,1.001139892578125,-1.385281807243824,0.4666331768870353,0.18051365740820766
1768418176723142100,1.01114208984375,-1.2329649012722075,0.5814052189707756,0.3517226031154394
1768418176733144000,1.02114404296875,-1.1486045101955533,0.6564198356837034,0.6087788174562155
1768418176743145000,1.03114501953125,-0.9633752224422991,0.5238660531938075,0.9930429232142866
1768418176753147100,1.041147216796875,-0.8825101261354983,0.2801788773834705,1.1889262183856217
1768418176763149000,1.051149169921875,-0.8827471497617662,0.11325111612677574,0.9004773061111568
1768418176773150200,1.061150146484375,-0.8313898874901234,0.057739072263240813,0.5918325049608946
1768418176783152000,1.071152099609375,-0.7842575494371354,-0.10532207669317721,0.5076115954201669
1768418176793154000,1.081154052734375,-1.052793043038994,-0.47963119014799593,0.48851358478367324
1768418176803155200,1.0911552734375,-1.5373182888388632,-0.8210457497388124,0.35780952181369063
1768418176813157000,1.1011572265625,-2.3588158739984033,-0.8256763321489096,-0.6110689742200076
1768418176823158000,1.111157958984375,-2.5876959412992,-0.8612041571259498,0.2706909180700779
1768418176833160200,1.12116015625,-2.6390216393887993,-1.122408869448304,0.05228979388140142
1768418176843162000,1.131162109375,-2.467508888429403,-0.9138777626931667,0.23839235733784733
1768418176853163000,1.1411630859375,-1.8811993846736847,-0.4071481377393007,0.36880868940763173
1768418176863165200,1.151165283203125,-1.0406909557044506,0.39129531956911084,0.29210316046569496
1768418176873167000,1.1611669921875,0.2551053725339472,0.5335545035153627,0.8828602547474205
1768418176883168000,1.17116796875,1.318938718894869,-0.278266321760416,1.4293115031063557
1768418176893170200,1.181170166015625,1.7116018196858465,-1.4088532369673252,0.38674536464717235
1768418176903172000,1.191172119140625,1.33301269082427,-2.389817161461711,0.7701670647643506
1768418176913173200,1.20117333984375,1.3284171797275544,-4.0556238830477,3.3764147079288955
1768418176923175200,1.211175048828125,0.9165371911607683,-5.253835304716229,2.410648352566361
1768418176933177000,1.221177001953125,0.939389658959955,-5.689253259128332,2.5196429802924394
1768418176943178200,1.23117822265625,1.2776666511774062,-5.321753825688361,2.407126315920055
1768418176953180200,1.24118017578125,0.9860768835939466,-4.238644700971245,1.5340461353003978
1768418176963181000,1.25118115234375,0.3530404077157378,-2.154984323236346,0.21460976908169685
1768418176973183200,1.261183349609375,0.2506159521602094,-0.34362872850894927,0.23612821179814636
1768418176983185200,1.27118505859375,0.17843670500367878,0.6581634644806384,-0.4351481244947761
1768418176993186000,1.28118603515625,0.42284430404305456,1.4373241291701793,-1.256696636123955
1768418177003188200,1.291188232421875,0.9029717532753944,1.9405431156545876,-1.9590029014527797
1768418177013190100,1.301190185546875,1.3009810373999178,2.2292443221896887,-2.652877438522875
1768418177023191300,1.31119140625,1.331433312678337,2.3483044168561698,-2.9790146417438983
1768418177033193200,1.321193115234375,1.2193886497318744,2.249829429578781,-3.047515346518159
1768418177043195100,1.331195068359375,0.975686422482878,1.8009394146531819,-3.4335178203761574
1768418177053196300,1.3411962890625,0.9383785091560334,1.415959269580245,-2.395267097430676
1768418177063198200,1.3511982421875,1.8288788303278385,0.26291093171834945,1.0046925175409764
1768418177073199900,1.361199951171875,1.2991736957170068,-0.42281332438290115,-0.24265883740959687
1768418177083201300,1.371201171875,0.5016996679626405,-0.2688151873260736,0.28244578113583846
1768418177093203000,1.381202880859375,0.5001075034003705,0.24367490085065363,1.166527704899013
1768418177103204000,1.3912041015625,1.3325471191391347,-0.25276713884472846,0.8254995142772793
1768418177113206300,1.401206298828125,1.4814542166672646,-0.9175766172111034,0.37861499395519493
1768418177123208000,1.4112080078125,1.821167817559093,-1.2614607817858456,0.1609319731743075
1768418177133209000,1.421208984375,1.8972364733695983,-1.6090519841849802,-0.2607211117901839
1768418177143211000,1.4312109375,1.5395510163269936,-1.482373815730214,-0.8350534514989704
1768418177153213000,1.441212890625,1.4396715690791606,-0.8750660937398672,-1.0304273358434437
1768418177163214000,1.451214111328125,1.2493687774538993,-0.3258767987191677,-1.1635378754332661
1768418177173216000,1.461216064453125,0.973538742929697,0.16812193947732448,-1.399863144173473
1768418177183218000,1.471218017578125,0.6653961922131478,0.690968001973629,-1.430461257663369
1768418177193219000,1.481218994140625,0.3718516373001039,1.0066244354516267,-1.267235419664532
1768418177203221000,1.491220947265625,0.14301365557536483,1.1787947735369204,-1.1596426215603948
1768418177213223000,1.501222900390625,0.17155805140584707,1.3455916018903256,-1.0984824888072908
1768418177223224000,1.51122412109375,0.37367081555128095,1.4548317288100718,-1.0054428244516254
1768418177233226000,1.52122607421875,0.5792283133231103,1.510399302253127,-0.9486932746823876
1768418177243227000,1.531226806640625,0.6849544407725334,1.5133096367418766,-0.9082711017925291
1768418177253229000,1.54122900390625,0.7548118208527564,1.469809517711401,-0.8905717789728194
1768418177263231000,1.55123095703125,0.9072318949379027,1.2853718187272547,-0.9571194499831646
1768418177273232000,1.56123193359375,0.8402595687747001,0.9730050744444131,-1.275203475934267
1768418177283234000,1.571234130859375,0.5479812344051898,0.7001239528536796,-1.542570510278642
1768418177293236000,1.581236083984375,0.10551190017685294,0.8303758881419897,-1.560673591593653
1768418177303237000,1.591237060546875,-0.13667407729029654,1.2615414458066225,-1.5746490715846417
1768418177313239000,1.601239013671875,-0.36642172120586036,1.6993272983938454,-1.3696173512525855
1768418177323241000,1.611240966796875,-0.6268098564483225,2.065551305070519,-0.9949437883995473
1768418177333242000,1.6212421875,-0.741086077839136,2.2447686390578747,-0.5928109215389937
1768418177343244000,1.631244140625,-0.6279976049281656,2.150906114012003,-0.2565213585454039
1768418177353246200,1.64124609375,-0.7826338937580585,2.345179562833905,0.025355422496865503
1768418177363247000,1.6512470703125,0.0979027403473854,1.9556506684154271,0.5424904549691826
1768418177373249000,1.6612490234375,0.20151845151409506,1.0776403379172086,-0.0844196561163757
1768418177383251200,1.671251220703125,0.33262539619654413,0.5591419492363929,-0.264065910439752
1768418177393252000,1.681252197265625,0.10390344206690788,-0.14031214153170585,-0.5096180033391341
1768418177403253800,1.691253662109375,-0.4199614420831203,-0.7766787847459315,-0.5206593295743689
1768418177413254700,1.701254638671875,-0.8614075707435608,-1.0802549043297767,-0.21805720612183213
1768418177423256800,1.7112568359375,-0.9572666764341294,-0.7682710218846798,0.07587843046803026
1768418177433258800,1.7212587890625,-0.662619859367609,0.11860709020197391,0.14489607178848235
1768418177443260000,1.731260009765625,0.014494973820447921,0.9865747501134872,0.020221900099888442
1768418177453261800,1.74126171875,0.7740951979935169,1.4125602747917174,-0.15765333509612828
1768418177463263700,1.751263671875,1.4630420694030821,1.281581778794527,-0.417386988485232
1768418177473265000,1.761264892578125,2.2689992633424696,0.6543395222783088,-0.7011473776172846
1768418177483266800,1.771266845703125,2.7824785086870194,-0.23344985943436622,-0.6736352474439888
1768418177493269000,1.78126904296875,2.903355297386646,-1.505561214572191,-0.6399051195386797
1768418177503270000,1.791269775390625,2.423315818698704,-2.7326427568942306,-0.7629138787657022
1768418177513271800,1.801271728515625,1.8069526835933327,-3.552352874115109,-1.1323109625205396
1768418177523274000,1.81127392578125,1.2423007387638092,-3.2482576990932226,-1.7109250894680619
1768418177533275000,1.82127490234375,0.9686927642032503,-2.4012691143244504,-1.5466813065983354
1768418177543276800,1.83127685546875,0.5636793004050851,-1.8536580284059048,-0.9173268802337348
1768418177553279000,1.841279052734375,0.03746054660528898,-0.9788532159507274,-0.22606994178351014
1768418177563280000,1.85127978515625,-0.11937222935557365,-0.09026245472729205,0.5834411817777901
1768418177573281800,1.86128173828125,0.28463293418288227,0.2603139009624719,1.006700423297286
1768418177583283000,1.871282958984375,0.7533496393457054,0.35483109052479267,1.0060054998356849
1768418177593284900,1.881284912109375,1.0234604194402694,0.4026560870170593,0.7190591741438954
1768418177603286800,1.891286865234375,1.3054476614199577,0.5498655868470669,-0.03707129155937582
1768418177613288000,1.901287841796875,1.3648974831238387,0.8695756796300411,-0.3135299063106999
1768418177623289900,1.911289794921875,1.16185211430341,0.6981932770520448,0.2550829780390486
1768418177633292000,1.9212919921875,1.1099196824923157,0.35488311297297476,0.4093500682303682
1768418177643293000,1.93129296875,1.1078208105169236,0.2136474268555641,0.5287812246989458
1768418177653294800,1.941294921875,1.162133853854239,0.1980576435357332,0.4934837378790602
1768418177663297000,1.951297119140625,1.245694326724857,0.33245909971892834,0.28985443169083447
1768418177673298000,1.9612978515625,1.203208791564405,0.5278858102291822,0.19431111395116896
1768418177683299800,1.9712998046875,1.1018880594670772,0.7131669743001461,0.24086535985525695
1768418177693302000,1.981302001953125,0.8915551639869809,0.7926730572134256,0.3845520558539778
1768418177703303000,1.991302978515625,0.7184228490017354,0.7297381698727607,0.5135724765859544
1768418177713304800,2.001304931640625,0.6785141785919666,0.5419470688074827,0.5825851860029623
1768418177723307000,2.01130712890625,0.7282043844342231,0.3127911071747541,0.5792751481395214
1768418177733308000,2.021307861328125,0.7724092907331883,0.14693535906374453,0.46663938743211325
1768418177743309800,2.031309814453125,0.7802630729734897,0.06444587642550469,0.30140458423104133
1768418177753311000,2.04131103515625,0.7880196784496307,0.08029051128923892,0.10299655635505914
1768418177763313000,2.05131298828125,0.7761854482710361,0.20239187334775924,-0.001343048639409244
1768418177773315000,2.061315185546875,0.7355319508433341,0.35670331413745876,-0.008698818229697643
1768418177783316000,2.07131591796875,0.6496656852483749,0.5182797774940728,0.0860913430551067
1768418177793318000,2.08131787109375,0.589227144768089,0.5867167693823576,0.24518055617325007
1768418177803319800,2.09131982421875,0.5954638472005724,0.5309627334564924,0.3964113474085927
1768418177813321000,2.101321044921875,0.6165761933341622,0.3873018660187721,0.43857250945288684
1768418177823323000,2.111322998046875,0.6475967700198292,0.2288005723237991,0.4157041499648243
1768418177833324800,2.12132470703125,0.652140258668363,0.09838029473125934,0.3588205620197579
1768418177843326000,2.131325927734375,0.6453519137024879,-0.025549451798200607,0.33146398773435504
1768418177853328000,2.141327880859375,0.6676911712825297,-0.07084931372702122,0.34797114162743087
1768418177863329800,2.151329833984375,0.6698081634365022,-0.04600537984967232,0.3624174174679443
1768418177873331000,2.1613310546875,0.6196842423520982,0.00890752907693386,0.37637390049751845
1768418177883332600,2.17133251953125,0.61562926787287,0.09349661434292793,0.3609175708316266
1768418177893334800,2.181334716796875,0.6424748969614505,0.15655425128042696,0.3415441773198545
1768418177903336000,2.1913359375,0.6218365980803966,0.15082184510827062,0.2941108104936778
1768418177913337900,2.201337890625,0.6231447580695152,0.08403145138323306,0.2744055546790361
1768418177923339000,2.211339111328125,0.685404522627592,-0.00937806919813156,0.2456466393150389
1768418177933340700,2.221340576171875,0.7176407587133348,-0.10202829584479331,0.21172047738097607
1768418177943342800,2.2313427734375,0.7624266797706485,-0.16124387040138244,0.17704167044870556
1768418177953343700,2.24134375,0.7264508187651634,-0.13678689001500605,0.13295965987704694
1768418177963345700,2.251345703125,0.6106643389418721,-0.05813362453877925,0.06515512067340314
1768418177973347800,2.261347900390625,0.5012941559016705,0.012640285864472389,0.030532975831814108
1768418177983348700,2.2713486328125,0.47039632881283755,0.04776829786896705,0.030814459654316305
1768418177993350700,2.2813505859375,0.4776366553299129,0.07266133158504963,0.03009633798021823
1768418178003352800,2.291352783203125,0.498863860014826,0.04482289206683635,0.012251871068775653
1768418178013353700,2.301353759765625,0.43725612962469457,-0.02511573655605316,-0.005390168605744839
1768418178023356000,2.31135595703125,0.32950565674081445,-0.12629998279213905,-0.037414150180295105
1768418178033357800,2.32135791015625,0.2030640735208988,-0.23188567885756492,-0.03433817680105567
1768418178043358700,2.331358642578125,0.009051905983686447,-0.2718962022066116,-0.004891790629550814
1768418178053361000,2.34136083984375,-0.11741656524315476,-0.2602735689520836,0.0682812168046832
1768418178063362800,2.35136279296875,-0.20369550329223274,-0.2257131277024746,0.10011438851486891
1768418178073363700,2.36136376953125,-0.23974647536054253,-0.14105214624404908,0.08671484524831176
1768418178083366000,2.371365966796875,-0.24680253135189412,0.03374561773538589,0.0833248740164563
1768418178093366800,2.38136669921875,-0.33342662957683206,0.24806056858897207,0.0860144053613767
1768418178103368700,2.39136865234375,-0.434440049290657,0.45442426817715165,0.11181746659446506
1768418178113371000,2.401370849609375,-0.46695934010148044,0.5271686018705368,0.15050616675522177
1768418178123371800,2.411371826171875,-0.40763723643049593,0.506369559469819,0.17137286756467074
1768418178133373700,2.421373779296875,-0.2976243715725839,0.4065723836779594,0.12821816443838177
1768418178143376000,2.4313759765625,-0.2521699036039412,0.20818623884022236,-0.011938092411868273
1768418178153376800,2.441376708984375,-0.31796938659548757,-0.034142508098483085,-0.2389220072351396
1768418178163379000,2.45137890625,-0.5081916603304445,-0.2705728446483612,-0.48608438487537203
1768418178173380900,2.461380859375,-0.6938929495096207,-0.48335693267285823,-0.7139008415326475
1768418178183381800,2.4713818359375,-0.8216764488577842,-0.6485872423619031,-0.8134012263350189
1768418178193384000,2.481384033203125,-1.0125694614611565,-0.7404150467097759,-0.827494925878197
1768418178203385900,2.4913857421875,-1.2311433849334716,-0.7776414922982454,-0.7547283803530037
1768418178213386800,2.50138671875,-1.3909469933986662,-0.7324117729961872,-0.5999153101840987
1768418178223389000,2.511388916015625,-1.4575931563474238,-0.6780056445479392,-0.36860575071405616
1768418178233390800,2.521390869140625,-1.3520540759027004,-0.6043862815856933,-0.05759871394447982
1768418178243391700,2.531391845703125,-1.1388871260404587,-0.5415922640204429,0.2322743859142065
1768418178253394000,2.541393798828125,-0.9752748460073023,-0.46946460092067716,0.48253542368952185
1768418178263394800,2.551394775390625,-0.9006080198187381,-0.35319267566800117,0.5952678131718189
1768418178273396700,2.561396728515625,-0.8363443680923431,-0.26246084986329077,0.6097918304236606
1768418178283399000,2.57139892578125,-0.7919161013662814,-0.15522212589383125,0.5477672628609463
1768418178293399800,2.58139990234375,-0.7824923663955181,-0.017907997134327888,0.4395077444763854
1768418178303402000,2.591402099609375,-0.6919616891860961,0.07350713475942611,0.2874624585203826
1768418178313404000,2.60140380859375,-0.696613314384222,0.11138298416733741,0.12207582575846462
1768418178323404800,2.61140478515625,-0.771220446274802,0.0584235473960638,0.01855867959540337
1768418178333407000,2.621406982421875,-0.8270283312797546,-0.04350713329315185,-0.03708104576840997
1768418178343409000,2.631408935546875,-0.8110264600276946,-0.13796703971028326,0.037005678977258503
1768418178353409800,2.641409912109375,-0.7133785712242126,-0.14379706103801726,0.10104871022291481
1768418178363412000,2.651411865234375,-0.5956534880211577,-0.04873451255261898,-0.05756364263109862
1768418178373414000,2.661413818359375,-0.6702408557653426,0.04499474150240421,-0.018737543293647466
1768418178383414800,2.671414794921875,-0.7686813562512397,0.18338029888570306,0.05770348949320614
1768418178393417000,2.6814169921875,-0.7879226478159427,0.29914895079135895,0.03019475685339421
1768418178403417900,2.69141796875,-0.8701146088123322,0.3758721249878406,0.16010489296671002
1768418178413420000,2.701419921875,-0.8734054670512675,0.3926227687805891,0.2775179145459086
1768418178423422000,2.711421875,-0.7461924610674381,0.3735024732470512,0.36956301490627225
1768418178433423000,2.721423095703125,-0.6273205824494361,0.2946060466647148,0.5043395514795557
1768418178443425000,2.731425048828125,-0.6468716706156731,0.2019493902772665,0.484845381132327
1768418178453427000,2.741427001953125,-0.6999778223812579,0.2176899802446365,0.3063591013658792
1768418178463428000,2.751427978515625,-0.7012193468749522,0.28777766194939614,0.06854034266490489
1768418178473430000,2.761429931640625,-0.6182312670648098,0.3604764029353857,-0.10395327255800366
1768418178483432000,2.771431884765625,-0.5550210699141025,0.3586486029863357,-0.17160978159308432
1768418178493433000,2.78143310546875,-0.5056792391180992,0.32050036637783047,-0.1904021238138899
1768418178503435000,2.79143505859375,-0.529788392447494,0.244713011726737,-0.2538434628393501
1768418178513437000,2.80143701171875,-0.593073408400081,0.17150865930616854,-0.3870804052878171
1768418178523438000,2.81143798828125,-0.673703563439846,0.15081658441126344,-0.5698814064482227
1768418178533440000,2.82143994140625,-0.8373650163769721,0.222526898881793,-0.7075782143823802
1768418178543442000,2.83144189453125,-1.02457802529335,0.3317944983303547,-0.77651394957304
1768418178553443000,2.841443115234375,-1.139856263333559,0.49340135682523245,-0.7821031478822231
1768418178563444700,2.85144482421875,-1.1971674655735491,0.6648521484643221,-0.7289221042495221
1768418178573446100,2.861446044921875,-1.27842419154644,0.7434896318495273,-0.6912513489596546
1768418178583447800,2.87144775390625,-1.337300743407011,0.7378601015299558,-0.6159691673517227
1768418178593449700,2.88144970703125,-1.416108322662115,0.6832867998212575,-0.49983697936329985
1768418178603451100,2.891451171875,-1.4951859510302543,0.5743699135065078,-0.35785621049962935
1768418178613452800,2.901452880859375,-1.4974188246488571,0.4645353278249502,-0.18213647283706813
1768418178623455000,2.911455078125,-1.462619898468256,0.37443361661732194,0.014294336681813001
1768418178633455900,2.921455810546875,-1.4214508527338503,0.386819050937891,0.15281071737054736
1768418178643457800,2.931457763671875,-1.350934131962061,0.46037703910171984,0.20398853142205625
1768418178653460000,2.9414599609375,-1.349643507629633,0.6139420454382896,0.18205204595662652
1768418178663460900,2.9514609375,-1.5372785413503647,0.7452753462225198,0.17670429172050206
1768418178673462800,2.961462890625,-1.7485598235964774,0.7485527604579925,0.23477657799348234
1768418178683465000,2.97146484375,-1.8525462677717208,0.6398042164474725,0.32602230813708155
1768418178693465900,2.9814658203125,-1.8892308615684508,0.5068839387327433,0.3910755028059706
1768418178703467800,2.9914677734375,-1.9007073643505572,0.3746574885010719,0.40726643035672605
1768418178713470000,3.001469970703125,-1.8826468070030211,0.24296295318901537,0.41262313508428633
1768418178723470800,3.011470947265625,-1.8805296687185764,0.15091244600117207,0.38540914760734885
1768418178733472800,3.02147265625,-1.8925658512100576,0.08019757230877876,0.3256100010091439
1768418178743474000,3.031473876953125,-1.94764447209239,0.06344926660358906,0.3436430127626285
1768418178753475800,3.041475830078125,-2.1081670424818992,0.13624211561381816,0.4112196249619126
1768418178763478000,3.05147802734375,-2.2319933286368845,0.17544599875509737,0.4599428854681551
1768418178773479000,3.06147900390625,-2.0036523366488517,0.07261164722442627,0.4447130945671349
1768418178783480800,3.071480712890625,-1.3164122691571711,-0.23903905774354933,0.3947613517118618
1768418178793483000,3.08148291015625,-0.606809709340334,-0.9083446784853935,0.11150160557832568
1768418178803484000,3.09148388671875,-0.28341946673989293,-1.7964719138503074,-0.17309457679074255
1768418178813485800,3.10148583984375,-0.3494085540194064,-2.804983770483732,-0.15099153911937027
1768418178823488000,3.111488037109375,-0.6340821855388581,-3.7378123173624274,0.09597849428653717
1768418178833489000,3.121489013671875,-0.7613572969734669,-4.382002201548218,0.41733211649283763
1768418178843490800,3.13149072265625,-0.5725929669618606,-4.52842025873959,0.4262006287336349
1768418178853493000,3.141492919921875,-0.39480493512526155,-3.7614281707495447,-0.3127239967552945
1768418178863494000,3.151493896484375,-1.0696364796817301,-1.9442349559098482,-1.4378157120794057
1768418178873495800,3.161495849609375,-2.068793647992611,0.05565408268272876,-1.8992942826822399
1768418178883497000,3.1714970703125,-2.3062860608160496,1.214058979141712,-1.6745128828719258
1768418178893499000,3.181498779296875,-2.142804640620947,1.4882733951628206,-1.033827645806223
1768418178903501000,3.1915009765625,-2.068355256575346,1.0928975282818079,-0.3508225855357945
1768418178913502000,3.201501953125,-1.6909680508494376,0.5356108515232801,0.03980141064301133
1768418178923503900,3.21150390625,-1.0288743342477829,0.01003039562702179,0.18960596846751868
1768418178933506000,3.221506103515625,-0.39625191906318064,-0.5503168377459049,0.3162437683792785
1768418178943507000,3.2315068359375,0.3483786995150149,-1.1883885313123463,0.5985019727874547
1768418178953508900,3.2415087890625,0.9972108565486967,-1.8798381793230772,0.9786156078025698
1768418178963511000,3.251510986328125,1.2055847269155084,-2.4055326169878244,1.2821361978068948
1768418178973512000,3.261511962890625,1.293599548846483,-2.303414889293909,1.4329581890456378
1768418178983513900,3.271513916015625,1.514194602882862,-1.7260504701465367,1.3605904335796832
1768418178993516000,3.28151611328125,1.684766273599863,-1.1343997514933346,1.2366487043514847
1768418179003517000,3.291516845703125,1.824676117940992,-0.6113824240833521,1.1340457504238932
1768418179013519000,3.30151904296875,1.8683657681941985,-0.19689678306281566,0.9998593252308666
1768418179023520000,3.31152001953125,1.8805882670380174,0.17615034763216972,0.8638836785335093
1768418179033522000,3.32152197265625,1.9870858172513544,0.46752983346581456,0.5725179289642721
1768418179043524000,3.331524169921875,1.9922747641965746,0.5433516749083995,0.15433628297001123
1768418179053525000,3.34152490234375,1.7813070779442786,0.4676058213114738,-0.2888457295723259
1768418179063527000,3.35152685546875,1.55892587114349,0.3811421743452549,-0.733975442116335
1768418179073529000,3.361529052734375,1.313527069109678,0.2942027265608311,-1.1487161538764834
1768418179083530000,3.371530029296875,1.0162252074897289,0.21097849990725517,-1.435640413866937
1768418179093532000,3.381531982421875,0.7265091248236596,0.1439338391602039,-1.577769980084151
1768418179103534000,3.3915341796875,0.5123344592235982,0.1330079559981823,-1.539735871374607
1768418179113535000,3.401534912109375,0.33613895727545023,0.14931319411098956,-1.4235688678011298
1768418179123537000,3.411536865234375,0.19917466486692428,0.17336919248104093,-1.1824527115225791
1768418179133539000,3.4215390625,0.10602496426552534,0.18558686901926993,-0.918752382992208
1768418179143540000,3.4315400390625,0.10166121609807013,0.21428046406209467,-0.6636221682779491
1768418179153542100,3.441542236328125,0.09502338551878929,0.27742753284871574,-0.43208018829151984
1768418179163544000,3.4515439453125,0.13611293627619742,0.4705313533693552,-0.11878025481179356
1768418179173545000,3.461544921875,0.1283317808806896,0.7840572045594454,0.25156083179488775
1768418179183547100,3.471547119140625,0.16717676758170127,1.191809737932682,0.6591294599685817
1768418179193548000,3.481548095703125,0.3114015525124967,1.604865638411045,1.1416551294490693
1768418179203550000,3.491550048828125,0.36924225851930675,2.010702109029889,1.553898836761713
1768418179213551900,3.5015517578125,0.31166604866757985,2.3012726165682076,1.7381477351754904
1768418179223553000,3.511552978515625,0.29048275618962943,2.432045945382118,1.7503274177908896
1768418179233555000,3.521554931640625,0.30380525216460225,2.3927193126440045,1.6370415226116775
1768418179243556900,3.531556884765625,0.3404593777578324,2.1193390093594786,1.513682415577024
1768418179253558000,3.54155810546875,0.32877252016067504,1.69420864020586,1.3900298785537482
1768418179263560000,3.551559814453125,0.34893837922438975,1.1093903979212045,1.2362097284123301
1768418179273561900,3.561561767578125,0.4140601090848446,0.5019979202568531,1.070249497013539
1768418179283563000,3.57156298828125,0.4079785972140729,-0.01938099229633808,0.8807843252561985
1768418179293565000,3.58156494140625,0.46593978779539463,-0.4299170189082622,0.5785098628554493
1768418179303566000,3.591566162109375,0.5333760782085358,-0.6838327432662248,0.17882175879850984
1768418179313568000,3.601568115234375,0.5381866933606565,-0.6860036575645208,-0.1363604812964797
1768418179323570000,3.61156982421875,0.4217091625332832,-0.5202338341712951,-0.40580454111061987
1768418179333571000,3.621571044921875,0.2666812440373003,-0.28274726656675336,-0.5884304414324462
1768418179343572700,3.63157275390625,0.04834931262731552,0.0208703540712595,-0.6617674803219735
1768418179353575000,3.641574951171875,-0.12142375505790114,0.32435236563086506,-0.5774642993252724
1768418179363575800,3.651575927734375,-0.3540307339273393,0.48078912801146506,-0.36647688545919954
1768418179373577700,3.66157763671875,-0.520004701590538,0.5722931072324514,-0.17328136806711553
1768418179383580000,3.671579833984375,-0.6872187324427068,0.5940507655322551,-0.04482822582907974
1768418179393580800,3.681580810546875,-0.8040108821772038,0.587120674008131,-0.028052301464602348
1768418179403582200,3.691582275390625,-0.9126912563223392,0.6105781219631433,-0.09216478121727704
1768418179413584100,3.701584228515625,-1.0540626245833933,0.7045879465252161,-0.12031601301170884
1768418179423585500,3.71158544921875,-1.1215526910103857,0.8288707442760467,-0.15133520145788787
1768418179433587200,3.721587158203125,-1.089006585257873,0.8946838174015284,-0.19332075120694933
1768418179443588400,3.73158837890625,-1.0312145406983793,0.9341974971443414,-0.15816906606592238
1768418179453590300,3.74159033203125,-0.9191653477072715,0.9087713794648646,-0.014643880771845579
1768418179463592200,3.75159228515625,-0.8791079164765775,0.9221773890048265,0.34252310535460706
1768418179473593300,3.76159326171875,-0.9066263302601874,0.7024316452741622,0.9718637223895639
1768418179483595300,3.77159521484375,-0.6330771001495421,0.3114461223065853,1.2511755346149205
1768418179493597200,3.78159716796875,-0.3580407732862979,0.20905191575884818,1.010151878925413
1768418179503598300,3.791598388671875,-0.3256232623495161,0.09539046526551247,0.8726054027147591
1768418179513600300,3.801600341796875,-0.36156302912831306,-0.06325520533621311,0.8553483437698334
1768418179523602200,3.811602294921875,-0.5094997472543269,-0.2503688455313444,0.8314859682757407
1768418179533603000,3.82160302734375,-0.8030874837219715,-0.3918722426742315,0.7517258375361562
1768418179543605200,3.831605224609375,-1.0427858821570872,-0.5080132350236177,0.1994866534255445
1768418179553607200,3.841607177734375,-1.3485444603465497,-0.7510890009373427,-0.15564466215483844
1768418179563608300,3.8516083984375,-1.6670622746050356,-1.1304448763877153,-0.2819419415332377
1768418179573610200,3.8616103515625,-1.9314939861498772,-1.517844357562065,-0.4189795914389193
1768418179583611100,3.871611083984375,-2.169061363905668,-1.718683156248927,-0.502693793566525
1768418179593613300,3.88161328125,-2.2021675146937367,-1.5692840374201535,-0.6146180450037121
1768418179603615200,3.891615234375,-2.1497838319838047,-1.1186217521250248,-0.5452915569297969
1768418179613616000,3.9016162109375,-1.9376585001289843,-0.2381944236129522,-0.07224785541333258
1768418179623618300,3.911618408203125,-1.8391256451845168,0.6527385168224573,0.4739852932155132
1768418179633620200,3.9216201171875,-1.791643763041496,1.2765192347079515,0.8783816480286419
1768418179643621000,3.93162109375,-1.5648247199237346,1.4588666834145783,1.2698473557285963
1768418179653623300,3.941623291015625,-0.7843302493471652,1.367707572108507,1.5305124082162975
1768418179663625200,3.951625244140625,0.3767605982601642,0.8823024747341871,1.8315031874820589
1768418179673626400,3.96162646484375,1.498534092414379,-0.056900867873430246,2.18215480036512
1768418179683628300,3.971628173828125,2.3668834451198575,-1.3387328220367432,2.2693065757259725
1768418179693630200,3.981630126953125,2.795617391723394,-2.8721213702112434,2.0332276829622686
1768418179703631400,3.99163134765625,2.664492765253782,-4.344501615193486,1.8305732131555676
1768418179713633300,4.00163330078125,2.2764742753982543,-5.177096348428726,1.6112237752661107
1768418179723634200,4.01163427734375,2.032925046753883,-5.2766030168414115,1.5255696911171077
1768418179733636400,4.02163623046875,2.2378268570959565,-4.1779304122895,1.7602708657868205
1768418179743638300,4.03163818359375,2.314332589149475,-2.554728322198987,1.4532945823706687
1768418179753639200,4.04163916015625,1.89171274151206,-0.9739870712190866,0.5866663543693721
1768418179763641300,4.051641357421875,1.4267863685429096,0.3526064002126455,-0.4222628508932888
1768418179773643300,4.061643310546875,0.9138320969205349,1.51869308334589,-1.5447614444516597
1768418179783644200,4.07164404296875,0.751724376231432,2.5122955401390787,-2.7337729299679396
1768418179793646300,4.081646240234375,0.6086474826941266,3.1062410917311905,-3.539197332204878
1768418179803648300,4.091648193359375,0.29953122810721394,3.2042683352410792,-3.6645758162379263
1768418179813649400,4.1016494140625,-0.2049064499845728,2.728252412980795,-3.290653948535025
1768418179823651300,4.1116513671875,-0.5315186137735843,1.9117384614527224,-1.6882701900675892
1768418179833652200,4.12165234375,-0.09170797736048698,0.957152840796113,1.991441382112354
1768418179843654400,4.131654296875,0.031218181616999206,-0.473334720352292,1.3410975053414702
1768418179853656300,4.14165625,-0.08610475052595139,-1.8345389019161462,0.40414252618253227
1768418179863657200,4.1516572265625,0.48433366875052447,-2.484995445281267,1.476142812386155
1768418179873659400,4.161659423828125,1.3568892409741877,-2.8300153358876705,2.0084436625786126
1768418179883661300,4.171661376953125,1.8526795387625694,-2.77533389762938,2.6982658555179833
1768418179893662200,4.181662109375,1.5933949808478354,-2.722735110864043,3.566139699666202
1768418179903664400,4.191664306640625,1.270147361588478,-2.267337613740563,2.7540403497099875
1768418179913666300,4.201666259765625,1.4189958607971667,-1.1242150420874357,1.0626628412768244
1768418179923667200,4.211667236328125,1.3722118977904318,0.12127075645327567,-0.23380926733128726
1768418179933669400,4.22166943359375,1.0187935966730117,1.1662234612554312,-1.0735439354490488
1768418179943670300,4.231670166015625,0.5894786353111267,2.062646231278777,-1.6919253515742718
1768418179953672400,4.24167236328125,0.2030605663895607,2.868867336851358,-2.1313225848808885
1768418179963674400,4.25167431640625,-0.08788636411256157,3.4412896234214303,-2.3929962298892438
1768418179973675300,4.26167529296875,-0.3092179248631,3.717706517922878,-2.46357973228693
1768418179983677400,4.271677490234375,-0.2940624413073063,3.587891220486164,-2.4299445891886946
1768418179993679400,4.281679443359375,-0.30596915220022197,2.9163989033550024,-2.4000182374805212
1768418180003680300,4.29168017578125,-0.4312357002913952,2.0199755488097666,-2.220501920546591
1768418180013682400,4.301682373046875,-0.45380642853975295,1.129568678075075,-1.9327885560050606
1768418180023683300,4.311683349609375,-0.3648094637036323,0.31756957362294197,-1.6598554119661448
1768418180033685200,4.321685302734375,-0.23574701219452543,-0.31110651508867737,-1.3981810363054274
1768418180043687400,4.3316875,-0.19659224715828894,-0.581180762565136,-1.2546294744610786
1768418180053688300,4.341688232421875,-0.24333644441021604,-0.6399561921387911,-0.7845810823030769
1768418180063690500,4.3516904296875,-0.4128337821602821,-0.6230196703851223,-0.35918336745016277
1768418180073692400,4.3616923828125,-0.4130757742226124,-0.4433545926302671,-0.261257976879552
1768418180083693300,4.371693359375,-0.3305541428804397,0.017983984979987145,-0.09812449333928525
1768418180093695500,4.381695556640625,-0.28734394670724867,0.5587321993917227,0.5640362971492111
1768418180103697400,4.391697509765625,-0.4857236618041992,0.45635260589122767,0.5564671770691871
1768418180113698300,4.4016982421875,-0.44414077457189555,0.3680892160266638,-0.4225211365032941
1768418180123700500,4.411700439453125,-0.4398807790398597,0.4620511097937822,-0.5737098421625793
1768418180133701400,4.421701416015625,-0.7008709718286991,0.5442115066081286,-0.13970007404796778
1768418180143703300,4.431703369140625,-0.8723591728687285,0.4696896418482065,0.3339484614938497
1768418180153705500,4.44170556640625,-0.9300888927817345,0.3221241681873798,0.7820784518323838
1768418180163706400,4.451706298828125,-0.9766507374703883,0.12356851200163364,1.3827610565945505
1768418180173708300,4.461708251953125,-0.8257996662676333,0.09863339270949363,1.2398977692753075
1768418180183710500,4.47171044921875,-0.7682523171842098,0.3650175534963608,0.873772985189408
1768418180193711400,4.48171142578125,-0.8741279361069202,0.7792623714983463,0.7306446171931922
1768418180203713500,4.491713623046875,-0.941923122960329,1.161984508511424,0.5998378975663333
1768418180213715200,4.501715087890625,-1.0044634580254554,1.3326666538655758,0.24038674602545795
1768418180223716400,4.51171630859375,-1.0561609120368958,1.3237041797310114,-0.06623129853755236
1768418180233718300,4.52171826171875,-1.0102490556895731,1.1234288601458071,-0.42221718512065703
1768418180243719400,4.531719482421875,-0.9432616780877113,1.0306465315520763,-0.675898735396564
1768418180253721300,4.541721435546875,-0.9467641332507133,0.5657949773848057,-0.948433820028603
1768418180263723300,4.55172314453125,-0.7756850975334644,0.07229366731643676,-1.2141750798020512
1768418180273724400,4.561724365234375,-1.0759574993968009,0.6343477046072483,-0.650048327890411
1768418180283726300,4.571726318359375,-1.6299720226168632,0.8842489326268435,0.11613244371674954
1768418180293728300,4.581728271484375,-1.5853250716388225,0.5745306570261717,0.5688045344643294
1768418180303729400,4.5917294921875,-2.11952313375473,-0.11390051994621753,0.12495675148963928
1768418180313731000,4.60173095703125,-1.8728174869060514,-0.9228191940397024,-0.32914880612716074
1768418180323732500,4.611732421875,-1.4140648341357707,-1.2944845149874686,-0.6238190771345049
1768418180333734400,4.621734375,-1.3975824858903885,-1.509009893721342,-0.722858128035441
1768418180343736300,4.631736328125,-1.6687538809537887,-1.4514993695169687,-0.6310729937855154
1768418180353737500,4.641737548828125,-2.0987199997007844,-1.165080136439204,-0.5493099987909198
1768418180363739100,4.6517392578125,-2.404126841843128,-0.8202361869215965,-0.4352741620272398
1768418180373741300,4.6617412109375,-2.2879659757494926,-0.44966625999510285,-0.4198223989386111
1768418180383742200,4.6717421875,-1.4250924241065979,-0.43352059635818,-0.24333047132715582
1768418180393744100,4.681744140625,-0.6704792676310986,-0.9475994150310755,-0.28631577270328995
1768418180403747000,4.6917470703125,-0.15134791480898857,-1.5768524268478155,-0.25064276710189876
1768418180413748000,4.701748046875,0.2739829453527927,-2.1942343836069105,0.07591872594580054
1768418180423750100,4.711750244140625,0.671855305224657,-2.9309716185867787,0.5407297289069741
1768418180433751000,4.7217509765625,1.1022468097768723,-3.711857791894674,0.8105998321134597
1768418180443753000,4.7317529296875,1.4170681076049805,-3.8762943208575247,0.5042636732317507
1768418180453755100,4.741755126953125,1.1433072075050323,-2.715562442755699,-1.0846854341231287
1768418180463756000,4.751756103515625,0.06539740499667823,-1.6530419325590133,-2.965596064983308
1768418180473758000,4.761758056640625,-0.6206430774468928,-1.0545558149278162,-2.4000173606976865
1768418180483760000,4.771760009765625,-0.47509120863080023,-1.1439625296086071,-1.445907248598337
1768418180493761000,4.781760986328125,-0.28711707914881407,-1.1716478243917225,-0.9442262122709304
1768418180503763200,4.79176318359375,-0.13363105633258818,-0.7964186734825373,-0.4527232364129275
1768418180513764000,4.80176416015625,0.11920965920500456,-0.30540333501100536,-0.07406425718553364
1768418180523766000,4.81176611328125,0.8020761147223413,0.21847323957681655,0.46518217436112463
1768418180533768200,4.821768310546875,1.5692156483590602,0.5879612164855003,1.1846848544888198
1768418180543769000,4.83176904296875,1.9769664281666277,0.6107815355807542,1.3989735018573701
1768418180553771000,4.84177099609375,1.8857798443317413,0.6029173780769109,1.3687844075597821
1768418180563773200,4.851773193359375,1.7322925794064998,0.6867997763782739,1.4384735914662479
1768418180573774000,4.861774169921875,1.7539898858211933,0.630164865964651,1.3200348435685039
1768418180583776000,4.87177587890625,1.6213209525190293,0.511658898049593,0.8394855156622827
1768418180593778200,4.881778076171875,1.352703771983087,0.3503238422334194,0.3733814772158861
1768418180603779000,4.891779052734375,0.9341220938205719,0.16436638633608816,0.06021043081283569
1768418180613781200,4.90178125,0.6070855306070297,-0.0963467430770397,-0.22880868256501852
1768418180623782100,4.9117822265625,0.3760790457367897,-0.32286358837783335,-0.5167560019928962
1768418180633784000,4.9217841796875,0.15318462871685623,-0.5409294161975383,-0.7245681468237191
1768418180643786200,4.9317861328125,0.00924224092401564,-0.8313719134420156,-0.9196093651477247
1768418180653787100,4.941787109375,0.0653507163107395,-1.0364771374016999,-0.7283879973728209
1768418180663789000,4.9517890625,0.3070411653459072,-1.132062248456478,-0.1492931011710316
1768418180673791200,4.961791259765625,0.6989525709867477,-0.9369885891675949,0.5029061211429536
1768418180683792100,4.971792236328125,0.9050525050722062,-0.6289946531414985,0.9629618193358183
1768418180693794000,4.9817939453125,0.9134814568519591,-0.23471534932553767,1.1876369822926818
1768418180703795200,4.991795166015625,0.7394340728484093,0.3744704414963722,1.2773058550409973
1768418180713797000,5.001797119140625,0.5702792831920087,0.9816098211824893,1.169387916635722
1768418180723799000,5.011799072265625,0.44006775297932327,1.4898627101808786,0.8897299943864345
1768418180733800200,5.02180029296875,0.2974151127360761,1.8903472983777523,0.5973929155670106
1768418180743802000,5.031802001953125,0.1643476816356182,2.2100620673358438,0.39524785658717154
1768418180753804300,5.04180419921875,0.06594210633262991,2.4204689048349857,0.2953454668551683
1768418180763805200,5.05180517578125,0.054954336915537715,2.580250301468372,0.2063259979262948
1768418180773807000,5.06180712890625,0.021971081854775545,2.5783061816632746,0.14759835301712154
1768418180783808000,5.07180810546875,0.0356581733584404,2.4745044464051724,0.21831454188376664
1768418180793810200,5.08181005859375,0.05045264158211648,2.2161410949885845,0.2764535732500255
1768418180803812000,5.09181201171875,0.09620192777886986,1.8054063309341668,0.34492899745255706
1768418180813813200,5.101813232421875,0.09898176775574684,1.398088681846857,0.27998861550837756
1768418180823815200,5.111815185546875,0.07712642123512924,0.9501824172616005,0.2076350346982479
1768418180833817000,5.121817138671875,-0.01983640791364014,0.5865110176771879,0.043121787237375975
1768418180843818200,5.131818359375,-0.1262462798435241,0.32761282873153685,-0.14863281063139439
1768418180853820200,5.141820068359375,-0.21115392953939735,0.22688743217885493,-0.3135778736382723
1768418180863821000,5.151821044921875,-0.19642273581027983,0.2063362270593643,-0.49439445951580996
1768418180873823200,5.1618232421875,-0.125196478529647,0.30776129631400106,-0.6415827704273164
1768418180883825200,5.1718251953125,-0.05169175492301583,0.48698330647647375,-0.6973819606691598
1768418180893826000,5.181825927734375,-0.1503998203039169,0.6519067421734333,-0.7264978727772832
1768418180903828200,5.191828125,-0.4085737866282463,0.7985679604709148,-0.7807521716646849
1768418180913830100,5.201830078125,-0.7204337504327297,0.9018295975029468,-0.8351470480665564
1768418180923831000,5.2118310546875,-0.8942261367619037,0.9108885177493095,-0.6828530845791101
1768418180933833200,5.221833251953125,-1.0266684217013418,0.9658797526091336,-0.3014253712907433
1768418180943834000,5.231834228515625,-1.145861714293435,0.9591811317533254,0.11492153355702757
1768418180953836300,5.241836181640625,-1.1270844600439072,0.872399504879117,0.5324145397000014
1768418180963838200,5.251838134765625,-1.0792485037662087,0.7891016284674406,0.9970548622693866
1768418180973839000,5.261839111328125,-1.042645743034035,0.6467202794462442,1.3252901337482035
1768418180983841300,5.27184130859375,-0.9078864863891154,0.46186055565774436,1.5725050452932714
1768418180993843200,5.28184326171875,-0.6995826855838299,0.32126316744387146,1.7314143352672458
1768418181003844000,5.291843994140625,-0.4374831433136016,0.1891132895797491,1.690866636301577
1768418181013846300,5.30184619140625,-0.31380079567395147,0.08445639879703522,1.386482707466185
1768418181023847200,5.31184716796875,-0.1299031949158758,0.08537702077329158,1.027242349131778
1768418181033849000,5.32184912109375,-0.18959771209582685,-0.00013677812218666077,0.6771187056455761
1768418181043851300,5.331851318359375,-0.5823347549058496,-0.2564379363119602,0.26164785297997295
1768418181053852200,5.34185205078125,-1.0668086358446627,-0.7031213811039925,-0.14446904201544822
1768418181063854000,5.35185400390625,-1.660989092171192,-1.2749977242290973,-0.41961328623257577
1768418181073855200,5.361855224609375,-2.206070951873064,-1.890617932012677,-0.6063773092724383
1768418181083857200,5.371857177734375,-2.6293442949831483,-2.3234125521838664,-0.5657901550792157
1768418181093859000,5.381859130859375,-2.9004233355879783,-2.2901725458830593,-0.3145860277675092
1768418181103860200,5.391860107421875,-2.704989903075993,-1.562998089018464,0.24337759840451179
1768418181113862100,5.401862060546875,-2.3041091551683843,-0.4395212980777025,0.9637900868535041
1768418181123864000,5.411864013671875,-1.919041331811994,0.4814660043597221,1.3603344129920005
1768418181133865200,5.421865234375,-1.5839586055912076,1.0949608905524015,1.5619681614488363
1768418181143867100,5.4318671875,-0.9225451263386756,1.236525077971816,1.6863491588771342
1768418181153868300,5.441868408203125,0.1469816824235022,0.6686667383164167,1.7660919731557367
1768418181163870200,5.4518701171875,1.522466902796179,-0.7042717201828956,1.7418959817931055
1768418181173871900,5.461871826171875,2.850154453074932,-2.400283610418439,1.6071740614838896
1768418181183873300,5.471873291015625,3.2602830679297443,-4.018936951163411,1.7621958425000308
1768418181193875200,5.481875244140625,2.9667256535351276,-4.984197110569477,2.1290005716741085
1768418181203877000,5.491877197265625,2.8230419897437096,-5.164757091337442,2.039687234365195
1768418181213878300,5.501878173828125,3.243215028750896,-4.363644707080722,2.014282890126109
1768418181223880000,5.5118798828125,3.721669576334953,-2.8532284536927937,2.2182158554360267
1768418181233881000,5.521881103515625,3.4702024141728876,-1.5737562143981456,1.6942573016531763
1768418181243883000,5.531883056640625,2.6953207419767975,-0.38163141916692256,0.582522386432439
1768418181253885000,5.541885009765625,1.627304410842806,0.6688748281091451,-0.9664482001468538
1768418181263886300,5.55188623046875,0.6981925463996828,1.6294693337917328,-2.5939666921317577
1768418181273888000,5.561887939453125,0.32486323776245113,2.38344061216712,-4.0151965955913065
1768418181283889200,5.57188916015625,0.2816916200339794,2.758731722396612,-4.87492074329257
1768418181293891000,5.58189111328125,0.09776128605008125,2.4486662407934663,-4.9182677175879475
1768418181303893000,5.59189306640625,-0.23732297454066573,1.7830694114416836,-3.9712890648037193
1768418181313894100,5.60189404296875,-0.555115835525468,0.982703461638093,-2.432755262695253
1768418181323896000,5.61189599609375,-0.9975976639091968,0.01892740330994129,-0.7832159314297139
1768418181333897200,5.621897216796875,-1.0023896474260836,-0.727048200136423,0.9979258729502558
1768418181343899100,5.631899169921875,-0.45211606430001555,-1.173952009680867,2.563976627537608
1768418181353901000,5.641901123046875,0.19161438568048178,-1.5789707341760395,3.3922654802724717
1768418181363902200,5.651902099609375,0.7392283942084759,-1.8906471581071613,3.491992805698514
1768418181373904000,5.66190380859375,1.2402560811936854,-1.9790666153162717,2.934422051301598
1768418181383906000,5.671906005859375,1.6767349428355693,-1.7321791821599006,1.999733848030865
1768418181393907000,5.681906982421875,1.875920129096508,-1.1127180810391901,1.00638989604339
1768418181403908600,5.69190869140625,1.6875380764007568,-0.27982465711832044,0.05581168439723551
1768418181413910000,5.701909912109375,1.2750772192060946,0.5326683683305978,-0.636787133648619
1768418181423912000,5.711911865234375,0.7595406029403209,1.1716606838732957,-1.2269567468985914
1768418181433913900,5.721913818359375,0.26643903277926145,1.7297323735296726,-1.7537379568867384
1768418181443915000,5.7319150390625,-0.1273440119523555,2.156859469458461,-2.058550778658688
1768418181453916700,5.741916748046875,-0.25675357813239097,2.4006880995661017,-2.1936191743180156
1768418181463917800,5.751917724609375,-0.21876425841264424,2.4881542015731335,-2.1351608478695154
1768418181473919700,5.761919677734375,-0.233355166888237,2.372255785807967,-1.9162237901732324
1768418181483921700,5.771921630859375,-0.3214975607216358,2.099946326625347,-1.6848897538490593
1768418181493923000,5.781923095703125,-0.34498372331447896,1.7405290773540734,-1.3916089644387364
1768418181503924700,5.7919248046875,-0.39576457393765446,1.3374918820649384,-1.0910924516212195
1768418181513926000,5.80192578125,-0.39129531956911084,1.016948261067271,-0.9221409294519572
1768418181523927800,5.811927734375,-0.40719891807846725,0.817836724564433,-0.8827912811644375
1768418181533929700,5.8219296875,-0.47481874836497007,0.6380693554788828,-0.583566269462183
1768418181543931000,5.831930908203125,-0.41000937238931656,0.562528669065237,-0.15549224807210266
1768418181553932800,5.841932861328125,-0.20039748466014862,0.5585667796969414,0.12412621894963084
1768418181563934700,5.851934814453125,-0.19431611891984937,0.6430529891103506,0.32427966572083533
1768418181573935900,5.861935791015625,-0.29113172161765394,0.7749298952519893,0.4238402562778443
1768418181583937800,5.871937744140625,-0.4171605593182146,0.8621019827485084,0.47712220300175245
1768418181593939000,5.88193896484375,-0.5601880972884595,0.9129553871512412,0.36693069364130493
1768418181603940900,5.89194091796875,-0.8543933080673217,0.8925871373832225,0.23808409510627387
1768418181613942800,5.90194287109375,-1.232403614127636,0.7930553345292806,0.12140519648790359
1768418181623943700,5.911943603515625,-1.5778163034439086,0.6633458355545997,0.0061346302974969145
1768418181633945900,5.92194580078125,-1.7470879974782465,0.5509662415653467,-0.10409472685530781
1768418181643947000,5.931947021484375,-1.8312965589940546,0.4450941297739744,-0.12876761501468717
1768418181653948700,5.94194873046875,-1.7772293071113525,0.33120296217799183,-0.12270334653966128
1768418181663950800,5.951950927734375,-1.606394747674465,0.24039164139628408,-0.13573555433116852
1768418181673951700,5.96195166015625,-1.557607189760357,0.2091425166517496,-0.08687668474651873
1768418181683953700,5.97195361328125,-1.4426980772934854,0.24092414083778857,-0.05643412714451551
1768418181693955000,5.981955078125,-1.2605610564671457,0.36708383837640285,-0.11033201380968093
1768418181703956700,5.991956787109375,-0.8282546582043171,0.6361661522060632,-0.2164902490660548
1768418181713958700,6.001958740234375,-0.6732884798329323,0.9761194070726632,-0.2650904677145183
1768418181723959800,6.011959716796875,-1.6556662897132337,0.9896107568085193,-0.07608421870581805
1768418181733961700,6.021961669921875,-3.1603555437564848,0.38986674807071686,0.2240976553298533
1768418181743963000,6.031962890625,-3.7237317695617675,-0.694852734452486,0.4999464676197618
1768418181753964800,6.04196484375,-3.4215526572942734,-2.067474966609478,0.7347403620742261
1768418181763966700,6.051966796875,-2.974847000670433,-3.158339527758956,0.724120329990983
1768418181773967600,6.061967529296875,-2.747688934856653,-3.327717020255327,0.46195239865966137
1768418181783969800,6.0719697265625,-2.6863772648036477,-2.633759773337841,0.2278106114383787
1768418181793971000,6.081970947265625,-2.5967642138957974,-1.6912877843230962,0.014107581938058137
1768418181803972900,6.091972900390625,-2.091049903464317,-0.9940016852438449,-0.1964561996884644
1768418181813974800,6.101974853515625,-1.255256228057295,-1.0235457596361637,-0.5327786968372762
1768418181823975700,6.1119755859375,-0.45630708624906835,-1.8231173441916704,-1.0776157149326056
1768418181833977900,6.121977783203125,0.20915259965434668,-2.9614667100936174,-1.3508990606486797
1768418181843979000,6.13197900390625,0.5678769712906331,-4.329026398164034,-0.9730981595553457
1768418181853980700,6.141980712890625,1.0204336920302362,-5.399671178105473,-0.4625465651605278
1768418181863982800,6.15198291015625,1.6455471928894518,-4.813302199247479,-0.8731157633896917
1768418181873983700,6.161983642578125,2.4776129338145254,-2.9291549245536324,-2.0411824413590134
1768418181883985700,6.171985595703125,2.623700151616335,-1.8900994610965252,-2.306958553250134
1768418181893986800,6.18198681640625,1.042121792225167,-1.398375682094693,-2.1346246951662002
1768418181903988700,6.19198876953125,-0.32218364328965543,-0.7309586515784263,-1.681123533183336
1768418181913990700,6.20199072265625,-0.25200243808254597,-0.07061608949303627,-0.9989360729061066
1768418181923991800,6.21199169921875,0.3010148907937109,0.24068974756002426,-0.22190160659030078
1768418181933993700,6.22199365234375,0.8886581273712217,0.5088876797705888,0.6437630370758474
1768418181943995000,6.231994873046875,1.7794845386922358,0.690567019957304,1.1774425552103667
1768418181953996800,6.241996826171875,2.596357386660576,0.594222614967823,1.6038587994560598
1768418181963998700,6.251998779296875,2.9350130029320716,0.20187281790971756,1.6692155071161687
1768418181973999600,6.26199951171875,2.7254405704304574,-0.10436579888164997,1.3495141821615397
1768418181984001800,6.272001708984375,2.381972293180227,0.0001052139401435852,0.6999363943923265
1768418181994003000,6.2820029296875,2.2584020276129246,0.28096505932509896,-0.029023119258135555
1768418182004004900,6.2920048828125,2.1590566872417924,0.46271921831369395,-0.5620340174160897
1768418182014006800,6.3020068359375,1.7548105545543133,0.572879382687807,-0.9730307203423231
1768418182024007700,6.312007568359375,1.1646820770323276,0.6864233442813158,-1.2718131028436124
1768418182034009900,6.322009765625,0.6326981838345527,0.8480477384328842,-1.4659087108805775
1768418182044010800,6.3320107421875,0.27329320952296254,0.9253308845996856,-1.6391197901904582
1768418182054012700,6.3420126953125,0.09164820999726653,0.913388517871499,-1.81318660954684
1768418182064014800,6.352014892578125,-0.01674202209487557,0.8979010258823633,-1.9115777179330586
1768418182074015700,6.362015625,-0.006228957517445087,0.8679875336557626,-1.6807701897010205
1768418182084017700,6.372017578125,0.23041487565264104,0.8607698573619127,-1.218160276980698
1768418182094018800,6.382018798828125,0.34338922066465016,0.8769377328306436,-0.41155733248367904
1768418182104020700,6.392020751953125,0.44531551743969316,0.952878232216835,0.3886834565702826
1768418182114022700,6.402022705078125,0.6858895296655595,1.1862456740647553,0.7813297523569315
1768418182124023800,6.41202392578125,0.8819931165240704,1.6147680237442255,1.1441379592407495
1768418182134025700,6.422025634765625,0.8944562922559678,1.9312410343021154,1.2845736540868877
1768418182144027000,6.43202685546875,1.0598680959917604,2.1968647321105004,1.2916508989967406
1768418182154028800,6.44202880859375,1.1721569429576397,2.365024665510654,1.5088060417123137
1768418182164030700,6.45203076171875,0.8615783972658216,2.2936878605276343,1.5874275968760252
1768418182174031600,6.462031494140625,0.4326724550962448,2.1176608470141884,1.4326095217384398
1768418182184033800,6.47203369140625,0.13569193438515068,1.8122773857474326,1.3106776710279284
1768418182194034700,6.48203466796875,-0.012643354604393243,1.428756791833043,1.2033088178727775
1768418182204036900,6.492036865234375,-0.07162599718794226,1.0699141275793314,1.1447739921219646
1768418182214038800,6.502038818359375,-0.041656390859931704,0.9168576552867889,1.0304822809010743
1768418182224039700,6.512039794921875,-0.019374562555551526,0.9485632916271686,0.6956483418095857
1768418182234041900,6.522041748046875,-0.11525967947021126,1.0015513699710368,0.4027933765958994
1768418182244042800,6.532042724609375,-0.27262480874210593,1.0855758070915937,0.22225385409407317
1768418182254044700,6.542044677734375,-0.3677952015161514,1.0300532418340445,0.1915360597472638
1768418182264046800,6.552046875,-0.4262557199217379,0.8255693646430968,0.31183541388511654
1768418182274047700,6.5620478515625,-0.4903777712203562,0.4819786300569772,0.41839185467883944
1768418182284049700,6.572049560546875,-0.5478409491516649,0.18987024542689324,0.5119863033730536
1768418182294050800,6.58205078125,-0.6810112561047077,0.007280220136046409,0.525636131606251
1768418182304052700,6.592052734375,-0.8844143523216247,-0.058116088882088655,0.4328980074804276
1768418182314055000,6.602054931640625,-1.0828491586066782,-0.05335574261248111,0.26545031400285657
1768418182324055800,6.612055908203125,-1.255077364359051,0.0004506663769483566,0.08354315640963614
1768418182334057700,6.6220576171875,-1.381490744397789,0.12352993355691433,-0.02540076404251158
1768418182344059000,6.632058837890625,-1.446884569197893,0.2864788543105125,-0.05210040878914296
1768418182354060800,6.642060791015625,-1.5757506030857562,0.5691168152838945,0.11378799948245286
1768418182364062700,6.652062744140625,-1.6149593085326253,0.735146166396141,0.5298849481571466
1768418182374063600,6.662063720703125,-1.5138510501421987,0.7114642620354891,0.8711131913956254
1768418182384065800,6.672065673828125,-1.3759540069282055,0.6442436601996422,1.2080991208892315
1768418182394066700,6.682066650390625,-1.111513965946436,0.4539636649280786,1.3634925847619772
1768418182404068400,6.692068359375,-0.790602096158266,0.19542086529135702,1.3141818797565996
1768418182414069500,6.702069580078125,-0.2962942920126021,-0.17568331464231013,1.0589531731039286
1768418182424071400,6.712071533203125,-0.049115182433277366,-0.5744634370088577,0.9336417629577219
1768418182434073300,6.7220732421875,-0.47291094198226924,-0.8745791870057582,0.8621466256078332
1768418182444074500,6.732074462890625,-1.322747171267122,-1.1566554224431513,0.7089832588747144
1768418182454076400,6.742076416015625,-2.260818587235361,-1.6054758792638777,0.48381417492106554
1768418182464077600,6.75207763671875,-2.913571570974588,-2.1820365808129307,0.17169373354949055
1768418182474079500,6.76207958984375,-3.1226433604776855,-2.6233219659537075,-0.2018806358899921
1768418182484081400,6.772081298828125,-2.819053212368488,-2.5873218472898003,-0.6052227324098348
1768418182494082600,6.78208251953125,-1.9256031745456157,-2.121953575772047,-0.7457004397667945
1768418182504084200,6.792084228515625,-0.6466625579096377,-1.5520909105569123,-0.2766680927835405
1768418182514085600,6.802085693359375,0.752783529895544,-1.3460124576508998,0.7962687436178326
1768418182524087600,6.812087646484375,1.9439082081735133,-1.5485054532855749,2.387523935957998
1768418182534089200,6.822089111328125,2.455008303296566,-2.0251883150219916,3.8736514051333066
1768418182544090600,6.832090576171875,3.1089994505286214,-2.774248440480232,4.412659205618501
1768418182554092300,6.84209228515625,4.222480624894797,-3.1820915747463703,4.477632905310392
1768418182564093400,6.852093505859375,5.3408232678174965,-2.8359891496002674,4.372004246886075
1768418182574095400,6.862095458984375,5.953133328139781,-2.430434418532252,3.190277219289541
1768418182584097300,6.87209716796875,5.376583147984743,-1.93721893966794,1.2377014282748102
1768418182594098400,6.882098388671875,3.9297067620933053,-1.3374410286605358,-0.9947123177312314
1768418182604100400,6.892100341796875,2.413639204945415,-0.6687029786735773,-3.2614871830224987
1768418182614101500,6.9021015625,1.2575788257859646,0.029045477220416067,-4.9365311040312045
1768418182624103400,6.912103515625,0.06809913823604584,0.7438812615156173,-5.3936903501302
1768418182634104600,6.9221044921875,-1.4732418302476404,1.5382903487414121,-4.702835745403171
1768418182644106500,6.9321064453125,-2.3943138883590698,2.1045085199743507,-2.966367926138639
1768418182654108400,6.9421083984375,-2.3395674220405516,2.145128115132451,-0.6159284700151533
1768418182664109600,6.952109619140625,-1.6769069384016095,1.643086940255761,1.550081762691587
1768418182674111500,6.962111572265625,-0.5139337111137807,0.9393716849118471,3.2189062246635554
1768418182684112600,6.972112548828125,0.8059459418930113,0.3007604776412248,4.296413876111806
1768418182694114600,6.982114501953125,1.9835330932058393,-0.32077509166598317,4.589679614083469
1768418182704116200,6.9921162109375,2.8051228866934776,-0.8534685944378375,3.97486867685616
1768418182714117600,7.00211767578125,3.07701791985631,-1.1525292824238538,2.572544549396634
1768418182724119600,7.01211962890625,2.9651252326011655,-1.1697586496442556,0.9319692997008562
1768418182734120400,7.022120361328125,2.614201670908928,-0.8758382471561431,-0.4633708871554583
1768418182744122600,7.03212255859375,1.902379096955061,-0.41554654825031756,-1.5678332540899513
1768418182754123500,7.04212353515625,1.0637281324207781,0.16886895845234393,-2.4849118586510417
1768418182764125400,7.05212548828125,0.40522915237545964,0.8966536561697721,-3.0617922936737534
1768418182774127400,7.06212744140625,-0.0034733751989901064,1.4682646263569592,-3.476625140696764
1768418182784128500,7.07212841796875,-0.336418212608248,1.8466601323425769,-3.7515515043795107
1768418182794130400,7.08213037109375,-0.5257403226330876,2.1196043822973967,-3.5969296824663877
1768418182804131600,7.092131591796875,-0.736053490499407,2.2145687311053273,-3.1683290068536993
1768418182814133500,7.102133544921875,-0.8549078334607183,2.181934289482236,-2.635360486532748
1768418182824135400,7.112135498046875,-0.8616158066667616,1.9939006118327378,-2.0737452790506183
1768418182834136600,7.122136474609375,-0.8971709580421448,1.690890893959999,-1.5475903842672705
1768418182844138500,7.132138427734375,-1.0177531477093695,1.3624655798017977,-1.1848444289647042
1768418182854139400,7.142139404296875,-0.9571486030124128,1.1027040520250797,-0.787352300582081
1768418182864141600,7.1521416015625,-0.8295603339754044,0.9173369632363318,-0.41249249444194136
1768418182874142500,7.162142578125,-0.6501064147531986,0.9269535173654556,-0.05992445347830653
1768418182884144600,7.17214453125,-0.4316894354082644,1.0619926869302987,0.12689940999001265
1768418182894146600,7.182146484375,-0.23869755082949995,1.1968892331540584,0.22829561847634613
1768418182904147500,7.1921474609375,-0.18778364841118453,1.3490496333897113,0.28141119565740225
1768418182914149600,7.202149658203125,-0.27185046336874363,1.4377122517049312,0.2605318545620888
1768418182924150500,7.212150634765625,-0.4779401683211326,1.4364642974704502,0.14434497724436224
1768418182934152400,7.22215234375,-0.7453028187513351,1.2991051605254411,0.039898587407171726
1768418182944154600,7.232154541015625,-1.1021781284548342,1.0383505300581455,-0.06092983112856745
1768418182954155500,7.242155517578125,-1.5671090314686298,0.7769155161112546,-0.1001555607754737
1768418182964157400,7.252157470703125,-1.9659305087588725,0.5738122796237468,-0.011978607085347174
1768418182974158600,7.26215869140625,-2.0806373766519126,0.4523872093915939,0.22581702646836638
1768418182984160500,7.272160400390625,-1.9759563743412494,0.35671851170659064,0.4376441790942102
1768418182994161400,7.282161376953125,-1.7857471062183379,0.23726854093968866,0.5010337513998151
1768418183004163600,7.29216357421875,-1.6952537653446196,0.05620937847793102,0.3840210177171975
1768418183014165500,7.30216552734375,-1.4540531456530092,-0.056337973293662066,0.10671886481381952
1768418183024166400,7.31216650390625,-0.8558733174920081,0.0012923778980970383,-0.3055086220163852
1768418183034168600,7.32216845703125,0.07910466250553727,0.5110287834525108,-0.8049507203105837
1768418183044169500,7.33216943359375,-0.27105799781680107,0.9499252276301383,-0.8260998182579875
1768418183054171400,7.34217138671875,-2.487921561861038,0.6080763682752848,-0.09724339965581894
1768418183064173600,7.352173583984375,-3.8786487750291823,-0.4615548507094383,0.6458379436537623
1768418183074174500,7.362174560546875,-3.793444188213348,-1.9276175831079483,1.5528981352865696
1768418183084176600,7.3721767578125,-3.223474555492401,-3.2187311603575943,2.314451100962609
1768418183094177500,7.382177490234375,-2.5153543431878087,-3.5583038914740084,2.4868492564544082
1768418183104179500,7.392179443359375,-2.190335622602701,-2.944726587694883,2.269801665766537
1768418183114180400,7.402180419921875,-1.8826899154923855,-2.0266823529720304,1.7884823764011262
1768418183124182500,7.4121826171875,-1.2861281900525092,-1.3709241960674523,1.0901231681976467
1768418183134184400,7.422184326171875,-0.4218507629610598,-1.380874512195587,0.382698683072254
1768418183144185600,7.432185546875,0.657748453938961,-2.1589415364295244,-0.44045200305655596
1768418183154187500,7.4421875,1.3310966280698775,-3.2105221349388358,-1.051565474005416
1768418183164188400,7.4521884765625,1.2544704845070838,-4.084014695751667,-1.1001531254332513
1768418183174190600,7.462190673828125,1.0305204209543763,-4.389147397127747,-1.1461464495189486
1768418183184191500,7.47219140625,1.2910827437199652,-3.328565746039152,-2.0806999204941095
1768418183194193400,7.482193359375,1.7546670544303953,-2.0097394014775753,-2.843425144819915
1768418183204195600,7.492195556640625,1.1848843225836754,-1.4424953943282366,-2.707026669600606
1768418183214196500,7.502196533203125,0.2970398496828973,-0.6151824008882045,-1.9402980548523365
1768418183224198400,7.512198486328125,-0.09432795060053467,0.40313188783526416,-0.9414978102203458
1768418183234199600,7.522199462890625,0.178673144108057,0.9398761273026466,-0.294338920161128
1768418183244201500,7.532201416015625,1.0204713206268847,1.1498831518292427,0.10451982039958238
1768418183254203400,7.542203369140625,2.2065257099032403,1.2680448363512753,0.42465369155257937
1768418183264204500,7.55220458984375,3.056881140756607,0.7919178549319505,0.8311078556783497
1768418183274206500,7.56220654296875,3.350419850450754,-0.2978641716778278,0.9713571611069143
1768418183284207400,7.572207275390625,3.549769871884584,-1.0098813914209603,0.6072885788984597
1768418183294209500,7.58220947265625,3.517013265186548,-0.9345458721905946,-0.14793949460498987
1768418183304210400,7.59221044921875,3.3944764343202114,-0.6978302889585495,-0.9626618134759366
1768418183314212400,7.60221240234375,2.9478046799659725,-0.8041355314701795,-1.4879516158625483
1768418183324214500,7.612214599609375,2.2061399254560468,-0.8717214594870806,-1.7379180180728435
1768418183334215400,7.62221533203125,1.458563316553831,-0.5767436569005251,-1.7576999923855066
1768418183344217600,7.632217529296875,0.6720669021487236,-0.1725181286096573,-1.8230837341830133
1768418183354218500,7.642218505859375,0.16793898412585256,0.18019523910880086,-1.9001734036043285
1768418183364220400,7.652220458984375,0.00502455016374588,0.3868102831095457,-1.815280220825225
1768418183374221300,7.66222119140625,-0.10956263687238096,0.5650643250226974,-1.6840671854197977
1768418183384223500,7.672223388671875,-0.0664766516007483,0.7750503067612647,-1.4189863623164594
1768418183394225400,7.682225341796875,-0.0059761518001556395,1.0731447800636291,-0.966707800931111
1768418183404226600,7.6922265625,0.09801730663776397,1.4152321243494748,-0.34847426884397864
1768418183414228200,7.702228271484375,0.23169380954727528,1.7753391094505786,0.4305838853191584
1768418183424229400,7.7122294921875,0.38972996994853015,2.1280548152565957,1.1339965775199234
1768418183434231300,7.722231201171875,0.7293385030306875,2.426467852988839,1.5971972957402467
1768418183444232200,7.732232177734375,0.8727505102738737,2.584206930139661,1.8127122700333593
1768418183454234400,7.742234375,0.7254523092471062,2.6900609217524525,1.6570698729008435
1768418183464236300,7.752236328125,0.7249418755069374,2.7400819669842718,1.5318772668287157
1768418183474237200,7.7622373046875,0.6617476065777241,2.5049071834534407,1.510313377535343
1768418183484239400,7.7722392578125,0.4091907494828105,2.1332669969469307,1.5556000877216458
1768418183494240300,7.782240234375,0.07439560803174972,1.7731968367248772,1.6472952056005596
1768418183504242400,7.792242431640625,-0.17423326196447014,1.397443369680643,1.6102910244606434
1768418183514243300,7.802243408203125,-0.3338768575623631,1.1236299356758594,1.5015639616295695
1768418183524245200,7.812245361328125,-0.4633775360919535,0.9324041839867829,1.4301725038498638
1768418183534247400,7.822247314453125,-0.5788122798681259,0.904274068045616,1.3034095797210932
1768418183544248300,7.832248291015625,-0.6675370036341249,0.9446154307842254,1.0778354951631277
1768418183554250200,7.842250244140625,-0.7101439732171595,0.9237661195009946,0.7398546363480388
1768418183564251400,7.85225146484375,-0.6634187546603382,0.8756815952897071,0.3373008406616747
1768418183574253300,7.86225341796875,-0.7117018701836466,0.8607721954494715,-0.022377762959524986
1768418183584254200,7.872254150390625,-0.8820295030117035,0.8385241232842207,-0.27865342138186094
1768418183594256400,7.88225634765625,-1.123904660964012,0.8312585161954164,-0.3722352297902107
1768418183604258300,7.89225830078125,-1.3769222674384711,0.8730898252308368,-0.31571649310216304
1768418183614259200,7.90225927734375,-1.5301464975133536,0.872283769544959,-0.1776657206311822
1768418183624261400,7.912261474609375,-1.5265189546659588,0.7578308764129876,-0.056638490610197184
1768418183634262300,7.92226220703125,-1.571404244444519,0.6029933659225702,0.12326631418466567
1768418183644264200,7.93226416015625,-1.6373558492578566,0.4009153808295727,0.32471659583337603
1768418183654265300,7.942265380859375,-1.5785484171107411,0.18565467355847357,0.5897264725923538
1768418183664267300,7.952267333984375,-1.2298844709135592,-0.05513268915712833,0.9178221894700079
1768418183674269200,7.962269287109375,-0.7169277881383895,-0.30539106005132194,1.238706075272709
1768418183684270300,7.972270263671875,-0.3549520865559578,-0.4934130472630262,1.499325973444432
1768418183694272300,7.982272216796875,-0.14340674654617905,-0.5161006798893213,1.6739213467195628
1768418183704273200,7.992273193359375,0.04478957431912422,-0.22020693150162696,1.8051830435723066
1768418183714275300,8.002275390625,-0.14187982923984527,0.02972644522190094,1.8315239380091428
1768418183724276200,8.012276123046876,-0.8885571512147784,-0.06341477981209755,1.7839157991379497
1768418183734278100,8.022278076171874,-1.7701054465807973,-0.5487859749168157,1.8016697747543453
1768418183744280300,8.0322802734375,-2.4541899726510046,-1.281458444675803,1.741275804068148
1768418183754281200,8.04228125,-2.8348551771342754,-1.9937199945688246,1.4577410403855144
1768418183764283400,8.052283447265625,-2.7100562465548514,-2.315526182848215,1.0306653823830187
1768418183774284300,8.0622841796875,-1.8963858478896318,-2.1396511450260878,0.6182188459746539
1768418183784286200,8.0722861328125,-0.6181906427934766,-1.7089724940955637,0.5443906625673175
1768418183794287000,8.082287109375,0.6264353240475058,-1.420813723874092,1.0035683358166365
1768418183804289300,8.092289306640625,1.7571429430246353,-1.5660644908517598,1.8989178505852817
1768418183814291200,8.102291259765625,2.798655736505985,-2.3405384590297937,2.520940034365654
1768418183824292400,8.112292236328125,3.6326001307845113,-3.4245214439719915,2.502762864901125
1768418183834294300,8.122294189453125,3.997548710697889,-4.175367868325114,2.1797791572749614
1768418183844295200,8.132295166015625,3.7998397344693537,-4.5096611977338785,1.7472152771197258
1768418183854297300,8.14229736328125,4.100657202994824,-3.916290231159329,1.1334247689813375
1768418183864298200,8.15229833984375,4.1654187212407585,-2.7836791166484356,-0.10485825857371091
1768418183874300200,8.162300048828126,3.2247081889405846,-1.3383540518522261,-1.6201289662554859
1768418183884302300,8.17230224609375,2.2265946844637394,0.2073947962015867,-3.277612096132338
1768418183894303200,8.18230322265625,1.3685383238442241,1.346965228331089,-4.6457215270400045
1768418183904305200,8.19230517578125,0.6387262119524181,1.7749258524745701,-5.357517212986946
1768418183914306300,8.202306396484374,0.0012754267632961273,1.6618652904838322,-5.289403461703658
1768418183924308200,8.21230810546875,-0.4474009454116225,1.163295591109991,-4.20607397223413
1768418183934309000,8.22230908203125,-0.7007835858061909,0.5668073692977428,-2.2282218472741544
1768418183944311300,8.232311279296875,-0.8317755258068442,0.0547767153263092,-0.07821691988557576
1768418183954313200,8.242313232421875,-0.6766480924591421,-0.37774960929751394,1.7308716066926717
1768418183964314000,8.252314208984375,-0.1078993798352778,-0.808933287140727,2.856280827000737
1768418183974316300,8.26231640625,0.69717197118029,-1.1307763002991675,3.143973148754239
1768418183984317200,8.272317138671875,1.2975950482234357,-1.1419523588299751,2.7288983096688986
1768418183994319000,8.282319091796875,1.5217428263053296,-1.123630520197749,1.7868419157177209
1768418184004320300,8.2923203125,1.6134043341755866,-0.9875871420264244,0.7272546824939549
1768418184014322200,8.302322265625,1.7252067127987742,-0.6729916157782078,-0.23184622363001106
1768418184024323300,8.3123232421875,1.6094680176399647,-0.22332126412987707,-0.9165278388105332
1768418184034325200,8.3223251953125,1.2721999102041124,0.24179800106287,-1.3621543218955396
1768418184044327200,8.3323271484375,0.7757727758169174,0.7567308062165975,-1.7084470089167356
1768418184054328300,8.342328369140626,0.3875672389566898,1.2178642166435718,-1.98888439110592
1768418184064330200,8.352330322265624,0.151260382656008,1.5774696819633245,-2.2046707296863195
1768418184074331400,8.362331298828124,-0.01922828595265746,1.8049422205537557,-2.307172780522704
1768418184084333300,8.372333251953124,-0.25801278441324826,1.9772990211218595,-2.2288054923810066
1768418184094334500,8.38233447265625,-0.5239969860970973,2.121058088237047,-2.0069430487573148
1768418184104336400,8.39233642578125,-0.662355801603943,2.194196974205971,-1.7069165844790637
1768418184114337300,8.402337158203125,-0.7817058191277086,2.2226275343984363,-1.4148583226010203
1768418184124339500,8.41233935546875,-0.9357260218858718,2.2083295444548128,-1.1867559616744519
1768418184134341000,8.422341064453125,-1.0230476008556784,2.161689373832941,-0.9823856278605758
1768418184144342500,8.432342529296875,-1.0305610452257097,2.0248101293593646,-0.7506701910033822
1768418184154344400,8.442344482421875,-1.0595416405163705,1.8510124823331833,-0.6008628566998988
1768418184164345300,8.452345458984375,-1.0204043928705155,1.711971091389656,-0.47843642740547654
1768418184174347500,8.462347412109375,-0.9880220263123511,1.5378589715868234,-0.43887225958444176
1768418184184348400,8.472348388671875,-1.0091009085677562,1.395660577917099,-0.37027722759023307
1768418184194350300,8.482350341796876,-1.020938645877689,1.3138754441559315,-0.35073329981714485
1768418184204352300,8.492352294921876,-1.074964981228113,1.308738081267476,-0.3684472356840968
1768418184214353400,8.502353515625,-1.077524018061161,1.374526019951701,-0.29922450024560093
1768418184224355300,8.512355224609376,-1.001162224522978,1.4665321034759282,-0.08926263003498315
1768418184234356500,8.5223564453125,-1.0686815170444548,1.5291823286563158,0.2218105673059821
1768418184244358400,8.5323583984375,-1.247360652501881,1.5156097303777931,0.5103681275866926
1768418184254359300,8.542359375,-1.4300563301242888,1.362683606466651,0.7381265704464167
1768418184264361500,8.552361572265625,-1.6326574623085557,1.0313526339948176,0.8454744538787752
1768418184274362400,8.5623623046875,-1.921439186733961,0.5991074643999338,0.8986457798350602
1768418184284364300,8.5723642578125,-2.0602550983585415,0.09593231705725193,0.8662729117576032
1768418184294366500,8.582366455078125,-1.8238427358567713,-0.40576048277318477,0.7069036761216819
1768418184304367400,8.592367431640625,-1.2816017986692487,-0.7787076602250337,0.3853310774024576
1768418184314369300,8.602369384765625,-0.4042461326874792,-0.7915963678926229,-0.17099435310848057
1768418184324370400,8.612370361328125,-0.2630794201530516,-0.6808657101541757,-0.5946770076718181
1768418184334372400,8.622372314453125,-2.1648713648699225,-1.0824784255981446,-0.37457689754553136
1768418184344373200,8.632373291015625,-4.043728278070688,-1.827981735357642,0.0037659284047782417
1768418184354375400,8.64237548828125,-4.242994128352404,-3.1102865677297116,0.5134986806973815
1768418184364376300,8.652376220703125,-3.6685529031753537,-4.143600857186317,1.0842561027951538
1768418184374378200,8.662378173828126,-3.240128753173351,-3.682161741811037,1.1875849598444999
1768418184384380400,8.67238037109375,-2.960691049546003,-1.920118751785159,0.8839464425489306
1768418184394381300,8.68238134765625,-2.6235715568006035,0.09761924723088741,0.7043246194139122
1768418184404383500,8.692383544921874,-1.8356560693778097,0.6857371155828237,0.7337813077837229
1768418184414385200,8.70238525390625,-0.27981296668052674,-0.772211283943057,0.22981223358437416
1768418184424387300,8.71238720703125,1.4638368730425835,-3.057420654460788,-0.7155852874882519
1768418184434388200,8.72238818359375,2.5006945341944693,-5.310811575913429,-1.4094924116536973
1768418184444390400,8.732390380859375,3.0601193920254706,-6.40092327286899,-2.3665610812976956
1768418184454392300,8.742392333984375,3.811892868095636,-5.85416032821238,-3.938019540147483
1768418184464393200,8.752393310546875,3.1703730799019336,-4.786047697097063,-4.324203508052229
1768418184474395400,8.7623955078125,1.7870459138572214,-3.7988650442183016,-3.4094966010585424
1768418184484396300,8.772396240234375,1.0865946287453174,-2.6782839747190472,-2.5860356068715453
1768418184494398200,8.782398193359375,0.7695721676111221,-0.7741729394048452,-1.7922449438050387
1768418184504399400,8.7923994140625,0.9293011034049093,1.0595090534210205,-0.8186960448075086
1768418184514401300,8.8024013671875,1.3710229802668095,2.0715806483626364,0.24070465286821124
1768418184524402200,8.812402099609375,1.925181149741262,2.3439754477411507,1.2975213984653353
1768418184534404400,8.822404296875,2.460221069508791,1.815007102972269,2.094636822040379
1768418184544405200,8.8324052734375,2.738162397098541,0.7463403451055288,2.5543317240968344
1768418184554407200,8.8424072265625,2.985598696309328,0.11020341899394988,2.4943366896003485
1768418184564409300,8.852409423828124,3.152731040227413,0.25599077706635,1.7508849055431783
1768418184574410200,8.86241015625,3.245605723279714,0.17385376112759113,0.5181899072535335
1768418184584412200,8.872412109375,3.282180426961183,-0.25186522156894203,-0.6327540056750178
1768418184594413300,8.882413330078125,2.7887831617891785,-0.7519096696704626,-1.537611718827486
1768418184604415200,8.892415283203125,1.8477287844873964,-0.6209253284543752,-2.089627469445765
1768418184614416100,8.902416015625,1.0230652826428412,-0.121182493647933,-2.274630401097238
1768418184624418300,8.912418212890625,0.2514763683818281,0.4334253192901611,-2.3209904396034777
1768418184634420200,8.922420166015625,-0.09167539026513695,0.7572545378297567,-2.392120908359438
1768418184644421000,8.932421142578125,-0.14337269814610482,0.7710124295473099,-2.5083093931123615
1768418184654423300,8.94242333984375,-0.08656886090636252,0.8187702060222625,-2.300589602740109
1768418184664424200,8.952424072265625,-0.027981062859296798,0.9393693468242883,-1.801924772428721
1768418184674426000,8.962426025390625,0.14931041763201355,1.1277537376075983,-0.9463931079812348
1768418184684427300,8.97242724609375,0.20207959252819419,1.3606184906303882,-0.09873553790971636
1768418184694429200,8.98242919921875,0.2749859849154949,1.6617448789745568,0.5562042883493006
1768418184704430000,8.99243017578125,0.4468588013589382,2.0073387700766325,0.9854602860655635
1768418184714432300,9.002432373046876,0.6606522125564516,2.3513562056422233,1.2691919605597852
1768418184724434200,9.01243408203125,0.8029952753938734,2.5826199532091616,1.423094528287649
1768418184734435000,9.02243505859375,0.6992145829237997,2.712961904868483,1.4574039173856377
1768418184744437200,9.032437255859374,0.4850818567693233,2.7892537019103765,1.5676783557891845
1768418184754438100,9.042438232421874,0.35431612673997875,2.7036849579572677,1.6104396391510962
1768418184764440300,9.0524404296875,0.12945274773463605,2.4932202527910468,1.656246281558275
1768418184774441200,9.062441162109375,-0.11497764765843749,2.1148750156879426,1.709647324617207
1768418184784443100,9.072443115234375,-0.25744682109355926,1.571476579028368,1.622181076479703
1768418184794444000,9.082444091796875,-0.33333763611912726,1.1201140365093947,1.4973853607706724
1768418184804446200,9.0924462890625,-0.4815349779427051,0.7281552845954895,1.3845705902345478
1768418184814448000,9.1024482421875,-0.4969955819249153,0.4560749579936266,1.1383647096015512
1768418184824449000,9.112448974609375,-0.4267608929648995,0.383044208574295,0.9089075730651617
1768418184834451200,9.122451171875,-0.3757145963385701,0.3213859170407057,0.6766817024677991
1768418184844452000,9.1324521484375,-0.38581498846188184,0.24230536606311798,0.46239685449153184
1768418184854454300,9.142454345703126,-0.5077949160978198,0.15249007058143615,0.42559301822930573
1768418184864455200,9.152455078125,-0.7493041633471846,0.021837737798690793,0.4959799020763486
1768418184874457000,9.16245703125,-0.9118225837290287,-0.011376549538969993,0.6247399183064699
1768418184884458000,9.1724580078125,-1.0452386821366846,0.05445698185265064,0.7352985074136406
1768418184894460200,9.182460205078126,-1.1553949009880422,0.15823650527894495,0.6715070763088762
1768418184904462000,9.192462158203124,-1.3038263438284396,0.3013935148477554,0.46109943509213625
1768418184914463200,9.202463134765624,-1.4502803491160272,0.46004152353703975,0.2727167248092592
1768418184924465200,9.212465087890624,-1.5133154819607735,0.6172790809065103,0.17700411491729318
1768418184934466000,9.222466064453124,-1.4638707753121851,0.7192196984678506,0.28136246114484964
1768418184944468200,9.23246826171875,-1.2481409892246127,0.7433709739059209,0.5758054262023419
1768418184954469000,9.24246923828125,-0.862929811874777,0.7738117048770189,1.041687857787311
1768418184964471000,9.252470947265625,-0.3076644118107855,0.9391220940649508,1.4887430585011838
1768418184974472200,9.26247216796875,0.48522652593702076,1.1801374203175305,1.7586740981146691
1768418184984474000,9.27247412109375,1.0345324330747128,1.389542971819639,1.9378401403062044
1768418184994475000,9.28247509765625,0.564916879376024,1.2155489254385232,2.015671860266477
1768418185004477200,9.292477294921875,-0.7163853518247604,0.38125849420130253,1.6044145336426794
1768418185014479000,9.30247900390625,-1.7146096231997012,-0.7416776139914989,1.2071111327651887
1768418185024480000,9.31247998046875,-2.248370024550706,-1.7212684965670109,0.9673262250903993
1768418185034482200,9.322482177734376,-2.6683038479745385,-2.500228670248389,0.7004882561214267
1768418185044483000,9.332483154296876,-2.8777216744363305,-2.97171980856061,0.3110524468138814
1768418185054485000,9.342485107421876,-2.8011095593988893,-2.833330159524083,-0.14139701415896413
1768418185064486100,9.352486083984376,-2.1440099247574804,-2.0095593687355517,-0.2638204477787018
1768418185074488000,9.362488037109374,-0.9854138896405696,-1.0927934833854436,0.08834902232140301
1768418185084489200,9.3724892578125,0.30715237063542006,-1.0172218173116445,0.3161962394431233
1768418185094491100,9.3824912109375,1.7878288809284566,-1.598246512532234,0.8410866672486066
1768418185104493000,9.3924931640625,3.34162396505475,-2.5679484537780284,1.7101527899213134
1768418185114494200,9.402494140625,4.190062164109945,-3.5641730757683514,2.4393974771887064
1768418185124496100,9.41249609375,3.8924142655313014,-4.5305847432971,2.50897428676188
1768418185134497300,9.422497314453125,4.135271420258284,-4.862409052243828,1.415307673803717
1768418185144499000,9.4324990234375,5.233128616774082,-4.488174173069,0.35074674382060766
1768418185154500400,9.442500244140625,5.544658910232782,-3.3744664964705704,-0.475849771913141
1768418185164502000,9.452501953125,4.699672605197131,-1.578701269584894,-1.5630825524315237
1768418185174503200,9.462503173828125,3.4314696556746958,0.24423954899609088,-2.6728452907964586
1768418185184505300,9.47250537109375,2.066182004189491,1.6068290474385023,-3.5603602394819256
1768418185194507000,9.482507080078125,0.8949777588468044,2.325144490543008,-4.237881899905204
1768418185204508200,9.492508056640625,0.06750643303990364,2.43594003021121,-4.434204097950459
1768418185214510000,9.502510009765626,-0.41980581312999127,2.2609160562604664,-3.7883538793370124
1768418185224511200,9.51251123046875,-0.6008278584517538,1.9712106411188839,-2.398701601924002
1768418185234513400,9.522513427734374,-0.5951625992316752,1.5883862127751112,-0.7383581141799688
1768418185244514300,9.532514404296874,-0.46725393913388247,1.0200357056885958,0.7927426153182983
1768418185254516200,9.54251611328125,-0.13312975574694574,0.3379728947043419,2.101074015481025
1768418185264517000,9.55251708984375,0.4652571392934769,-0.3517062365025282,3.148096366164088
1768418185274519300,9.562519287109374,1.2041291212797165,-0.8287240292817354,3.614090368364751
1768418185284521200,9.572521240234375,1.7132441800653933,-1.03599198423326,3.293009279489517
1768418185294522400,9.5825224609375,1.896880061147362,-1.0763222410559654,2.3380378743857144
1768418185304524300,9.592524169921875,1.9408618262149393,-0.8497539578288793,1.0676330309048294
1768418185314525200,9.602525146484375,1.8324105115853249,-0.3456353921562433,-0.16346519971266388
1768418185324527400,9.61252734375,1.4962589870892464,0.23193302513062952,-1.1103158422030508
1768418185334528300,9.6225283203125,0.9640252107836306,0.7759107229828834,-1.9344179107725619
1768418185344530200,9.6325302734375,0.5742272171001881,1.265952832508087,-2.6883698999255894
1768418185354531300,9.64253125,0.19240926238521933,1.7059715587139128,-3.248183172552287
1768418185364533200,9.652533203125,-0.242809296997264,2.0292051494479177,-3.4004657378628846
1768418185374535200,9.66253515625,-0.5920213055312633,2.0546686765283346,-3.3971564671844243
1768418185384536300,9.672536376953126,-0.7759631838224827,1.9613100093513727,-3.109567313544452
1768418185394538200,9.682538330078126,-0.7655247919164597,1.716198938217759,-2.67686183296144
1768418185404539100,9.6925390625,-0.7761153056442737,1.4069611396104096,-2.172890566805005
1768418185414541000,9.702541015625,-0.8328221853155642,1.0692366667091846,-1.6121245234981179
1768418185424542200,9.712542236328124,-0.7926746646486222,0.8036661603927612,-1.1549060945577918
1768418185434544000,9.722544189453124,-0.6247662217915058,0.6306973654061555,-0.729680740597099
1768418185444545000,9.732544921875,-0.4946680888254195,0.5156009136736392,-0.2850827237769961
1768418185454547200,9.742547119140625,-0.23205548246651886,0.5020552034020423,0.11574066792018711
1768418185464549000,9.752549072265625,0.0475553127054125,0.6350421166121959,0.4308088531814515
1768418185474550000,9.762550048828125,0.203587805134058,0.7534457931965589,0.6818832166336476
1768418185484552200,9.77255224609375,0.15350480058193205,0.8130150034964084,0.7844396280057728
1768418185494553000,9.782552978515625,-0.10229586073979735,0.8478846568256616,0.7306814420722425
1768418185504555000,9.792554931640625,-0.5192588516592979,0.9406342521935701,0.5103688582390546
1768418185514556200,9.80255615234375,-0.9305353213749825,1.0363748460710047,0.17899930732250213
1768418185524558000,9.81255810546875,-1.348591368228197,1.0868576635956764,-0.07159326396211982
1768418185534559000,9.82255908203125,-1.762511192059517,1.0645260048002003,-0.18169461082108318
1768418185544561200,9.83256103515625,-2.0362626667439936,0.9731038586437701,-0.22435681772269309
1768418185554562000,9.84256201171875,-1.9994705209195613,0.8208610408216714,-0.16061200223863123
1768418185564564000,9.85256396484375,-1.6996446937799452,0.6496697769016027,-0.124513391636312
1768418185574566100,9.862566162109376,-1.4810358451247214,0.4924211136162281,-0.14677498087026178
1768418185584567000,9.872567138671876,-1.3025637765467166,0.4495113616943359,-0.28436018165610727
1768418185594569200,9.8825693359375,-0.8717337344467639,0.4917874918878078,-0.5944203294970095
1768418185604570000,9.892570068359374,-0.13030045060515402,0.7135626956194638,-1.042839512040466
1768418185614572000,9.902572021484374,0.2989734480939805,1.050697970455885,-1.2176996006663887
1768418185624573000,9.912572998046874,-0.7458220203198492,0.8826379902988671,-0.6590376169666647
1768418185634575000,9.9225751953125,-2.646301275002956,-0.04190963496863842,0.26571868261545895
1768418185644577000,9.932576904296875,-3.034808425158262,-1.3564128556340933,0.8692647139847278
1768418185654578200,9.942578125,-2.520523854780197,-2.8031477872282267,1.615343193283677
1768418185664580000,9.952580078125,-2.3968201720915734,-3.845979262092709,2.416063801743835
1768418185674581000,9.9625810546875,-2.5641899780273434,-3.6573780136883256,2.5288857326731082
1768418185684583200,9.972583251953125,-2.5935610339403152,-2.2215724723875523,1.7807216792717575
1768418185694584000,9.982583984375,-2.7679636611223217,-0.8177350177556276,0.8038453163519501
1768418185704586000,9.9925859375,-3.1569208931326864,0.07416355284154415,-0.04526522900685668
1768418185714587100,10.002587158203125,-3.5462113026201725,0.35069209102392196,-0.576667376793921
1768418185724589000,10.012589111328126,-3.4286814862608908,0.05397241320610046,-1.0257223730228842
1768418185734591000,10.022591064453126,-2.600458392238617,-0.6229729086339474,-1.3428494635753332
1768418185744592100,10.032592041015626,-1.2667561117149888,-1.7606506588846444,-1.520439780882746
1768418185754594000,10.042593994140624,-0.005613894359022379,-3.066075085559487,-1.4070119930148124
1768418185764595000,10.052594970703124,0.8378628828965127,-4.004797366651893,-1.0896212830901146
1768418185774597000,10.06259716796875,1.3166190437756478,-4.360142251917719,-0.7323677877239883
1768418185784598000,10.072597900390624,2.050222218513489,-4.157652178892493,-0.8114636824011802
1768418185794600000,10.082599853515624,3.1642063739657402,-3.9475568915605543,-1.1050883168131111
1768418185804601000,10.09260107421875,3.3606852238774296,-4.0945220612406725,-0.9721161627806723
1768418185814603000,10.10260302734375,2.6651731487333774,-3.4550329020917414,-0.8196829369530081
1768418185824605000,10.11260498046875,2.194975265102088,-1.3224872051566838,-0.732633160661906
1768418185834606000,10.122606201171875,1.9213221362255513,1.0577519806206226,-0.41768509464897213
1768418185844608000,10.13260791015625,1.5399053827226161,2.494786771455407,-0.0017692016296088694
1768418185854609000,10.14260888671875,1.3933331578828394,3.1150936757504937,0.37736769730784
1768418185864611000,10.152611083984375,1.756181842907518,2.9498493375360963,0.8189121717762201
1768418185874612000,10.162612060546875,2.494317108117044,2.1226684460431335,1.2404270538464188
1768418185884614000,10.17261376953125,3.26971023696661,1.0674106203258036,1.4370382979661225
1768418185894615300,10.182615234375,3.7148984747648237,0.4758049098581075,1.1690564196590334
1768418185904617000,10.192616943359376,3.638993631213903,0.3445551957041025,0.543218403917551
1768418185914619100,10.202619140625,3.5415807202100753,0.1326028823286295,-0.3667757222753018
1768418185924620000,10.2126201171875,3.166229988747835,-0.1858405515193939,-1.242842444425076
1768418185934622000,10.2226220703125,2.3812848954379557,-0.43213411043584343,-1.934252929469198
1768418185944623000,10.232623046875,1.4545955819666385,-0.40781741530299187,-2.3453768389716743
1768418185954625000,10.242625,0.6900912191390991,-0.2632645674616098,-2.5018840362399817
1768418185964626200,10.252626220703124,0.30898163188919425,-0.1739373477578163,-2.4544778496816755
1768418185974628000,10.262628173828125,0.21263152781128883,-0.1742430527061224,-2.3607179082274437
1768418185984629200,10.272629150390625,0.22525851580277084,-0.1749129147917032,-2.2729735738009214
1768418185994631200,10.282631103515625,0.257560072209686,-0.15720833127498626,-2.0650132526710627
1768418186004633000,10.292633056640625,0.18546879559755325,-0.06774257988333701,-1.7172721204072237
1768418186014634200,10.30263427734375,0.3527297343313694,0.1465051509529352,-1.1094449045874177
1768418186024636000,10.312635986328125,0.5811714102149009,0.46904608324766156,-0.2665026726000011
1768418186034637300,10.32263720703125,0.7439255390487611,0.8540735745936632,0.4407361537601798
1768418186044639200,10.33263916015625,0.7066764432370662,1.312581897214055,0.8826518726937472
1768418186054640000,10.34264013671875,0.6142972886167466,1.8394453786581753,1.0750102086093276
1768418186064642300,10.352642333984376,0.44324747899398204,2.372395486539602,1.27436790189296
1768418186074643200,10.362643310546876,0.25383213772773744,2.6642221316188572,1.3750000672042368
1768418186084645000,10.37264501953125,0.12604615416154263,2.6748013933002945,1.3450652399286627
1768418186094647300,10.382647216796874,0.13094444759711624,2.4318624055087565,1.2991136360928415
1768418186104648200,10.392648193359374,0.05632905933484435,1.9539134693592786,1.349151047937572
1768418186114650000,10.402650146484374,-0.07984569013118743,1.4001111275851725,1.3957380270674824
1768418186124651300,10.4126513671875,-0.16927169403433798,0.9486480473011731,1.3953599875353275
1768418186134653200,10.422653076171875,-0.1180278290092945,0.6345324135243893,1.3793625001974403
1768418186144654000,10.432654052734375,-0.038719752886146305,0.49533612428009505,1.2042847502328455
1768418186154656300,10.44265625,-0.03639934711456299,0.4690051667153835,0.9105904115855693
1768418186164657200,10.4526572265625,-0.01504793152809143,0.5238730674564838,0.5802250692754983
1768418186174659000,10.4626591796875,0.031415713483095166,0.5603069013625384,0.2406476619839668
1768418186184661200,10.4726611328125,0.056169046467542644,0.613600100132823,0.02035465963408351
1768418186194662100,10.482662109375,-0.03998129725456238,0.5823568206071853,-0.02970964021757245
1768418186204664000,10.4926640625,-0.2429354806602001,0.5113736513674259,0.05737696095257997
1768418186214665200,10.502665283203125,-0.44133974567651746,0.46027124063968655,0.18346651586443186
1768418186224667100,10.512667236328125,-0.6480592729650437,0.4286597123235464,0.2730120544940233
1768418186234668000,10.52266796875,-0.8666437178313732,0.4625432772248983,0.32880656856074925
1768418186244670200,10.532670166015626,-1.0455446793459355,0.5201309583187103,0.27344533134475346
1768418186254671000,10.542671142578126,-1.1881284190714358,0.5369844779640436,0.19129267944544553
1768418186264673000,10.552673095703126,-1.247583793733269,0.5972796644508839,0.15843151639439165
1768418186274674200,10.562674072265626,-1.2063573187232017,0.6666349402278662,0.22029044506661594
1768418186284676000,10.572676025390624,-1.0525732628084719,0.6900801132231951,0.3999206707037985
1768418186294678300,10.58267822265625,-0.9522868421949445,0.6408978569030761,0.6874664966586976
1768418186304679200,10.59267919921875,-0.836081260176748,0.5158066653788089,1.0269812139775603
1768418186314681000,10.60268115234375,-0.5352655452169478,0.3931535146564245,1.388713242997229
1768418186324682000,10.612681884765625,-0.01505859905257821,0.30061259360313414,1.6074194145470857
1768418186334684200,10.62268408203125,0.6066892978310585,0.27082652714848515,1.51742467084527
1768418186344685000,10.63268505859375,0.7796620383404195,0.28096622836887836,1.205574570847675
1768418186354687200,10.642687255859375,0.08306275248154997,0.03392974213063717,0.7106637593075633
1768418186364688100,10.652688232421875,-0.9483816514499485,-0.6978583460092544,0.05574095724858343
1768418186374690000,10.66268994140625,-1.6896902859985827,-1.693085773655772,-0.3997030093651265
1768418186384692200,10.672692138671875,-2.0558523333549497,-2.5419290463805195,-0.7129984128002077
1768418186394693000,10.682693115234375,-2.566843707406521,-3.2085558033019304,-1.092053990129754
1768418186404695000,10.692695068359376,-3.191134128379822,-3.473950368529558,-1.4192878294810651
1768418186414695700,10.70269580078125,-3.4687960545063015,-2.869699696022272,-1.3663976585537194
1768418186424697900,10.71269775390625,-3.0586499039947985,-1.4499240830242632,-0.7978012869473546
1768418186434698800,10.72269873046875,-2.26170253046304,-0.14138473919928074,0.042704000216722486
1768418186444701000,10.732700927734374,-1.1653579304672776,0.597467880499363,1.0453290638338775
1768418186454701800,10.742701904296876,0.3314274185836315,0.7961661600261927,2.3388651189900935
1768418186464703700,10.752703857421874,1.9454864172756672,0.2897749732464552,3.4995281696394085
1768418186474704600,10.76270458984375,3.189447198206186,-0.7763748333632946,3.9640103059723972
1768418186484706800,10.772706787109374,3.9788440102279186,-1.9195003276258706,3.9605817928284406
1768418186494708700,10.782708740234375,4.052418949526548,-3.237114958310127,3.4607007185950875
1768418186504710000,10.7927099609375,3.39235228177309,-4.433887871608138,2.1680855046108363
1768418186514711800,10.8027119140625,2.888455834418535,-5.073271816816925,0.5332794859662652
1768418186524712700,10.812712646484375,3.14184490455389,-4.637285707128048,-0.47832785246446724
1768418186534715000,10.82271484375,3.5995045013904567,-2.78891117208302,-0.9075029669642448
1768418186544715800,10.8327158203125,3.493335452479124,-0.7938286569893359,-1.508736045216024
1768418186554717700,10.8427177734375,2.765693378102779,0.9046265347450971,-2.0808441512703895
1768418186564718800,10.85271875,1.8824619519554078,2.1776766320377585,-2.8064611495599148
1768418186574720800,10.862720703125,0.9404548039734363,2.9695547394812105,-3.5946243281334636
1768418186584722700,10.87272265625,0.23585100229196249,3.2463352065980433,-4.1528830647945405
1768418186594723800,10.882723876953126,-0.28889051856212317,3.273260038402676,-3.780626792216301
1768418186604725800,10.892725830078126,-0.5573766200643032,3.1753876931935547,-2.502496030658483
1768418186614726700,10.9027265625,-0.48900626367144284,2.702706468313932,-1.021694140420109
1768418186624728800,10.912728759765624,-0.37409408246465026,1.9673919596135616,0.5231757328420877
1768418186634730000,10.92272998046875,-0.14126381623335182,1.081490583604574,2.1394282960556446
1768418186644731600,10.932731689453124,0.3634860330801457,0.16877952660322187,3.473006365677714
1768418186654733000,10.942733154296874,0.9290063582420348,-0.6633189475476742,4.134897326248884
1768418186664734700,10.952734619140625,1.436255623155832,-1.2977186746031044,4.038861841078102
1768418186674735900,10.96273583984375,1.6803050564073025,-1.7012486218452452,3.2715219625636935
1768418186684738000,10.972738037109375,1.6576361284814773,-1.8183423848748206,1.9771670653052626
1768418186694739700,10.98273974609375,1.478269741412252,-1.6013362952411174,0.5831112922362983
1768418186704740900,10.992740966796875,1.232584962043911,-1.138254088833928,-0.633979894208163
1768418186714742800,11.00274267578125,0.9999217229425906,-0.6743044519424438,-1.6069724014319478
1768418186724744000,11.012743896484375,0.8121746071495115,-0.09630524202287197,-2.241744615061581
1768418186734745900,11.022745849609375,0.7043126367151736,0.48462359160780905,-2.7781378491342066
1768418186744747000,11.0327470703125,0.6191547385852784,1.0686311020314694,-3.0647374072149396
1768418186754749000,11.0427490234375,0.3657962827838957,1.691791642192006,-3.179771607366204
1768418186764749800,11.052749755859375,0.16438041486144064,2.1645921095371246,-3.1325358089387416
1768418186774752000,11.062751953125,0.0065723641276359554,2.4427087936937806,-2.914586593236029
1768418186784754000,11.07275390625,-0.16278233201503753,2.4007336922734974,-2.6141674763783813
1768418186794754800,11.0827548828125,-0.3533576569713652,2.0435604225367308,-2.231174559599906
1768418186804757000,11.092757080078124,-0.497389549678564,1.492870075303316,-1.8390978803947566
1768418186814758000,11.1027578125,-0.652674657806009,0.8199199605792761,-1.5079203449189662
1768418186824760000,11.112760009765625,-0.6940906640388071,0.22174422407150268,-0.9807903945583849
1768418186834761000,11.122760986328124,-0.580264451437816,-0.20920915214717387,-0.4762433743406087
1768418186844763000,11.132762939453125,-0.6048095484990627,-0.34805531277954577,-0.06968933003693818
1768418186854763800,11.142763671875,-0.756755940657854,-0.23739888932108877,0.19998773481547832
1768418186864766000,11.152765869140625,-0.8542028269965201,-0.007294248661398888,0.2359049975015223
1768418186874766800,11.162766845703125,-0.9104104519087821,0.23331892653107641,0.23238201100714503
1768418186884769000,11.17276904296875,-0.91577395170331,0.372948931017518,0.23024419526085257
1768418186894771000,11.18277099609375,-0.8816063091635703,0.4576841467559337,0.2865104915577918
1768418186904771800,11.192771728515625,-0.803437027812004,0.4704711476147175,0.34949922797754407
1768418186914774000,11.20277392578125,-0.8457434070132672,0.41743747656345365,0.4802670768987387
1768418186924775000,11.21277490234375,-0.9014565264068544,0.33787001885175705,0.6204216897811741
1768418186934776800,11.22277685546875,-0.8595067055583,0.32863515751659866,0.6815053962972015
1768418186944778000,11.232778076171876,-0.7995547795511782,0.3883224412381649,0.6012558015402406
1768418186954780000,11.24277978515625,-0.8140474152840673,0.47825464109778404,0.3832242413163185
1768418186964780800,11.25278076171875,-0.9596553251363337,0.5071925662904978,0.11398352205455302
1768418186974783000,11.262782958984374,-1.0412859989881516,0.5073258372813463,-0.14510178696103393
1768418186984785000,11.272784912109374,-1.0400526578009128,0.49799452983438963,-0.4314027274213731
1768418186994785800,11.282785888671874,-1.0405962631583212,0.4646797047317028,-0.6329767815802246
1768418187004788000,11.2927880859375,-0.9015852673530578,0.3898983122527599,-0.7423849585432559
1768418187014788900,11.302788818359375,-0.5577447957895696,0.28322774356007574,-0.6856096167456358
1768418187024790800,11.312790771484375,-0.3963946885347366,0.08907295268177985,-0.3956095295064151
1768418187034792000,11.3227919921875,-0.9347991162993013,-0.30555706426799295,0.056361573364958166
1768418187044793900,11.3327939453125,-1.6943595929838715,-0.7949854258090258,0.45706535727046427
1768418187054794800,11.342794677734375,-2.0845207939565182,-1.1901502802878619,0.7707947682086378
1768418187064797000,11.352796875,-2.1665433897353705,-1.437169815391302,1.0596809028565883
1768418187074797800,11.3627978515625,-2.215636068075895,-1.547229442000389,1.2865224500671029
1768418187084799700,11.3727998046875,-2.361274373066425,-1.3232903382331132,1.3807596536442637
1768418187094802000,11.382802001953126,-2.542701784318685,-0.7629232311159372,1.2990297572016716
1768418187104802800,11.392802734375,-2.605257316952944,-0.10750818856060504,1.1332008970975875
1768418187114804700,11.4028046875,-2.6086370225191113,0.32066403250694275,0.9279228007890283
1768418187124806000,11.412805908203126,-2.6761574840843676,0.43205169284939765,0.5676318374231457
1768418187134807800,11.422807861328126,-2.614548876911402,0.41552024476528165,-0.05154956997334957
1768418187144808700,11.43280859375,-2.3002410815633834,0.24432372014820575,-0.7127386658854782
1768418187154811000,11.442810791015624,-1.7308255755938589,-0.12520458877086638,-1.3501659240685402
1768418187164811800,11.452811767578124,-0.8872469453990459,-0.7092214515447616,-2.0014225317701695
1768418187174813700,11.462813720703124,0.18458017619475722,-1.5418033252984285,-2.583851833091676
1768418187184815900,11.47281591796875,1.2206943255029619,-2.6063112099200487,-2.8674256136104463
1768418187194816800,11.482816650390625,1.8399580043554304,-3.7284015149384735,-2.650970143596828
1768418187204819000,11.49281884765625,2.4183577578999103,-4.729799740174412,-2.315612545957416
1768418187214819800,11.50281982421875,2.8783377605080602,-5.267399135166406,-1.8968012968227266
1768418187224821800,11.51282177734375,2.5283050101757047,-4.978704942893982,-1.4839754057079553
1768418187234822700,11.52282275390625,1.5948783512733875,-3.5999861474275585,-1.2665993137180804
1768418187244824800,11.532824951171875,0.6973159096956253,-1.4115548971414564,-0.9410486782133579
1768418187254825700,11.54282568359375,0.13160291150584816,0.5849877536326646,-0.4700146360188722
1768418187264827600,11.55282763671875,-0.25294483349919317,1.9188836570322512,0.18549108049459753
1768418187274829800,11.562829833984376,-0.27480617136918006,2.784291695588827,0.9048358666468411
1768418187284830700,11.572830810546876,0.26435097445882855,2.8896687173396347,1.5230442642927169
1768418187294833000,11.5828330078125,1.1526524704121053,2.2491811948031186,1.9920608291849493
1768418187304833800,11.592833740234376,2.2151228578567506,1.135534893003106,2.1906647084265947
1768418187314835700,11.602835693359374,3.1715199118494986,-0.008619359785318375,1.8994843984268606
1768418187324836600,11.612836669921874,3.6598248223185537,-0.5701654475539922,1.1902592205550522
1768418187334838800,11.6228388671875,3.905656024420261,-0.6186304955154657,0.3085904406145215
1768418187344840000,11.63283984375,4.075912053316832,-0.5217401470810175,-0.505946730947867
1768418187354841900,11.642841796875,3.727520348189771,-0.486285387340188,-1.078138131371513
1768418187364843800,11.65284375,2.7460008356392382,-0.35664310838282104,-1.2782747000731527
1768418187374844700,11.6628447265625,1.63449154586792,-0.03359422656595707,-1.2799654296390712
1768418187384846800,11.672846923828125,0.9192647164285183,0.2504074239760637,-1.3379494165740906
1768418187394847700,11.68284765625,0.5530618986703455,0.30490298427343365,-1.375649909415096
1768418187404849700,11.692849609375,0.3831703191719949,0.18406185140907763,-1.5324875076815485
1768418187414850300,11.702850341796875,0.2259421141527593,-0.012661913174390792,-1.7388786797985434
1768418187424852500,11.7128525390625,0.05980228840336203,-0.11031330910921096,-1.8024354984298347
1768418187434853400,11.722853271484375,-0.08203647817373275,-0.13034838140010832,-1.6210571870163082
1768418187444855600,11.73285546875,-0.05680515241399407,-0.05095043503642082,-1.2818715555213391
1768418187454857500,11.742857421875,0.13289105162024498,0.23165713079869746,-0.5905627772860229
1768418187464858400,11.7528583984375,0.2748211497426033,0.7121358776867389,0.1702978222116828
1768418187474860500,11.762860595703126,0.44739320049658415,1.3261831370651722,0.7006221846994012
1768418187484861400,11.772861328125,0.5525169781386852,1.9122955108135937,0.9747339440636337
1768418187494863400,11.78286328125,0.6402176195539534,2.3908523497283456,1.005159550530836
1768418187504864500,11.792864501953124,0.5631225433051585,2.661348622009158,1.0609634169477968
1768418187514866400,11.802866455078124,0.39119828893542286,2.644718389725685,0.991818642116338
1768418187524867300,11.812867431640624,0.18996362279877066,2.450961073732376,1.00498419396393
1768418187534869500,11.822869384765625,-0.00862783535271883,2.0151865609675643,1.0507138986773787
1768418187544871400,11.832871337890625,-0.050001317618042225,1.3618109152853488,1.0379646725457161
1768418187554872300,11.842872314453125,-0.07644026560187339,0.7592728919148445,0.9907404184255748
1768418187564874500,11.85287451171875,-0.08201543538570404,0.3829039233207702,0.8517292764898389
1768418187574875400,11.86287548828125,-0.028886925657838583,0.2586000827819109,0.6240799930930138
1768418187584877300,11.872877197265625,-0.010011690926551818,0.28079496345520016,0.30408231554031373
1768418187594878500,11.88287841796875,-0.043198359604924914,0.2913298014730215,0.004281622841954231
1768418187604880400,11.89288037109375,-0.06344853595122694,0.2078781958043575,-0.18831505187414585
1768418187614882300,11.90288232421875,-0.08476473409384488,0.06276888312399387,-0.2549548581473529
1768418187624883500,11.912883544921876,-0.1351318162843585,-0.10628186163604258,-0.17682006358727811
1768418187634885400,11.922885498046876,-0.27060440883040426,-0.2154647054105997,0.09091602326519786
1768418187644886300,11.93288623046875,-0.48883302599638695,-0.21436405069231987,0.36796522432081397
1768418187654888400,11.942888427734376,-0.7138622630879282,-0.13285305769741534,0.5771149013657122
1768418187664889300,11.952889404296876,-0.9440437683761119,0.005039163210988044,0.6763659875821322
1768418187674891300,11.962891357421874,-1.1525927030488847,0.1330465344429016,0.6411990318067371
1768418187684892400,11.972892333984374,-1.2826779034681617,0.23425065442323684,0.5469487495522946
1768418187694894300,11.982894287109374,-1.3468304960355162,0.3346867126405239,0.4228646161787212
1768418187704896500,11.992896484375,-1.3608467464283107,0.4428840525090694,0.36758499283157287
1768418187714897400,12.0028974609375,-1.4108230757355689,0.552024810707569,0.39399551843851804
1768418187724899300,12.0128994140625,-1.4371676234342157,0.6370528719127178,0.49520818705148995
1768418187734900200,12.022900146484375,-1.3314157770216464,0.7350076347082853,0.7165268791873007
1768418187744902400,12.03290234375,-1.1461924806177615,0.7748439705342054,0.9477869004271924
1768418187754903300,12.0429033203125,-0.913200009562075,0.7870891196012496,1.1113444545984268
1768418187764905500,12.052905517578125,-0.789854200400412,0.7712035682052374,1.151619327972084
1768418187774906400,12.06290625,-0.6029625323928892,0.5939870526462793,1.0017479885216802
1768418187784908300,12.072908203125,-0.21890943903699517,0.44811084724664685,0.8284476234931498
1768418187794910500,12.082910400390626,-0.014335691605508327,0.28347499631941314,0.7061116489611565
1768418187804911400,12.092911376953126,-0.19021862047314642,-0.06695172176659107,0.6783254510868341
1768418187814913300,12.102913330078126,-0.7319473703548312,-0.5702876126289367,0.6363583137772977
1768418187824914400,12.11291455078125,-1.3765779840454457,-1.2034352937966584,0.5922928890142589
1768418187834916400,12.122916259765624,-1.857976476126909,-1.7267501428484915,0.5616345697697251
1768418187844917200,12.132917236328124,-2.2059283285319804,-2.025045691680908,0.4743850331228226
1768418187854919400,12.14291943359375,-2.4912311248004433,-2.100064984568953,0.4332672061190009
1768418187864921300,12.15292138671875,-2.5902351043879985,-1.9427040930807589,0.44617461848706
1768418187874922200,12.162922119140624,-2.3094506623268125,-1.4616361481279134,0.574275367090851
1768418187884924400,12.17292431640625,-1.6366272427223623,-0.8135843278169631,0.8820244615104049
1768418187894925300,12.18292529296875,-0.9074689185641706,-0.5472054277271032,1.0563417484965174
1768418187904927200,12.19292724609375,0.11257672399654983,-0.5645552064567804,1.426733469311893
1768418187914928400,12.202928466796875,1.326197311720997,-0.9060627050280571,2.1082157039292158
1768418187924930300,12.212930419921875,2.2159796208165585,-1.802918021249771,2.4775258400529623
1768418187934932200,12.22293212890625,2.5169138475894925,-2.7424825983852146,2.5903204445838925
1768418187944933400,12.232933349609375,2.343800529565662,-3.4018314732581376,2.549459734146297
1768418187954935300,12.242935302734375,2.6750644281506535,-3.7923067086160183,1.9315166363731024
1768418187964936200,12.252936279296875,3.784471484945714,-3.3983775334119795,1.361274470321089
1768418187974938400,12.2629384765625,4.3262370597064495,-2.4880758756399155,0.9040788377344607
1768418187984939300,12.272939208984376,3.980708635056019,-1.5488532438099383,-0.10621025770455599
1768418187994941200,12.282941162109376,3.2904140022993085,-0.4052431809008121,-1.3303678754039108
1768418188004942300,12.2929423828125,2.4108393450938164,0.5701379750251769,-2.5787276219457387
1768418188014944300,12.3029443359375,1.6918902802608906,1.2078256377100944,-3.771086810454726
1768418188024946400,12.312946533203124,1.09305695662722,1.5656658469229936,-4.722969017371535
1768418188034947300,12.322947265625,0.5440531011760235,1.6394564747989178,-5.2906362183690065
1768418188044949200,12.33294921875,0.08549567871689796,1.598047190567851,-5.00664684278667
1768418188054950100,12.3429501953125,-0.39523382806181906,1.6427292128592728,-3.7264246619075534
1768418188064952300,12.352952392578125,-0.7831120326638221,1.580836528047919,-1.9186023558728396
1768418188074953200,12.362953125,-0.9300655849713831,1.3105161968559027,0.0223265442289412
1768418188084955400,12.372955322265625,-0.5149227221511304,0.9624094461500644,1.9801435968980192
1768418188094957300,12.382957275390625,0.14896554971709847,0.5845481931716203,3.5444875475674866
1768418188104958200,12.392958251953125,0.8344049975275993,0.09757949974238872,4.257375120404363
1768418188114960400,12.40296044921875,1.4863047254383563,-0.4223281712144613,4.0220425159633155
1768418188124961300,12.412961181640625,1.9247687695480882,-0.8387479951679706,3.1400469152212143
1768418188134963200,12.422963134765626,2.047434049099684,-1.0394751501739024,1.9409855987250804
1768418188144964400,12.43296435546875,1.9933704504787921,-0.9990683209836483,0.6306408129133284
1768418188154966300,12.44296630859375,1.622791755723953,-0.7902157271891832,-0.5567931941531599
1768418188164968200,12.45296826171875,0.9734744455218315,-0.48087505272924896,-1.4828776735991238
1768418188174969300,12.46296923828125,0.3384860318582505,-0.0709632954955101,-2.082837224783748
1768418188184971300,12.47297119140625,-0.09702252344675362,0.46158816845715045,-2.49994751521945
1768418188194972200,12.48297216796875,-0.3369545114420354,0.9926771586418152,-2.699062558853626
1768418188204974300,12.492974365234375,-0.511066265918687,1.5335498762160538,-2.641193722730875
1768418188214975200,12.502975341796875,-0.47372583856172856,1.9974480751812458,-2.461489482009411
1768418188224977200,12.51297705078125,-0.2825869614385068,2.2153607582658528,-2.202420904932916
1768418188234978600,12.522978515625,-0.06536459870561957,2.194556455168128,-1.7566415693737565
1768418188244980200,12.532980224609375,-0.1593102719902992,1.9031150100141763,-1.3029305640324949
1768418188254982100,12.542982177734375,-0.37213235393762584,1.509921747869253,-0.923907646863535
1768418188264983300,12.5529833984375,-0.3706640349507332,1.0283803401857614,-0.6130571523625403
1768418188274985200,12.562985107421875,-0.28605456448383626,0.6236275731503963,-0.3105158557191491
