time,seconds_elapsed,z,y,x
1768418175759234800,0.04723486328125,-0.0848846435546875,-1.0107879638671875,0.0473785400390625
1768418175769237000,0.057237060546875,-0.074859619140625,-1.0245208740234375,0.0388641357421875
1768418175779239000,0.067239013671875,-0.0836029052734375,-1.0308380126953125,0.0316009521484375
1768418175789239800,0.07723974609375,-0.0782623291015625,-1.0253143310546875,0.0336456298828125
1768418175799242000,0.087241943359375,-0.0778045654296875,-1.0316162109375,0.031707763671875
1768418175809243000,0.097242919921875,-0.0742034912109375,-1.0366973876953125,0.030731201171875
1768418175819244800,0.107244873046875,-0.0743408203125,-1.0374908447265625,0.0252227783203125
1768418175829247000,0.1172470703125,-0.0816192626953125,-1.0314483642578125,0.022705078125
1768418175839248000,0.127247802734375,-0.0795135498046875,-1.0243377685546875,0.0214080810546875
1768418175849250000,0.13725,-0.0743560791015625,-1.01605224609375,0.0176239013671875
1768418175859252000,0.147251953125,-0.0751953125,-1.00482177734375,0.011962890625
1768418175869252900,0.1572529296875,-0.0800018310546875,-0.996734619140625,0.003753662109375
1768418175879255000,0.167255126953125,-0.0863037109375,-0.9929962158203125,0.0004119873046875
1768418175889257000,0.177257080078125,-0.091033935546875,-0.989990234375,-0.0023040771484375
1768418175899257900,0.1872578125,-0.0932464599609375,-0.9883880615234375,0.000457763671875
1768418175909260000,0.197260009765625,-0.095703125,-0.98748779296875,0.00152587890625
1768418175919261000,0.207260986328125,-0.10009765625,-0.9900665283203125,-0.0017852783203125
1768418175929262800,0.217262939453125,-0.1066436767578125,-0.99481201171875,0.004119873046875
1768418175939265000,0.22726513671875,-0.112701416015625,-0.99786376953125,0.0194854736328125
1768418175949266000,0.237265869140625,-0.1140594482421875,-0.9979400634765625,0.02850341796875
1768418175959267800,0.247267822265625,-0.104644775390625,-0.9991302490234375,0.0339202880859375
1768418175969270000,0.25727001953125,-0.090667724609375,-1.0019378662109375,0.03363037109375
1768418175979271000,0.26727099609375,-0.0891876220703125,-1.0120697021484375,0.03570556640625
1768418175989273000,0.277273193359375,-0.092926025390625,-1.0189056396484375,0.03375244140625
1768418175999274000,0.28727392578125,-0.0922393798828125,-1.02374267578125,0.0302734375
1768418176009276000,0.29727587890625,-0.090789794921875,-1.0234222412109375,0.0281219482421875
1768418176019278000,0.307278076171875,-0.084716796875,-1.013824462890625,0.03167724609375
1768418176029279000,0.317279052734375,-0.0795440673828125,-1.0123443603515625,0.028167724609375
1768418176039281000,0.327281005859375,-0.0726776123046875,-1.0178375244140625,0.0211944580078125
1768418176049283000,0.337282958984375,-0.0683135986328125,-1.0206756591796875,0.025482177734375
1768418176059284000,0.347283935546875,-0.06097412109375,-1.0273284912109375,0.0369873046875
1768418176069286000,0.357285888671875,-0.042388916015625,-1.0409088134765625,0.0540008544921875
1768418176079287000,0.367287109375,-0.0205230712890625,-1.049713134765625,0.068359375
1768418176089289000,0.3772890625,-0.002899169921875,-1.0500030517578125,0.078460693359375
1768418176099291100,0.387291015625,0.0164031982421875,-1.0455169677734375,0.0904998779296875
1768418176109292000,0.3972919921875,0.02777099609375,-1.032562255859375,0.09814453125
1768418176119294000,0.4072939453125,0.031829833984375,-1.0019378662109375,0.1014404296875
1768418176129296100,0.417296142578125,0.0292816162109375,-1.006195068359375,0.110107421875
1768418176139297000,0.427297119140625,0.0367279052734375,-1.0169677734375,0.0913238525390625
1768418176149299000,0.437298828125,0.0372161865234375,-1.0204925537109375,0.0858306884765625
1768418176159301000,0.447301025390625,0.0324859619140625,-1.0201568603515625,0.0756683349609375
1768418176169302000,0.457302001953125,0.032684326171875,-1.025726318359375,0.070037841796875
1768418176179304000,0.467303955078125,0.033233642578125,-1.0329132080078125,0.063720703125
1768418176189305000,0.47730517578125,0.0378265380859375,-1.0240325927734375,0.05560302734375
1768418176199307000,0.48730712890625,0.0500640869140625,-1.00787353515625,0.0443115234375
1768418176209309000,0.497308837890625,0.05450439453125,-0.992340087890625,0.0501708984375
1768418176219310000,0.50731005859375,0.0574798583984375,-0.97735595703125,0.062652587890625
1768418176229312000,0.51731201171875,0.0649566650390625,-0.9730072021484375,0.0796051025390625
1768418176239314200,0.527314208984375,0.0713043212890625,-0.97515869140625,0.1034088134765625
1768418176249315000,0.537315185546875,0.0806121826171875,-0.9836578369140625,0.12872314453125
1768418176259317000,0.54731689453125,0.086944580078125,-0.9883270263671875,0.1480560302734375
1768418176269318000,0.55731787109375,0.09234619140625,-0.99322509765625,0.1556854248046875
1768418176279320000,0.567320068359375,0.093536376953125,-1.0001983642578125,0.1617431640625
1768418176289322000,0.577322021484375,0.0985260009765625,-0.9995269775390625,0.1575927734375
1768418176299323100,0.5873232421875,0.10223388671875,-0.96868896484375,0.156341552734375
1768418176309325000,0.597324951171875,0.08782958984375,-0.9849090576171875,0.1812286376953125
1768418176319327000,0.607326904296875,0.07305908203125,-0.9775848388671875,0.165496826171875
1768418176329328000,0.617328125,0.0648040771484375,-0.9637298583984375,0.185150146484375
1768418176339330000,0.627330078125,0.06341552734375,-0.964447021484375,0.1808013916015625
1768418176349332000,0.63733203125,0.0705718994140625,-0.959014892578125,0.17144775390625
1768418176359333000,0.6473330078125,0.075958251953125,-0.9635162353515625,0.170318603515625
1768418176369335000,0.6573349609375,0.0757293701171875,-0.9691925048828125,0.1657562255859375
1768418176379336000,0.6673359375,0.0753021240234375,-0.9754638671875,0.155517578125
1768418176389338000,0.677338134765625,0.0709228515625,-0.9739532470703125,0.1414337158203125
1768418176399340000,0.687340087890625,0.07659912109375,-0.9695892333984375,0.127471923828125
1768418176409341200,0.697341064453125,0.08062744140625,-0.962188720703125,0.1252899169921875
1768418176419343000,0.707343017578125,0.07672119140625,-0.9541778564453125,0.124908447265625
1768418176429345000,0.717344970703125,0.0772247314453125,-0.9411163330078125,0.12493896484375
1768418176439346200,0.72734619140625,0.0807342529296875,-0.9301300048828125,0.130126953125
1768418176449348000,0.73734814453125,0.0758514404296875,-0.92193603515625,0.1337890625
1768418176459350000,0.74735009765625,0.067047119140625,-0.9162445068359375,0.1358642578125
1768418176469351200,0.75735107421875,0.0570526123046875,-0.9169769287109375,0.131866455078125
1768418176479353000,0.76735302734375,0.05035400390625,-0.9322509765625,0.1224365234375
1768418176489354200,0.777354248046875,0.0453643798828125,-0.9416656494140625,0.1152191162109375
1768418176499356000,0.78735595703125,0.03765869140625,-0.9516754150390625,0.11480712890625
1768418176509358000,0.797358154296875,0.0351104736328125,-0.956268310546875,0.12530517578125
1768418176519359200,0.807359130859375,0.033966064453125,-0.95770263671875,0.141082763671875
1768418176529361000,0.81736083984375,0.0429840087890625,-0.961517333984375,0.135833740234375
1768418176539363000,0.827363037109375,0.058074951171875,-0.9632415771484375,0.1097869873046875
1768418176549364000,0.837364013671875,0.0579071044921875,-0.96429443359375,0.131317138671875
1768418176559366000,0.847365966796875,0.0612335205078125,-0.9857330322265625,0.1692352294921875
1768418176569368000,0.8573681640625,0.0710296630859375,-1.0051422119140625,0.2048187255859375
1768418176579369000,0.867368896484375,0.0413970947265625,-0.9678802490234375,0.1909942626953125
1768418176589371100,0.87737109375,0.009490966796875,-0.944915771484375,0.242889404296875
1768418176599372000,0.8873720703125,0.0196075439453125,-0.9486236572265625,0.2554168701171875
1768418176609374000,0.8973740234375,0.028656005859375,-0.9481048583984375,0.2301177978515625
1768418176619376000,0.907376220703125,0.0233306884765625,-0.9480743408203125,0.2094879150390625
1768418176629377000,0.917376953125,0.012420654296875,-0.94842529296875,0.1963653564453125
1768418176639379000,0.92737890625,0.00494384765625,-0.9586029052734375,0.178924560546875
1768418176649381000,0.937381103515625,0.0029449462890625,-0.96783447265625,0.1649322509765625
1768418176659382000,0.947382080078125,-0.0005340576171875,-0.9743194580078125,0.15460205078125
1768418176669384000,0.957384033203125,-0.009552001953125,-0.977264404296875,0.140045166015625
1768418176679386000,0.96738623046875,-0.017730712890625,-0.9733734130859375,0.1267852783203125
1768418176689387000,0.977386962890625,-0.0207977294921875,-0.966705322265625,0.1147003173828125
1768418176699389000,0.987388916015625,-0.02252197265625,-0.9563140869140625,0.112396240234375
1768418176709390000,0.99739013671875,-0.01202392578125,-0.941131591796875,0.11669921875
1768418176719392000,1.00739208984375,0.0050811767578125,-0.9280242919921875,0.131805419921875
1768418176729394200,1.017394287109375,0.0141754150390625,-0.9203033447265625,0.1537017822265625
1768418176739395000,1.02739501953125,0.033843994140625,-0.92999267578125,0.1888580322265625
1768418176749397000,1.03739697265625,0.0451507568359375,-0.9558563232421875,0.2102813720703125
1768418176759399200,1.047399169921875,0.0444793701171875,-0.9745025634765625,0.1812286376953125
1768418176769400000,1.057400146484375,0.0498046875,-0.980377197265625,0.142364501953125
1768418176779402000,1.067402099609375,0.0580902099609375,-0.99542236328125,0.12860107421875
1768418176789404200,1.077404052734375,0.03582763671875,-1.0321502685546875,0.1227569580078125
1768418176799405000,1.087405029296875,-0.0127410888671875,-1.069244384765625,0.11236572265625
1768418176809407000,1.097406982421875,-0.0953216552734375,-1.0753173828125,0.012237548828125
1768418176819408100,1.107408203125,-0.130218505859375,-1.0730743408203125,0.0850677490234375
1768418176829410000,1.11741015625,-0.1354522705078125,-1.1021881103515625,0.081207275390625
1768418176839412200,1.127412109375,-0.127166748046875,-1.086944580078125,0.080596923828125
1768418176849413000,1.1374130859375,-0.0705413818359375,-1.04034423828125,0.1058349609375
1768418176859415000,1.1474150390625,0.0075836181640625,-0.959381103515625,0.0858154296875
1768418176869417200,1.157417236328125,0.13531494140625,-0.9323883056640625,0.1384124755859375
1768418176879418000,1.167418212890625,0.250946044921875,-1.0045623779296875,0.1947479248046875
1768418176889420000,1.177419921875,0.3079376220703125,-1.121734619140625,0.1266326904296875
1768418176899422200,1.187422119140625,0.27288818359375,-1.217681884765625,0.0850677490234375
1768418176909423000,1.197423095703125,0.27447509765625,-1.381011962890625,0.3978118896484375
1768418176919425000,1.207425048828125,0.2396392822265625,-1.5131988525390625,0.3142852783203125
1768418176929427200,1.21742724609375,0.2332000732421875,-1.5669097900390625,0.3185272216796875
1768418176939428000,1.227427978515625,0.270050048828125,-1.5402679443359375,0.3153839111328125
1768418176949430000,1.237429931640625,0.2502593994140625,-1.4386138916015625,0.2469940185546875
1768418176959431200,1.24743115234375,0.1764678955078125,-1.2382049560546875,0.0958099365234375
1768418176969433000,1.25743310546875,0.161285400390625,-1.0401611328125,0.0950164794921875
1768418176979435300,1.267435302734375,0.1487579345703125,-0.9333343505859375,0.03271484375
1768418176989436200,1.277436279296875,0.1650390625,-0.8524169921875,-0.0561676025390625
1768418176999438000,1.28743798828125,0.2092132568359375,-0.7971038818359375,-0.132110595703125
1768418177009440300,1.297440185546875,0.2476654052734375,-0.767059326171875,-0.2105560302734375
1768418177019441200,1.307441162109375,0.2519683837890625,-0.75341796875,-0.2552032470703125
1768418177029443000,1.317443115234375,0.2358856201171875,-0.7598114013671875,-0.2705078125
1768418177039445200,1.3274453125,0.2168426513671875,-0.8027801513671875,-0.291015625
1768418177049446100,1.337446044921875,0.194061279296875,-0.84332275390625,-0.2647247314453125
1768418177059448000,1.347447998046875,0.2914276123046875,-0.9498291015625,0.127410888671875
1768418177069450200,1.3574501953125,0.2513580322265625,-1.0344085693359375,0.0178375244140625
1768418177079451100,1.367451171875,0.1796417236328125,-1.0258026123046875,0.048553466796875
1768418177089453000,1.377453125,0.1558990478515625,-0.970855712890625,0.143341064453125
1768418177099454200,1.3874541015625,0.256927490234375,-1.0073089599609375,0.125946044921875
1768418177109456100,1.3974560546875,0.2754364013671875,-1.0785064697265625,0.0746612548828125
1768418177119458300,1.407458251953125,0.313385009765625,-1.1154022216796875,0.0514373779296875
1768418177129459200,1.417459228515625,0.3274688720703125,-1.1519622802734375,0.009613037109375
1768418177139461000,1.427461181640625,0.2899169921875,-1.1482391357421875,-0.0520172119140625
1768418177149463300,1.43746337890625,0.2785797119140625,-1.088653564453125,-0.0786895751953125
1768418177159464200,1.447464111328125,0.258758544921875,-1.0304718017578125,-0.092559814453125
1768418177169466000,1.457466064453125,0.2314910888671875,-0.9812774658203125,-0.117706298828125
1768418177179468000,1.467468017578125,0.19805908203125,-0.9271240234375,-0.1258392333984375
1768418177189469200,1.47746923828125,0.1681060791015625,-0.89239501953125,-0.111297607421875
1768418177199471000,1.48747119140625,0.143096923828125,-0.873626708984375,-0.09979248046875
1768418177209473000,1.49747314453125,0.142578125,-0.856170654296875,-0.0946044921875
1768418177219474200,1.50747412109375,0.1624298095703125,-0.84429931640625,-0.0879974365234375
1768418177229476000,1.51747607421875,0.185638427734375,-0.83819580078125,-0.08343505859375
1768418177239477200,1.527477294921875,0.198760986328125,-0.8369140625,-0.0810546875
1768418177249479200,1.537479248046875,0.2070770263671875,-0.8398284912109375,-0.080718994140625
1768418177259481000,1.547481201171875,0.2210540771484375,-0.8574981689453125,-0.0887298583984375
1768418177269482200,1.557482177734375,0.21826171875,-0.888214111328125,-0.1204833984375
1768418177279484200,1.567484130859375,0.1882476806640625,-0.919189453125,-0.1530914306640625
1768418177289486000,1.577486083984375,0.1430511474609375,-0.9105224609375,-0.1574554443359375
1768418177299487200,1.5874873046875,0.1147613525390625,-0.86956787109375,-0.1602325439453125
1768418177309489000,1.597489013671875,0.0916595458984375,-0.823699951171875,-0.1437225341796875
1768418177319491000,1.607490966796875,0.0651702880859375,-0.786102294921875,-0.1065216064453125
1768418177329492000,1.617491943359375,0.052001953125,-0.7633056640625,-0.0662841796875
1768418177339494000,1.627493896484375,0.0669403076171875,-0.770111083984375,-0.027679443359375
1768418177349496000,1.63749609375,0.0494384765625,-0.755615234375,-0.006805419921875
1768418177359497000,1.6474970703125,0.1444244384765625,-0.7781219482421875,0.0641632080078125
1768418177369499100,1.6574990234375,0.168701171875,-0.870849609375,0.006256103515625
1768418177379501000,1.6675009765625,0.1867828369140625,-0.9244232177734375,-0.01068115234375
1768418177389502000,1.677501953125,0.1743011474609375,-0.991973876953125,-0.0305633544921875
1768418177399504000,1.68750390625,0.1239013671875,-1.0590972900390625,-0.0323638916015625
1768418177409504800,1.6975048828125,0.07781982421875,-1.0953369140625,0.002777099609375
1768418177419506700,1.707506591796875,0.0623931884765625,-1.072662353515625,0.038909912109375
1768418177429508900,1.7175087890625,0.08843994140625,-0.9862518310546875,0.056793212890625
1768418177439509800,1.727509765625,0.154876708984375,-0.8939361572265625,0.0521240234375
1768418177449511700,1.73751171875,0.234222412109375,-0.843292236328125,0.042266845703125
1768418177459513900,1.747513916015625,0.3099365234375,-0.8488922119140625,0.02288818359375
1768418177469514800,1.7575146484375,0.39642333984375,-0.9050750732421875,-0.0019989013671875
1768418177479516700,1.7675166015625,0.4628143310546875,-0.992095947265625,-0.0020294189453125
1768418177489518800,1.777518798828125,0.4888916015625,-1.1151123046875,0.004241943359375
1768418177499519700,1.787519775390625,0.45111083984375,-1.2425079345703125,-0.010467529296875
1768418177509522000,1.79752197265625,0.3926849365234375,-1.3345794677734375,-0.0460052490234375
1768418177519523800,1.80752392578125,0.332733154296875,-1.31854248046875,-0.11260986328125
1768418177529524700,1.817524658203125,0.3031463623046875,-1.232574462890625,-0.111053466796875
1768418177539527000,1.82752685546875,0.26593017578125,-1.1747589111328125,-0.0489044189453125
1768418177549528800,1.83752880859375,0.21112060546875,-1.0914459228515625,0.0191650390625
1768418177559529700,1.84752978515625,0.1902923583984375,-0.99517822265625,0.10418701171875
1768418177569532000,1.857531982421875,0.230224609375,-0.953460693359375,0.1529388427734375
1768418177579532800,1.86753271484375,0.2801361083984375,-0.940155029296875,0.1567840576171875
1768418177589534700,1.87753466796875,0.314208984375,-0.936004638671875,0.1292877197265625
1768418177599537000,1.887536865234375,0.3427886962890625,-0.9219970703125,0.0641937255859375
1768418177609537800,1.897537841796875,0.3567962646484375,-0.8893890380859375,0.014129638671875
1768418177619539700,1.907539794921875,0.3377838134765625,-0.8981781005859375,0.076812744140625
1768418177629542000,1.9175419921875,0.332611083984375,-0.9357147216796875,0.0952606201171875
1768418177639542800,1.927542724609375,0.3316802978515625,-0.95086669921875,0.109222412109375
1768418177649545000,1.937544921875,0.337799072265625,-0.9541778564453125,0.1079559326171875
1768418177659547000,1.947546875,0.3458099365234375,-0.9424896240234375,0.0884552001953125
1768418177669547800,1.9575478515625,0.3425140380859375,-0.9224853515625,0.0771942138671875
1768418177679550000,1.967550048828125,0.3330230712890625,-0.902984619140625,0.079833984375
1768418177689552000,1.9775517578125,0.312042236328125,-0.89410400390625,0.0951995849609375
1768418177699552800,1.987552734375,0.2916259765625,-0.898651123046875,0.1085205078125
1768418177709555000,1.997554931640625,0.2854461669921875,-0.9162139892578125,0.1172332763671875
1768418177719556900,2.007556884765625,0.2886810302734375,-0.9404144287109375,0.1179656982421875
1768418177729557800,2.017557861328125,0.2927093505859375,-0.957611083984375,0.107421875
1768418177739560000,2.027559814453125,0.292755126953125,-0.96856689453125,0.090911865234375
1768418177749560800,2.037560791015625,0.2930908203125,-0.96832275390625,0.0698699951171875
1768418177759562800,2.047562744140625,0.2900848388671875,-0.956878662109375,0.05792236328125
1768418177769565000,2.05756494140625,0.284912109375,-0.9420623779296875,0.056304931640625
1768418177779565800,2.06756591796875,0.2758636474609375,-0.92535400390625,0.064453125
1768418177789568000,2.077568115234375,0.26715087890625,-0.916961669921875,0.0811004638671875
1768418177799570000,2.08756982421875,0.2661895751953125,-0.9206390380859375,0.0965576171875
1768418177809570800,2.09757080078125,0.268096923828125,-0.9347381591796875,0.1029205322265625
1768418177819573000,2.107572998046875,0.2697906494140625,-0.95233154296875,0.099700927734375
1768418177829575000,2.117574951171875,0.2700653076171875,-0.965545654296875,0.0947418212890625
1768418177839575800,2.127575927734375,0.2684783935546875,-0.97808837890625,0.0908966064453125
1768418177849578000,2.137577880859375,0.26873779296875,-0.9852142333984375,0.0913238525390625
1768418177859580000,2.147579833984375,0.268768310546875,-0.983123779296875,0.093231201171875
1768418177869580800,2.157580810546875,0.2638702392578125,-0.978485107421875,0.09344482421875
1768418177879583000,2.1675830078125,0.2607879638671875,-0.9702911376953125,0.092437744140625
1768418177889585000,2.1775849609375,0.2616729736328125,-0.96337890625,0.0902862548828125
1768418177899586000,2.1875859375,0.259521484375,-0.9635009765625,0.0839080810546875
1768418177909588000,2.197587890625,0.2576904296875,-0.9702606201171875,0.0814971923828125
1768418177919588900,2.2075888671875,0.2635345458984375,-0.9795074462890625,0.0770111083984375
1768418177929591000,2.217591064453125,0.2655181884765625,-0.989013671875,0.0732879638671875
1768418177939593000,2.227593017578125,0.269775390625,-0.99627685546875,0.068450927734375
1768418177949593900,2.23759375,0.2651214599609375,-0.9945068359375,0.0636138916015625
1768418177959596000,2.247595947265625,0.25225830078125,-0.988067626953125,0.0560150146484375
1768418177969597700,2.25759765625,0.239471435546875,-0.980438232421875,0.049774169921875
1768418177979598800,2.267598876953125,0.23443603515625,-0.97784423828125,0.049163818359375
1768418177989601000,2.27760107421875,0.2328338623046875,-0.9739532470703125,0.0476531982421875
1768418177999602700,2.287602783203125,0.2332611083984375,-0.9770355224609375,0.0452728271484375
1768418178009603800,2.297603759765625,0.22772216796875,-0.9839630126953125,0.042755126953125
1768418178019605800,2.307605712890625,0.2147064208984375,-0.99371337890625,0.038848876953125
1768418178029607700,2.317607666015625,0.200469970703125,-1.006317138671875,0.03802490234375
1768418178039608800,2.32760888671875,0.1789703369140625,-1.0110626220703125,0.040679931640625
1768418178049610800,2.33761083984375,0.1633148193359375,-1.0105133056640625,0.0464630126953125
1768418178059612700,2.34761279296875,0.151519775390625,-1.0084075927734375,0.0511932373046875
1768418178069613800,2.35761376953125,0.144439697265625,-1.00103759765625,0.0495758056640625
1768418178079615700,2.36761572265625,0.140106201171875,-0.98492431640625,0.04962158203125
1768418178089617000,2.377616943359375,0.1298675537109375,-0.9631805419921875,0.048065185546875
1768418178099618800,2.387618896484375,0.1158294677734375,-0.94244384765625,0.0504302978515625
1768418178109620700,2.397620849609375,0.10760498046875,-0.93292236328125,0.053375244140625
1768418178119621600,2.40762158203125,0.10931396484375,-0.935272216796875,0.056427001953125
1768418178129623800,2.417623779296875,0.1169586181640625,-0.9447021484375,0.0516815185546875
1768418178139625700,2.427625732421875,0.118865966796875,-0.9641876220703125,0.0387725830078125
1768418178149626600,2.437626708984375,0.108673095703125,-0.9893798828125,0.0158538818359375
1768418178159628800,2.44762890625,0.0849456787109375,-1.014495849609375,-0.0106353759765625
1768418178169630700,2.457630615234375,0.0589447021484375,-1.03863525390625,-0.0350189208984375
1768418178179631900,2.4676318359375,0.0398712158203125,-1.0563201904296875,-0.0480499267578125
1768418178189633800,2.4776337890625,0.0138092041015625,-1.0679473876953125,-0.0496673583984375
1768418178199635700,2.4876357421875,-0.014739990234375,-1.072845458984375,-0.0439605712890625
1768418178209636900,2.497636962890625,-0.03924560546875,-1.06964111328125,-0.02667236328125
1768418178219638800,2.507638671875,-0.05279541015625,-1.0644989013671875,-0.0040435791015625
1768418178229641000,2.517640869140625,-0.0511474609375,-1.0578765869140625,0.0301055908203125
1768418178239641900,2.527641845703125,-0.0347442626953125,-1.0520782470703125,0.062469482421875
1768418178249643800,2.537643798828125,-0.0216217041015625,-1.0450592041015625,0.090789794921875
1768418178259644700,2.547644775390625,-0.0183563232421875,-1.033721923828125,0.1067962646484375
1768418178269646800,2.557646728515625,-0.01708984375,-1.0238189697265625,0.111541748046875
1768418178279648800,2.567648681640625,-0.01483154296875,-1.013092041015625,0.1082763671875
1768418178289650000,2.57764990234375,-0.0193328857421875,-1.0001678466796875,0.0989227294921875
1768418178299651800,2.58765185546875,-0.0142669677734375,-0.9897308349609375,0.0843505859375
1768418178309653800,2.59765380859375,-0.0167388916015625,-0.9857330322265625,0.068756103515625
1768418178319655000,2.607655029296875,-0.0274200439453125,-0.9896087646484375,0.058746337890625
1768418178329656800,2.61765673828125,-0.0373992919921875,-1.00054931640625,0.0517578125
1768418178339658800,2.62765869140625,-0.038787841796875,-1.010894775390625,0.058380126953125
1768418178349660000,2.637659912109375,-0.03271484375,-1.0123443603515625,0.0675811767578125
1768418178359661800,2.647661865234375,-0.022064208984375,-1.00384521484375,0.0527801513671875
1768418178369664000,2.6576640625,-0.029327392578125,-0.9947052001953125,0.05291748046875
1768418178379665000,2.667664794921875,-0.043426513671875,-0.981658935546875,0.064056396484375
1768418178389666800,2.677666748046875,-0.047882080078125,-0.9685516357421875,0.0605926513671875
1768418178399668000,2.68766796875,-0.0573577880859375,-0.96002197265625,0.072052001953125
1768418178409670000,2.697669921875,-0.0601348876953125,-0.95758056640625,0.0848236083984375
1768418178419672000,2.707672119140625,-0.049163818359375,-0.95965576171875,0.092559814453125
1768418178429673000,2.7176728515625,-0.0353546142578125,-0.966461181640625,0.10595703125
1768418178439675000,2.7276748046875,-0.0370635986328125,-0.976470947265625,0.106231689453125
1768418178449677000,2.737677001953125,-0.042755126953125,-0.9768829345703125,0.0883331298828125
1768418178459678000,2.747677978515625,-0.0442352294921875,-0.97003173828125,0.062652587890625
1768418178469679900,2.757679931640625,-0.036041259765625,-0.96246337890625,0.0425567626953125
1768418178479682000,2.76768212890625,-0.027801513671875,-0.9616851806640625,0.03302001953125
1768418178489683000,2.777682861328125,-0.0218658447265625,-0.9648284912109375,0.029541015625
1768418178499685000,2.78768505859375,-0.023101806640625,-0.972320556640625,0.022247314453125
1768418178509687000,2.79768701171875,-0.0284881591796875,-0.9805145263671875,0.0075531005859375
1768418178519688000,2.80768798828125,-0.035614013671875,-0.9825286865234375,-0.011688232421875
1768418178529690000,2.817690185546875,-0.0502471923828125,-0.97686767578125,-0.029022216796875
1768418178539692000,2.827692138671875,-0.0679473876953125,-0.9665374755859375,-0.03875732421875
1768418178549693000,2.83769287109375,-0.0804290771484375,-0.9505462646484375,-0.0417022705078125
1768418178559695000,2.847695068359375,-0.08526611328125,-0.9333038330078125,-0.037200927734375
1768418178569696000,2.857696044921875,-0.091827392578125,-0.9237823486328125,-0.033599853515625
1768418178579698000,2.867697998046875,-0.09661865234375,-0.9227294921875,-0.0278167724609375
1768418178589700000,2.8777001953125,-0.1013946533203125,-0.9278717041015625,-0.016815185546875
1768418178599701000,2.887700927734375,-0.1079254150390625,-0.938201904296875,-0.003570556640625
1768418178609703000,2.897702880859375,-0.1080322265625,-0.9488983154296875,0.0141143798828125
1768418178619705000,2.907705078125,-0.1010589599609375,-0.958526611328125,0.033172607421875
1768418178629706000,2.9177060546875,-0.0955352783203125,-0.9593353271484375,0.048828125
1768418178639708200,2.927708251953125,-0.0860748291015625,-0.9521636962890625,0.056060791015625
1768418178649709800,2.937709716796875,-0.08087158203125,-0.93743896484375,0.0537567138671875
1768418178659711000,2.9477109375,-0.0946502685546875,-0.922882080078125,0.053955078125
1768418178669713000,2.957712890625,-0.1150665283203125,-0.92047119140625,0.0592193603515625
1768418178679714800,2.96771484375,-0.12359619140625,-0.9298095703125,0.0698699951171875
1768418178689716000,2.977716064453125,-0.1235198974609375,-0.9434356689453125,0.077484130859375
1768418178699718000,2.9877177734375,-0.122406005859375,-0.956695556640625,0.0806884765625
1768418178709719800,2.9977197265625,-0.11669921875,-0.970855712890625,0.08148193359375
1768418178719721000,3.007720947265625,-0.11260986328125,-0.979217529296875,0.080596923828125
1768418178729723000,3.017722900390625,-0.1101837158203125,-0.9866943359375,0.0755462646484375
1768418178739724000,3.02772412109375,-0.111053466796875,-0.989715576171875,0.0780487060546875
1768418178749725700,3.0377255859375,-0.1238555908203125,-0.9820098876953125,0.0856170654296875
1768418178759727900,3.047727783203125,-0.1346893310546875,-0.976593017578125,0.0933837890625
1768418178769729000,3.05772900390625,-0.113067626953125,-0.9846649169921875,0.094024658203125
1768418178779731000,3.06773095703125,-0.0413818359375,-1.0123138427734375,0.0907135009765625
1768418178789732900,3.07773291015625,0.0379180908203125,-1.0751495361328125,0.06610107421875
1768418178799733800,3.087733642578125,0.082550048828125,-1.16351318359375,0.0343017578125
1768418178809736000,3.09773583984375,0.084197998046875,-1.2649078369140625,0.032684326171875
1768418178819737900,3.10773779296875,0.0587005615234375,-1.3626861572265625,0.0543670654296875
1768418178829738800,3.11773876953125,0.042083740234375,-1.4325408935546875,0.08599853515625
1768418178839741000,3.127740966796875,0.0576019287109375,-1.4557342529296875,0.0909271240234375
1768418178849742800,3.137742919921875,0.078033447265625,-1.3919219970703125,0.0211944580078125
1768418178859743700,3.14774365234375,0.01934814453125,-1.2185516357421875,-0.095611572265625
1768418178869746000,3.157745849609375,-0.0892333984375,-1.0091400146484375,-0.1573944091796875
1768418178879746800,3.167746826171875,-0.125,-0.87872314453125,-0.1407928466796875
1768418178889748700,3.177748779296875,-0.110443115234375,-0.8398590087890625,-0.0800018310546875
1768418178899751000,3.1877509765625,-0.10333251953125,-0.8741455078125,-0.00750732421875
1768418178909751800,3.197751708984375,-0.0697479248046875,-0.9314422607421875,0.0378265380859375
1768418178919754000,3.20775390625,-0.0012054443359375,-0.985595703125,0.0573577880859375
1768418178929756000,3.217755859375,0.065185546875,-1.041015625,0.070587158203125
1768418178939756800,3.2277568359375,0.142791748046875,-1.105255126953125,0.10089111328125
1768418178949759000,3.237759033203125,0.2157135009765625,-1.1741790771484375,0.1419525146484375
1768418178959761000,3.247760986328125,0.2433013916015625,-1.2324371337890625,0.1787109375
1768418178969761800,3.25776171875,0.2528533935546875,-1.2300872802734375,0.1986083984375
1768418178979764000,3.267763916015625,0.276214599609375,-1.1746978759765625,0.1978302001953125
1768418178989766000,3.277765869140625,0.295867919921875,-1.11297607421875,0.1881561279296875
1768418178999766800,3.287766845703125,0.312713623046875,-1.05810546875,0.1821746826171875
1768418179009769000,3.29776904296875,0.319488525390625,-1.0140838623046875,0.1723785400390625
1768418179019769900,3.307769775390625,0.32147216796875,-0.9756317138671875,0.1624755859375
1768418179029772000,3.31777197265625,0.332550048828125,-0.9429931640625,0.13824462890625
1768418179039774000,3.32777392578125,0.337982177734375,-0.9324493408203125,0.0986480712890625
1768418179049774800,3.33777490234375,0.31976318359375,-0.9387054443359375,0.056365966796875
1768418179059777000,3.347777099609375,0.2985076904296875,-0.94732666015625,0.011688232421875
1768418179069779000,3.357779052734375,0.2745819091796875,-0.9559478759765625,-0.029327392578125
1768418179079779800,3.36777978515625,0.2462921142578125,-0.9646759033203125,-0.0592041015625
1768418179089782000,3.377781982421875,0.21533203125,-0.9708404541015625,-0.0736846923828125
1768418179099784000,3.387783935546875,0.191680908203125,-0.9735107421875,-0.0711669921875
1768418179109784800,3.397784912109375,0.1723785400390625,-0.971588134765625,-0.057708740234375
1768418179119787000,3.407787109375,0.1571044921875,-0.9692535400390625,-0.0328826904296875
1768418179129789000,3.417788818359375,0.1446380615234375,-0.9673004150390625,-0.0028076171875
1768418179139789800,3.427789794921875,0.142791748046875,-0.965240478515625,0.02618408203125
1768418179149792000,3.4377919921875,0.13983154296875,-0.9597015380859375,0.052398681640625
1768418179159794000,3.4477939453125,0.14105224609375,-0.941436767578125,0.0850982666015625
1768418179169795000,3.457795166015625,0.139892578125,-0.910858154296875,0.1249237060546875
1768418179179797000,3.467796875,0.1398773193359375,-0.8699951171875,0.1689453125
1768418179189798000,3.4777978515625,0.1529998779296875,-0.8281097412109375,0.22003173828125
1768418179199800000,3.487800048828125,0.16033935546875,-0.7856292724609375,0.2662811279296875
1768418179209802000,3.497802001953125,0.153350830078125,-0.7540740966796875,0.289825439453125
1768418179219803000,3.507802978515625,0.150665283203125,-0.7384796142578125,0.2942352294921875
1768418179229805000,3.51780517578125,0.15155029296875,-0.7397918701171875,0.28436279296875
1768418179239807000,3.527806884765625,0.156341552734375,-0.76531982421875,0.2727203369140625
1768418179249808000,3.537807861328125,0.1569976806640625,-0.80615234375,0.260650634765625
1768418179259810000,3.54781005859375,0.1593475341796875,-0.8636474609375,0.246856689453125
1768418179269812000,3.55781201171875,0.1681365966796875,-0.9268035888671875,0.230987548828125
1768418179279812900,3.567812744140625,0.170379638671875,-0.9808807373046875,0.2133636474609375
1768418179289815000,3.57781494140625,0.1749420166015625,-1.0231170654296875,0.18402099609375
1768418179299816000,3.58781591796875,0.1827850341796875,-1.0526275634765625,0.1446990966796875
1768418179309818000,3.597818115234375,0.1839141845703125,-1.05511474609375,0.1103363037109375
1768418179319820000,3.607820068359375,0.173004150390625,-1.040435791015625,0.0834197998046875
1768418179329821000,3.617821044921875,0.1555328369140625,-1.0175323486328125,0.0626068115234375
1768418179339823000,3.627822998046875,0.1315155029296875,-0.986297607421875,0.053314208984375
1768418179349825000,3.637824951171875,0.1123809814453125,-0.955230712890625,0.0597381591796875
1768418179359826000,3.647825927734375,0.087188720703125,-0.93780517578125,0.07989501953125
1768418179369828000,3.657828125,0.067138671875,-0.9282379150390625,0.09893798828125
1768418179379829800,3.667829833984375,0.0483551025390625,-0.9262847900390625,0.11309814453125
1768418179389831000,3.677830810546875,0.03387451171875,-0.9261932373046875,0.1161346435546875
1768418179399832300,3.687832275390625,0.0218505859375,-0.925384521484375,0.108917236328125
1768418179409834500,3.69783447265625,0.0053253173828125,-0.91766357421875,0.103973388671875
1768418179419835400,3.70783544921875,-0.0039215087890625,-0.904541015625,0.10015869140625
1768418179429837300,3.71783740234375,-0.0034027099609375,-0.896636962890625,0.09405517578125
1768418179439838500,3.72783837890625,0.000457763671875,-0.8920135498046875,0.094482421875
1768418179449840400,3.73784033203125,0.010833740234375,-0.8947906494140625,0.1058807373046875
1768418179459842300,3.74784228515625,0.016510009765625,-0.8942413330078125,0.1376953125
1768418179469843500,3.757843505859375,0.0138397216796875,-0.9117889404296875,0.1971588134765625
1768418179479845400,3.767845458984375,0.037445068359375,-0.9541168212890625,0.2320556640625
1768418179489847300,3.777847412109375,0.0696258544921875,-0.966400146484375,0.2078094482421875
1768418179499848400,3.787848388671875,0.0764923095703125,-0.97760009765625,0.1894989013671875
1768418179509850400,3.797850341796875,0.0723419189453125,-0.9929656982421875,0.1840362548828125
1768418179519852300,3.807852294921875,0.06060791015625,-1.01324462890625,0.179229736328125
1768418179529853400,3.817853515625,0.0302581787109375,-1.0284271240234375,0.1745452880859375
1768418179539855400,3.82785546875,0.005615234375,-1.0402984619140625,0.118133544921875
1768418179549857300,3.837857177734375,-0.025970458984375,-1.0623016357421875,0.0761871337890625
1768418179559858400,3.8478583984375,-0.060882568359375,-1.100738525390625,0.0623931884765625
1768418179569860000,3.857860107421875,-0.0901031494140625,-1.14111328125,0.048095703125
1768418179579861500,3.867861572265625,-0.1185455322265625,-1.1655426025390625,0.0402984619140625
1768418179589863400,3.877863525390625,-0.1287078857421875,-1.1536865234375,0.030914306640625
1768418179599865000,3.887864990234375,-0.12811279296875,-1.1141357421875,0.0358123779296875
1768418179609866500,3.897866455078125,-0.112823486328125,-1.027313232421875,0.081085205078125
1768418179619868200,3.9078681640625,-0.105377197265625,-0.936065673828125,0.139801025390625
1768418179629870300,3.917870361328125,-0.1053619384765625,-0.8673095703125,0.18316650390625
1768418179639871200,3.927871337890625,-0.0898590087890625,-0.8438873291015625,0.2252655029296875
1768418179649873200,3.937873046875,-0.0189208984375,-0.84930419921875,0.2535858154296875
1768418179659875300,3.947875244140625,0.099151611328125,-0.893341064453125,0.281951904296875
1768418179669876200,3.957876220703125,0.2171783447265625,-0.983917236328125,0.3171539306640625
1768418179679878100,3.967878173828125,0.3121337890625,-1.1112518310546875,0.3304290771484375
1768418179689880300,3.97788037109375,0.364715576171875,-1.2635498046875,0.311309814453125
1768418179699881200,3.987881103515625,0.357879638671875,-1.41796875,0.294403076171875
1768418179709883100,3.997883056640625,0.3200836181640625,-1.5111236572265625,0.27935791015625
1768418179719884300,4.00788427734375,0.2889556884765625,-1.5333404541015625,0.2757568359375
1768418179729886200,4.01788623046875,0.302734375,-1.4335784912109375,0.30645751953125
1768418179739888000,4.02788818359375,0.311676025390625,-1.2702789306640625,0.2934112548828125
1768418179749889300,4.03788916015625,0.265045166015625,-1.1053924560546875,0.21502685546875
1768418179759891200,4.04789111328125,0.2125244140625,-0.9679107666015625,0.1167755126953125
1768418179769893400,4.057893310546875,0.1503448486328125,-0.847015380859375,0.0040740966796875
1768418179779894300,4.067894287109375,0.1232452392578125,-0.741973876953125,-0.1189727783203125
1768418179789896200,4.077896240234375,0.104217529296875,-0.6776580810546875,-0.2109375
1768418179799898400,4.0878984375,0.069854736328125,-0.660675048828125,-0.234649658203125
1768418179809899300,4.097899169921875,0.01806640625,-0.703338623046875,-0.2065582275390625
1768418179819901200,4.107901123046875,-0.024078369140625,-0.784149169921875,-0.0792694091796875
1768418179829902300,4.11790234375,0.0184478759765625,-0.8792266845703125,0.3009490966796875
1768418179839904300,4.127904296875,0.0386962890625,-1.02044677734375,0.2874908447265625
1768418179849906200,4.13790625,0.030853271484375,-1.163848876953125,0.162109375
1768418179859907300,4.1479072265625,0.0812835693359375,-1.23907470703125,0.2639923095703125
1768418179869909200,4.1579091796875,0.176849365234375,-1.2761383056640625,0.331939697265625
1768418179879911400,4.167911376953125,0.233489990234375,-1.2746429443359375,0.3929443359375
1768418179889912300,4.177912353515625,0.2139129638671875,-1.2689666748046875,0.492523193359375
1768418179899914200,4.187914306640625,0.1702728271484375,-1.232574462890625,0.4284820556640625
1768418179909916400,4.19791650390625,0.177825927734375,-1.1224517822265625,0.2560272216796875
1768418179919917300,4.207917236328125,0.17156982421875,-0.9945220947265625,0.1136627197265625
1768418179929919200,4.217919189453125,0.1319122314453125,-0.88507080078125,0.020965576171875
1768418179939920100,4.227920166015625,0.082672119140625,-0.7932281494140625,-0.046905517578125
1768418179949922300,4.23792236328125,0.0360870361328125,-0.7101593017578125,-0.0971527099609375
1768418179959924200,4.24792431640625,0.002532958984375,-0.6478271484375,-0.12908935546875
1768418179969925400,4.25792529296875,-0.0243682861328125,-0.616455078125,-0.1432647705078125
1768418179979927300,4.26792724609375,-0.0258331298828125,-0.6242523193359375,-0.1432952880859375
1768418179989929200,4.27792919921875,-0.0238494873046875,-0.6861724853515625,-0.144866943359375
1768418179999930400,4.287930419921875,-0.035430908203125,-0.7779693603515625,-0.1333465576171875
1768418180009932300,4.297932373046875,-0.0349884033203125,-0.8697662353515625,-0.1071014404296875
1768418180019933200,4.30793310546875,-0.0261383056640625,-0.954437255859375,-0.0812835693359375
1768418180029935400,4.317935302734375,-0.0095062255859375,-1.0212860107421875,-0.0571136474609375
1768418180039937300,4.327937255859375,-0.003021240234375,-1.053466796875,-0.0413665771484375
1768418180049938200,4.337938232421875,-0.005615234375,-1.0609588623046875,0.0010986328125
1768418180059940400,4.3479404296875,-0.0226898193359375,-1.06024169921875,0.04827880859375
1768418180069942300,4.3579423828125,-0.0254669189453125,-1.0439605712890625,0.0604248046875
1768418180079943400,4.367943359375,-0.0157470703125,-1.00341796875,0.072967529296875
1768418180089945300,4.3779453125,-0.0102996826171875,-0.942413330078125,0.13372802734375
1768418180099947300,4.387947265625,-0.028961181640625,-0.9473876953125,0.1497650146484375
1768418180109948400,4.397948486328125,-0.0287933349609375,-0.959197998046875,0.0496368408203125
1768418180119950300,4.407950439453125,-0.0247039794921875,-0.9513397216796875,0.0208892822265625
1768418180129951200,4.417951171875,-0.05078125,-0.9412994384765625,0.0638427734375
1768418180139953400,4.427953369140625,-0.0692901611328125,-0.946929931640625,0.1138916015625
1768418180149955300,4.437955322265625,-0.0758056640625,-0.9616851806640625,0.1588592529296875
1768418180159956200,4.447956298828125,-0.0811767578125,-0.9813079833984375,0.225982666015625
1768418180169958400,4.45795849609375,-0.068328857421875,-0.98748779296875,0.2220611572265625
1768418180179960300,4.467960205078125,-0.0603790283203125,-0.962921142578125,0.186248779296875
1768418180189961200,4.477961181640625,-0.0707550048828125,-0.9210968017578125,0.169647216796875
1768418180199963400,4.48796337890625,-0.0794830322265625,-0.880279541015625,0.1622467041015625
1768418180209965300,4.49796533203125,-0.0856475830078125,-0.8606414794921875,0.1277618408203125
1768418180219966500,4.507966552734375,-0.090789794921875,-0.8585205078125,0.0981597900390625
1768418180229968400,4.517968505859375,-0.08831787109375,-0.8774566650390625,0.0630950927734375
1768418180239969300,4.52796923828125,-0.0789642333984375,-0.888641357421875,0.0364990234375
1768418180249971500,4.537971435546875,-0.079010009765625,-0.926116943359375,0.01507568359375
1768418180259973400,4.547973388671875,-0.05975341796875,-0.988739013671875,-0.0175933837890625
1768418180269974300,4.557974365234375,-0.080841064453125,-0.935760498046875,0.0382080078125
1768418180279976400,4.5679765625,-0.137908935546875,-0.90252685546875,0.113494873046875
1768418180289978400,4.577978271484375,-0.1353759765625,-0.929412841796875,0.172271728515625
1768418180299979300,4.587979248046875,-0.17926025390625,-0.9926910400390625,0.1321258544921875
1768418180309981400,4.5979814453125,-0.166107177734375,-1.079315185546875,0.0836181640625
1768418180319982300,4.607982421875,-0.1114501953125,-1.1215667724609375,0.0513153076171875
1768418180329984300,4.617984375,-0.1031494140625,-1.14520263671875,0.038330078125
1768418180339986400,4.627986328125,-0.12646484375,-1.1421661376953125,0.04693603515625
1768418180349987300,4.6379873046875,-0.1670989990234375,-1.115234375,0.0569000244140625
1768418180359989500,4.647989501953125,-0.20111083984375,-1.081268310546875,0.06927490234375
1768418180369991400,4.657991455078125,-0.19586181640625,-1.0417938232421875,0.071746826171875
1768418180379992300,4.667992431640625,-0.1105499267578125,-1.033599853515625,0.090057373046875
1768418180389994500,4.677994384765625,-0.0251312255859375,-1.0807037353515625,0.0872344970703125
1768418180399997000,4.687996826171875,0.03277587890625,-1.144927978515625,0.087432861328125
1768418180409998000,4.697998046875,0.08160400390625,-1.2070770263671875,0.1149749755859375
1768418180420000000,4.708,0.1270294189453125,-1.2810211181640625,0.1616363525390625
1768418180430001000,4.7180009765625,0.1729888916015625,-1.36090087890625,0.1911773681640625
1768418180440003000,4.728003173828125,0.208404541015625,-1.3926544189453125,0.1699981689453125
1768418180450005000,4.7380048828125,0.196502685546875,-1.2863616943359375,0.0228271484375
1768418180460006000,4.748005859375,0.0923919677734375,-1.17205810546875,-0.188629150390625
1768418180470008000,4.758008056640625,0.0145111083984375,-1.1033782958984375,-0.159515380859375
1768418180480010000,4.768010009765625,0.0243072509765625,-1.10565185546875,-0.0583648681640625
1768418180490011100,4.77801123046875,0.04620361328125,-1.1147308349609375,-0.006500244140625
1768418180500013000,4.788012939453125,0.06378173828125,-1.0792999267578125,0.0460205078125
1768418180510014000,4.798013916015625,0.0903778076171875,-1.02978515625,0.084930419921875
1768418180520016100,4.80801611328125,0.1544036865234375,-0.9747467041015625,0.1395111083984375
1768418180530018000,4.81801806640625,0.24078369140625,-0.9337615966796875,0.2154388427734375
1768418180540019000,4.82801904296875,0.2905120849609375,-0.9263153076171875,0.2474517822265625
1768418180550021000,4.838021240234375,0.2907562255859375,-0.928466796875,0.2473297119140625
1768418180560023000,4.84802294921875,0.274993896484375,-0.91998291015625,0.2556610107421875
1768418180570024000,4.85802392578125,0.2820281982421875,-0.9219512939453125,0.250244140625
1768418180580026000,4.868026123046875,0.273223876953125,-0.9345703125,0.2025909423828125
1768418180590028000,4.878028076171875,0.24822998046875,-0.9503631591796875,0.1534576416015625
1768418180600029000,4.88802880859375,0.20721435546875,-0.967987060546875,0.1192626953125
1768418180610031000,4.898031005859375,0.171295166015625,-0.994781494140625,0.089019775390625
1768418180620032000,4.908031982421875,0.147003173828125,-1.01806640625,0.058868408203125
1768418180630034200,4.9180341796875,0.12359619140625,-1.0404510498046875,0.037994384765625
1768418180640036000,4.9280361328125,0.1072845458984375,-1.070648193359375,0.0176239013671875
1768418180650037000,4.938037109375,0.109893798828125,-1.09246826171875,0.032806396484375
1768418180660039200,4.9480390625,0.133056640625,-1.103424072265625,0.0925750732421875
1768418180670041000,4.958041015625,0.171966552734375,-1.086883544921875,0.164215087890625
1768418180680042000,4.9680419921875,0.19580078125,-1.05487060546875,0.21734619140625
1768418180690044200,4.978044189453125,0.1979217529296875,-1.0166168212890625,0.24652099609375
1768418180700045000,4.988045166015625,0.1795654296875,-0.9564056396484375,0.2594757080078125
1768418180710047000,4.998046875,0.1605377197265625,-0.8939666748046875,0.25469970703125
1768418180720049200,5.008049072265625,0.14434814453125,-0.8406982421875,0.2288818359375
1768418180730050000,5.018050048828125,0.128326416015625,-0.798095703125,0.200042724609375
1768418180740052000,5.028052001953125,0.112884521484375,-0.763885498046875,0.180328369140625
1768418180750054100,5.03805419921875,0.100433349609375,-0.741973876953125,0.1698455810546875
1768418180760055000,5.048054931640625,0.097320556640625,-0.723907470703125,0.1628875732421875
1768418180770057200,5.05805712890625,0.0941009521484375,-0.7211456298828125,0.1565704345703125
1768418180780058000,5.06805810546875,0.0958404541015625,-0.730743408203125,0.164398193359375
1768418180790060000,5.07806005859375,0.0986175537109375,-0.7544403076171875,0.1712799072265625
1768418180800062200,5.088062255859375,0.1044158935546875,-0.796173095703125,0.178192138671875
1768418180810063000,5.09806298828125,0.10723876953125,-0.8371124267578125,0.172821044921875
1768418180820065000,5.10806494140625,0.107269287109375,-0.88214111328125,0.164703369140625
1768418180830067200,5.118067138671875,0.0990447998046875,-0.9206085205078125,0.1495361328125
1768418180840068000,5.128068115234375,0.089874267578125,-0.949066162109375,0.1281585693359375
1768418180850070000,5.138070068359375,0.0806732177734375,-0.9613800048828125,0.11083984375
1768418180860071200,5.1480712890625,0.0814361572265625,-0.9638214111328125,0.091064453125
1768418180870073000,5.158072998046875,0.0885467529296875,-0.9557342529296875,0.0738067626953125
1768418180880075300,5.1680751953125,0.096771240234375,-0.9379425048828125,0.067138671875
1768418180890076200,5.178076171875,0.090301513671875,-0.921173095703125,0.06201171875
1768418180900078000,5.188078125,0.0656280517578125,-0.905181884765625,0.0558929443359375
1768418180910080300,5.198080322265625,0.0345458984375,-0.8950042724609375,0.0481414794921875
1768418180920081200,5.2080810546875,0.015869140625,-0.892913818359375,0.058807373046875
1768418180930083000,5.2180830078125,0.0034332275390625,-0.8881072998046875,0.09368896484375
1768418180940084000,5.228083984375,-0.0069122314453125,-0.8875885009765625,0.1339263916015625
1768418180950086100,5.238086181640625,-0.0065765380859375,-0.89532470703125,0.1732635498046875
1768418180960088000,5.248088134765625,0.00067138671875,-0.905029296875,0.2193450927734375
1768418180970089200,5.258089111328125,0.0055999755859375,-0.917755126953125,0.253387451171875
1768418180980091100,5.268091064453125,0.019866943359375,-0.9375,0.27520751953125
1768418180990093000,5.278093017578125,0.041839599609375,-0.9519500732421875,0.291595458984375
1768418181000094200,5.28809423828125,0.0717620849609375,-0.965179443359375,0.287017822265625
1768418181010096000,5.29809619140625,0.086456298828125,-0.977569580078125,0.256011962890625
1768418181020097000,5.308096923828125,0.1064910888671875,-0.978607177734375,0.2143096923828125
1768418181030099200,5.31809912109375,0.1067657470703125,-0.9851531982421875,0.17633056640625
1768418181040101000,5.32810107421875,0.0699310302734375,-1.0098419189453125,0.13006591796875
1768418181050102000,5.33810205078125,0.020050048828125,-1.0526580810546875,0.085418701171875
1768418181060104200,5.348104248046875,-0.0407257080078125,-1.110076904296875,0.0529022216796875
1768418181070105000,5.35810498046875,-0.100494384765625,-1.174163818359375,0.0327606201171875
1768418181080107300,5.368107177734375,-0.1470794677734375,-1.2220001220703125,0.034515380859375
1768418181090109200,5.378109130859375,-0.18194580078125,-1.2266998291015625,0.058990478515625
1768418181100110000,5.388110107421875,-0.16937255859375,-1.160552978515625,0.11444091796875
1768418181110112300,5.3981123046875,-0.1339569091796875,-1.048553466796875,0.190673828125
1768418181120114200,5.4081142578125,-0.0975189208984375,-0.95037841796875,0.238037109375
1768418181130115000,5.418114990234375,-0.0665740966796875,-0.883544921875,0.2610015869140625
1768418181140117200,5.4281171875,-0.0065155029296875,-0.8618011474609375,0.2776947021484375
1768418181150118100,5.4381181640625,0.10052490234375,-0.9090576171875,0.2866973876953125
1768418181160120000,5.4481201171875,0.240692138671875,-1.039886474609375,0.2878875732421875
1768418181170122200,5.458122314453125,0.3843536376953125,-1.2108306884765625,0.2749481201171875
1768418181180123100,5.468123046875,0.442352294921875,-1.3794708251953125,0.288055419921875
1768418181190125000,5.478125,0.4187774658203125,-1.48785400390625,0.332000732421875
1768418181200127200,5.488127197265625,0.4011688232421875,-1.5140380859375,0.3376312255859375
1768418181210128100,5.498128173828125,0.439239501953125,-1.4458465576171875,0.3353729248046875
1768418181220130300,5.50813037109375,0.496368408203125,-1.29266357421875,0.3675079345703125
1768418181230131200,5.518131103515625,0.4775543212890625,-1.1588134765625,0.328643798828125
1768418181240133000,5.528133056640625,0.399688720703125,-1.0363311767578125,0.22467041015625
1768418181250135300,5.53813525390625,0.2868194580078125,-0.9282073974609375,0.0714569091796875
1768418181260136200,5.54813623046875,0.1813507080078125,-0.829559326171875,-0.097808837890625
1768418181270138000,5.55813818359375,0.130401611328125,-0.749603271484375,-0.2506256103515625
1768418181280139300,5.56813916015625,0.1203460693359375,-0.706573486328125,-0.3524322509765625
1768418181290141200,5.57814111328125,0.1006011962890625,-0.7313690185546875,-0.3748931884765625
1768418181300143000,5.58814306640625,0.0638580322265625,-0.7972564697265625,-0.2953643798828125
1768418181310144300,5.598144287109375,0.029632568359375,-0.876434326171875,-0.1446533203125
1768418181320146200,5.608146240234375,-0.01593017578125,-0.975006103515625,0.020599365234375
1768418181330147000,5.61814697265625,-0.023284912109375,-1.0556488037109375,0.2028961181640625
1768418181340149200,5.628149169921875,0.0298004150390625,-1.1038665771484375,0.369598388671875
1768418181350151200,5.638151123046875,0.0988311767578125,-1.1440277099609375,0.464385986328125
1768418181360152000,5.648152099609375,0.159027099609375,-1.1776885986328125,0.48272705078125
1768418181370154200,5.658154296875,0.2127532958984375,-1.1908111572265625,0.4315338134765625
1768418181380156200,5.66815625,0.2584991455078125,-1.1699676513671875,0.3358612060546875
1768418181390157000,5.678156982421875,0.281585693359375,-1.112701416015625,0.2320098876953125
1768418181400159000,5.688158935546875,0.2648773193359375,-1.0291290283203125,0.1302032470703125
1768418181410159900,5.698159912109375,0.2215576171875,-0.9453582763671875,0.053466796875
1768418181420162000,5.708162109375,0.1661224365234375,-0.87847900390625,-0.0098419189453125
1768418181430164000,5.7181640625,0.1122283935546875,-0.82208251953125,-0.0692291259765625
1768418181440164900,5.728164794921875,0.0682830810546875,-0.7761688232421875,-0.105743408203125
1768418181450167000,5.7381669921875,0.0501251220703125,-0.749969482421875,-0.1245880126953125
1768418181460168000,5.74816796875,0.054046630859375,-0.738861083984375,-0.12530517578125
1768418181470169900,5.758169921875,0.0551300048828125,-0.747802734375,-0.1071929931640625
1768418181480172000,5.768172119140625,0.0491485595703125,-0.774993896484375,-0.087615966796875
1768418181490173000,5.7781728515625,0.0471954345703125,-0.810394287109375,-0.061492919921875
1768418181500174800,5.7881748046875,0.0454864501953125,-0.8513641357421875,-0.0338897705078125
1768418181510176000,5.798176025390625,0.0474090576171875,-0.8864898681640625,-0.01611328125
1768418181520178000,5.808177978515625,0.0484619140625,-0.907257080078125,-0.014617919921875
1768418181530179800,5.818179931640625,0.0436553955078125,-0.925384521484375,0.00927734375
1768418181540181000,5.828180908203125,0.04833984375,-0.9353179931640625,0.052947998046875
1768418181550183000,5.838182861328125,0.0716400146484375,-0.93658447265625,0.081573486328125
1768418181560184800,5.848184814453125,0.0764923095703125,-0.9291229248046875,0.1025848388671875
1768418181570186000,5.85818603515625,0.0683441162109375,-0.9156494140625,0.11346435546875
1768418181580188000,5.86818798828125,0.0562744140625,-0.9058380126953125,0.11962890625
1768418181590188800,5.878188720703125,0.042999267578125,-0.899871826171875,0.11102294921875
1768418181600191000,5.88819091796875,0.015777587890625,-0.901214599609375,0.0977935791015625
1768418181610193000,5.89819287109375,-0.0215911865234375,-0.9106597900390625,0.0873565673828125
1768418181620194000,5.908194091796875,-0.0578460693359375,-0.9226226806640625,0.0778656005859375
1768418181630196000,5.918196044921875,-0.07623291015625,-0.934234619140625,0.069000244140625
1768418181640196900,5.92819677734375,-0.086395263671875,-0.944305419921875,0.067291259765625
1768418181650199000,5.938198974609375,-0.0832977294921875,-0.9567108154296875,0.070770263671875
1768418181660201000,5.948200927734375,-0.0676116943359375,-0.9659576416015625,0.0731353759765625
1768418181670201900,5.958201904296875,-0.0623321533203125,-0.9693145751953125,0.0810394287109375
1768418181680204000,5.9682041015625,-0.053863525390625,-0.967254638671875,0.0882415771484375
1768418181690205000,5.978204833984375,-0.0379638671875,-0.9559478759765625,0.0881195068359375
1768418181700206800,5.988206787109375,0.003448486328125,-0.9294586181640625,0.0811614990234375
1768418181710208800,5.998208740234375,0.028350830078125,-0.8933868408203125,0.0794830322265625
1768418181720210000,6.0082099609375,-0.055816650390625,-0.8851776123046875,0.0997772216796875
1768418181730211800,6.0182119140625,-0.211700439453125,-0.9380340576171875,0.1329193115234375
1768418181740213000,6.028212890625,-0.2820281982421875,-1.042633056640625,0.1636962890625
1768418181750215000,6.03821484375,-0.25628662109375,-1.18121337890625,0.1898956298828125
1768418181760216800,6.048216796875,-0.2090911865234375,-1.3007965087890625,0.1930084228515625
1768418181770218000,6.058218017578125,-0.183746337890625,-1.331695556640625,0.16796875
1768418181780220000,6.068219970703125,-0.1769256591796875,-1.268768310546875,0.142913818359375
1768418181790220800,6.078220703125,-0.171173095703125,-1.1728363037109375,0.1200103759765625
1768418181800223000,6.088222900390625,-0.126434326171875,-1.0957489013671875,0.0989990234375
1768418181810225000,6.098224853515625,-0.0435638427734375,-1.08837890625,0.06488037109375
1768418181820226000,6.10822607421875,0.0387725830078125,-1.1620025634765625,0.0072479248046875
1768418181830228000,6.11822802734375,0.1091461181640625,-1.276092529296875,-0.0301055908203125
1768418181840228900,6.128228759765625,0.1493072509765625,-1.4137420654296875,-0.00311279296875
1768418181850231000,6.13823095703125,0.1922149658203125,-1.5340423583984375,0.051727294921875
1768418181860232700,6.148232666015625,0.2552490234375,-1.50115966796875,0.0243682861328125
1768418181870233900,6.15823388671875,0.3379669189453125,-1.310089111328125,-0.0994873046875
1768418181880236000,6.168236083984375,0.3742218017578125,-1.19110107421875,-0.1419525146484375
1768418181890237000,6.17823681640625,0.22796630859375,-1.1403656005859375,-0.1308135986328125
1768418181900238800,6.18823876953125,0.0729827880859375,-1.076416015625,-0.0908660888671875
1768418181910240800,6.19824072265625,0.06451416015625,-1.004791259765625,-0.0236663818359375
1768418181920242000,6.208241943359375,0.12109375,-0.9703216552734375,0.05450439453125
1768418181930243800,6.218243896484375,0.1800537109375,-0.9433135986328125,0.14617919921875
1768418181940245000,6.228244873046875,0.2702484130859375,-0.9205780029296875,0.205810546875
1768418181950247000,6.238246826171875,0.3629302978515625,-0.9261016845703125,0.252593994140625
1768418181960248800,6.248248779296875,0.4085693359375,-0.96258544921875,0.2676544189453125
1768418181970250000,6.25825,0.3973388671875,-0.997222900390625,0.240325927734375
1768418181980252000,6.268251953125,0.3641204833984375,-0.9919586181640625,0.17730712890625
1768418181990252800,6.278252685546875,0.3538665771484375,-0.962554931640625,0.1018524169921875
1768418182000255000,6.2882548828125,0.34881591796875,-0.941619873046875,0.04400634765625
1768418182010256600,6.298256591796875,0.31378173828125,-0.9300537109375,0.0001678466796875
1768418182020258000,6.308258056640625,0.2548675537109375,-0.919189453125,-0.033233642578125
1768418182030260000,6.318260009765625,0.1980133056640625,-0.9022064208984375,-0.0538330078125
1768418182040260900,6.3282607421875,0.159423828125,-0.892730712890625,-0.0723876953125
1768418182050263000,6.338262939453125,0.1393890380859375,-0.8934478759765625,-0.089508056640625
1768418182060264700,6.3482646484375,0.1268310546875,-0.895050048828125,-0.1021728515625
1768418182070265900,6.358265869140625,0.1256561279296875,-0.897552490234375,-0.0799560546875
1768418182080268000,6.36826806640625,0.1493988037109375,-0.8990020751953125,-0.0350341796875
1768418182090269000,6.37826904296875,0.163818359375,-0.897186279296875,0.0443878173828125
1768418182100270800,6.388270751953125,0.1730194091796875,-0.89111328125,0.13140869140625
1768418182110272800,6.398272705078125,0.196807861328125,-0.8697509765625,0.177215576171875
1768418182120274000,6.40827392578125,0.220733642578125,-0.8273162841796875,0.2139892578125
1768418182130275800,6.41827587890625,0.224090576171875,-0.791748046875,0.23443603515625
1768418182140277000,6.428277099609375,0.240234375,-0.7650909423828125,0.2339324951171875
1768418182150279000,6.43827880859375,0.2554779052734375,-0.7444610595703125,0.2545013427734375
1768418182160280800,6.44828076171875,0.23040771484375,-0.7500762939453125,0.2658843994140625
1768418182170282000,6.458281982421875,0.1871490478515625,-0.76605224609375,0.2537994384765625
1768418182180284000,6.468283935546875,0.157562255859375,-0.795379638671875,0.2385406494140625
1768418182190284800,6.478284912109375,0.1417236328125,-0.8330078125,0.22943115234375
1768418182200287000,6.488286865234375,0.1383514404296875,-0.8709869384765625,0.2194671630859375
1768418182210288600,6.49828857421875,0.1433563232421875,-0.8895111083984375,0.210662841796875
1768418182220290000,6.5082900390625,0.1501007080078125,-0.8865814208984375,0.1764373779296875
1768418182230292000,6.5182919921875,0.1450347900390625,-0.8813629150390625,0.1448516845703125
1768418182240292900,6.52829296875,0.133148193359375,-0.872772216796875,0.123779296875
1768418182250295000,6.538294921875,0.1254425048828125,-0.8751373291015625,0.1168365478515625
1768418182260296700,6.548296630859375,0.122161865234375,-0.894073486328125,0.1259765625
1768418182270297900,6.5582978515625,0.1181640625,-0.92864990234375,0.1348419189453125
1768418182280299800,6.5682998046875,0.114471435546875,-0.9585113525390625,0.143768310546875
1768418182290301000,6.578301025390625,0.104400634765625,-0.9789886474609375,0.144439697265625
1768418182300302800,6.588302734375,0.085540771484375,-0.9872589111328125,0.1343841552734375
1768418182310304800,6.5983046875,0.06610107421875,-0.9866790771484375,0.115814208984375
1768418182320306000,6.608305908203125,0.04876708984375,-0.98211669921875,0.0941925048828125
1768418182330307800,6.618307861328125,0.03692626953125,-0.97015380859375,0.080535888671875
1768418182340309000,6.62830908203125,0.0314178466796875,-0.9544525146484375,0.074798583984375
1768418182350311000,6.638310791015625,0.019622802734375,-0.9264984130859375,0.08673095703125
1768418182360312800,6.648312744140625,0.0141754150390625,-0.9068603515625,0.126861572265625
1768418182370314000,6.65831396484375,0.0244598388671875,-0.9073486328125,0.1604461669921875
1768418182380316000,6.66831591796875,0.0394744873046875,-0.91326904296875,0.1938934326171875
1768418182390317000,6.678317138671875,0.066070556640625,-0.9308624267578125,0.210357666015625
1768418182400319000,6.688319091796875,0.100982666015625,-0.95654296875,0.20733642578125
1768418182410319400,6.6983193359375,0.149993896484375,-0.9918212890625,0.178802490234375
1768418182420321500,6.708321533203125,0.1829986572265625,-1.0346221923828125,0.1602630615234375
1768418182430323500,6.718323486328125,0.146759033203125,-1.0664215087890625,0.150482177734375
1768418182440324600,6.72832470703125,0.060943603515625,-1.094940185546875,0.13250732421875
1768418182450326500,6.738326416015625,-0.040496826171875,-1.1386566162109375,0.1090545654296875
1768418182460327400,6.748327392578125,-0.1183929443359375,-1.1982879638671875,0.0797576904296875
1768418182470329600,6.75832958984375,-0.151611328125,-1.2479095458984375,0.0450439453125
1768418182480331500,6.76833154296875,-0.1346282958984375,-1.2526092529296875,0.006317138671875
1768418182490332400,6.77833251953125,-0.054656982421875,-1.20904541015625,-0.00897216796875
1768418182500334600,6.78833447265625,0.0708465576171875,-1.1497955322265625,0.03582763671875
1768418182510335500,6.79833544921875,0.2122039794921875,-1.122222900390625,0.1450042724609375
1768418182520337400,6.80833740234375,0.3413238525390625,-1.1377716064453125,0.30999755859375
1768418182530339600,6.818339599609375,0.4040985107421875,-1.1808929443359375,0.4792938232421875
1768418182540340500,6.828340576171875,0.4662322998046875,-1.2545013427734375,0.5572967529296875
1768418182550342400,6.83834228515625,0.5802764892578125,-1.3031768798828125,0.5726318359375
1768418182560343600,6.848343505859375,0.6984405517578125,-1.2730560302734375,0.57586669921875
1768418182570345500,6.858345458984375,0.7734832763671875,-1.2298736572265625,0.47369384765625
1768418182580347600,6.86834765625,0.7282562255859375,-1.181610107421875,0.2819061279296875
1768418182590348500,6.8783486328125,0.58233642578125,-1.12274169921875,0.054290771484375
1768418182600350500,6.8883505859375,0.4201812744140625,-1.0575408935546875,-0.1822052001953125
1768418182610351400,6.898351318359375,0.2897491455078125,-0.9870452880859375,-0.3700714111328125
1768418182620353500,6.908353515625,0.163970947265625,-0.917266845703125,-0.436004638671875
1768418182630354400,6.9183544921875,0.0006561279296875,-0.837799072265625,-0.3815765380859375
1768418182640356600,6.928356689453125,-0.1097564697265625,-0.77606201171875,-0.2178497314453125
1768418182650358500,6.938358642578125,-0.1160736083984375,-0.7630157470703125,0.0191497802734375
1768418182660359400,6.948359375,-0.051422119140625,-0.808502197265625,0.2475738525390625
1768418182670361600,6.958361572265625,0.0659637451171875,-0.8792266845703125,0.425628662109375
1768418182680362500,6.968362548828125,0.2082672119140625,-0.9439697265625,0.546417236328125
1768418182690364400,6.978364501953125,0.33746337890625,-1.0066680908203125,0.5871429443359375
1768418182700366600,6.98836669921875,0.4332275390625,-1.062896728515625,0.536712646484375
1768418182710367500,6.998367431640625,0.471221923828125,-1.0952606201171875,0.3994140625
1768418182720369400,7.008369384765625,0.465057373046875,-1.1013031005859375,0.22943115234375
1768418182730370600,7.01837060546875,0.432403564453125,-1.0754241943359375,0.0818328857421875
1768418182740372500,7.02837255859375,0.3614654541015625,-1.0297088623046875,-0.036163330078125
1768418182750373400,7.038373291015625,0.2718505859375,-0.973114013671875,-0.134429931640625
1768418182760375600,7.04837548828125,0.197509765625,-0.9004974365234375,-0.1986541748046875
1768418182770377500,7.05837744140625,0.150787353515625,-0.84033203125,-0.245361328125
1768418182780378400,7.06837841796875,0.112335205078125,-0.8007965087890625,-0.2788848876953125
1768418182790380500,7.078380615234375,0.090057373046875,-0.7713623046875,-0.271026611328125
1768418182800381400,7.08838134765625,0.0696868896484375,-0.7597503662109375,-0.23187255859375
1768418182810383400,7.09838330078125,0.055877685546875,-0.761993408203125,-0.1818389892578125
1768418182820385500,7.108385498046875,0.05572509765625,-0.778594970703125,-0.127716064453125
1768418182830386400,7.118386474609375,0.0543060302734375,-0.8082427978515625,-0.0756988525390625
1768418182840388600,7.128388671875,0.042938232421875,-0.84271240234375,-0.038482666015625
1768418182850389500,7.138389404296875,0.0475921630859375,-0.87030029296875,-0.0009613037109375
1768418182860391400,7.148391357421875,0.0615081787109375,-0.8903350830078125,0.0361480712890625
1768418182870392300,7.158392333984375,0.0796966552734375,-0.891387939453125,0.072113037109375
1768418182880394500,7.16839453125,0.10272216796875,-0.8795623779296875,0.0930023193359375
1768418182890396400,7.178396484375,0.123504638671875,-0.8654327392578125,0.1038055419921875
1768418182900397600,7.1883974609375,0.1320648193359375,-0.8486328125,0.1092987060546875
1768418182910399500,7.1983994140625,0.125579833984375,-0.8391876220703125,0.1087799072265625
1768418182920400400,7.208400390625,0.1058197021484375,-0.8383026123046875,0.097808837890625
1768418182930402600,7.218402587890625,0.08026123046875,-0.8498992919921875,0.0876007080078125
1768418182940404500,7.228404541015625,0.0449981689453125,-0.8753509521484375,0.07861328125
1768418182950405400,7.2384052734375,-0.0011444091796875,-0.90240478515625,0.0750885009765625
1768418182960407600,7.248407470703125,-0.043975830078125,-0.923492431640625,0.0851287841796875
1768418182970408400,7.258408447265625,-0.059539794921875,-0.9360809326171875,0.10968017578125
1768418182980410400,7.268410400390625,-0.050140380859375,-0.9456024169921875,0.1365203857421875
1768418182990411500,7.27841162109375,-0.030792236328125,-0.9579010009765625,0.14874267578125
1768418183000413400,7.288413330078125,-0.0193939208984375,-0.974853515625,0.1418304443359375
1768418183010415400,7.298415283203125,0.0012359619140625,-0.9877777099609375,0.1176910400390625
1768418183020416500,7.30841650390625,0.0563201904296875,-0.9843292236328125,0.0800933837890625
1768418183030418400,7.31841845703125,0.1530609130859375,-0.9377593994140625,0.03125
1768418183040419300,7.32841943359375,0.1447906494140625,-0.8862762451171875,0.0232696533203125
1768418183050421500,7.33842138671875,-0.06878662109375,-0.91033935546875,0.0949554443359375
1768418183060423400,7.34842333984375,-0.230865478515625,-1.0104522705078125,0.1759796142578125
1768418183070424300,7.35842431640625,-0.2315673828125,-1.1563720703125,0.267578125
1768418183080426500,7.368426513671875,-0.1768951416015625,-1.2948150634765625,0.3531646728515625
1768418183090427400,7.378427490234375,-0.1016082763671875,-1.3443145751953125,0.3794097900390625
1768418183100429600,7.3884296875,-0.0629425048828125,-1.290313720703125,0.360198974609375
1768418183110430500,7.398430419921875,-0.0355072021484375,-1.19696044921875,0.3147125244140625
1768418183120432400,7.408432373046875,0.021148681640625,-1.124298095703125,0.2429351806640625
1768418183130434600,7.4184345703125,0.104034423828125,-1.1151123046875,0.17059326171875
1768418183140435500,7.428435546875,0.211822509765625,-1.1873779296875,0.0836029052734375
1768418183150437400,7.438437255859375,0.288330078125,-1.295196533203125,0.0118560791015625
1768418183160438500,7.4484384765625,0.28582763671875,-1.389434814453125,-0.0034332275390625
1768418183170440400,7.4584404296875,0.2577972412109375,-1.432403564453125,-0.003814697265625
1768418183180441300,7.46844140625,0.274505615234375,-1.343017578125,-0.0917510986328125
1768418183190443500,7.478443603515625,0.325958251953125,-1.200531005859375,-0.1842193603515625
1768418183200445400,7.488445556640625,0.2801666259765625,-1.1387939453125,-0.184234619140625
1768418183210446300,7.4984462890625,0.1829833984375,-1.060943603515625,-0.1151123046875
1768418183220448500,7.508448486328125,0.1344146728515625,-0.9549560546875,-0.0139923095703125
1768418183230449400,7.518449462890625,0.153900146484375,-0.8934173583984375,0.057281494140625
1768418183240451300,7.528451416015625,0.23431396484375,-0.8702850341796875,0.0992279052734375
1768418183250453500,7.53845361328125,0.356964111328125,-0.85498046875,0.1318359375
1768418183260454400,7.548454345703125,0.4570465087890625,-0.8927001953125,0.172882080078125
1768418183270456300,7.558456298828125,0.4964599609375,-0.999969482421875,0.1925506591796875
1768418183280457500,7.56845751953125,0.522003173828125,-1.0812835693359375,0.161224365234375
1768418183290459400,7.57845947265625,0.525482177734375,-1.080230712890625,0.0877685546875
1768418183300460300,7.588460205078125,0.5200653076171875,-1.0538330078125,0.001556396484375
1768418183310462500,7.59846240234375,0.4816131591796875,-1.06036376953125,-0.0577392578125
1768418183320464400,7.60846435546875,0.4093017578125,-1.070709228515625,-0.0878448486328125
1768418183330465300,7.61846533203125,0.3325042724609375,-1.043914794921875,-0.0927276611328125
1768418183340467500,7.628467529296875,0.2510986328125,-1.0045013427734375,-0.0969085693359375
1768418183350468400,7.63846826171875,0.19244384765625,-0.965850830078125,-0.106719970703125
1768418183360470500,7.648470458984375,0.1730499267578125,-0.9441375732421875,-0.098968505859375
1768418183370471400,7.658471435546875,0.1608123779296875,-0.9249267578125,-0.084320068359375
1768418183380473300,7.668473388671875,0.1633453369140625,-0.905303955078125,-0.0585479736328125
1768418183390475500,7.6784755859375,0.171661376953125,-0.87542724609375,-0.012939453125
1768418183400476400,7.688476318359375,0.183380126953125,-0.8397674560546875,0.0496673583984375
1768418183410478300,7.698478271484375,0.2004547119140625,-0.803192138671875,0.129730224609375
1768418183420479200,7.708479248046875,0.2184295654296875,-0.7660369873046875,0.206695556640625
1768418183430481200,7.718481201171875,0.25433349609375,-0.734161376953125,0.257415771484375
1768418183440482300,7.728482421875,0.2787322998046875,-0.7149200439453125,0.2856292724609375
1768418183450484200,7.738484130859375,0.2685089111328125,-0.7029266357421875,0.2728424072265625
1768418183460486400,7.748486328125,0.2703857421875,-0.6954345703125,0.2584991455078125
1768418183470487300,7.7584873046875,0.2701568603515625,-0.7139739990234375,0.256591796875
1768418183480489200,7.7684892578125,0.2498321533203125,-0.751220703125,0.2606353759765625
1768418183490490000,7.778489990234375,0.2183380126953125,-0.787322998046875,0.271087646484375
1768418183500492300,7.7884921875,0.19390869140625,-0.825592041015625,0.2681732177734375
1768418183510493200,7.7984931640625,0.179779052734375,-0.85418701171875,0.2575225830078125
1768418183520495400,7.808495361328125,0.168670654296875,-0.8748626708984375,0.24957275390625
1768418183530497300,7.818497314453125,0.15899658203125,-0.8783111572265625,0.2373504638671875
1768418183540498200,7.828498291015625,0.15289306640625,-0.87420654296875,0.2136688232421875
1768418183550500400,7.838500244140625,0.149566650390625,-0.875579833984375,0.179046630859375
1768418183560501200,7.848501220703125,0.1553192138671875,-0.8802947998046875,0.1356201171875
1768418183570503200,7.858503173828125,0.1528778076171875,-0.8821563720703125,0.09637451171875
1768418183580504300,7.86850439453125,0.139404296875,-0.88409423828125,0.0670166015625
1768418183590506200,7.87850634765625,0.1165771484375,-0.8843994140625,0.0520782470703125
1768418183600508200,7.888508056640625,0.0936279296875,-0.880615234375,0.0534515380859375
1768418183610509300,7.89850927734375,0.0791778564453125,-0.8783721923828125,0.064727783203125
1768418183620511200,7.90851123046875,0.0812225341796875,-0.889251708984375,0.0747528076171875
1768418183630512000,7.91851220703125,0.081085205078125,-0.904052734375,0.0891571044921875
1768418183640514300,7.928514404296875,0.07568359375,-0.9239349365234375,0.105987548828125
1768418183650515200,7.93851513671875,0.0808258056640625,-0.9456787109375,0.1298980712890625
1768418183660517000,7.94851708984375,0.1147308349609375,-0.96881103515625,0.1598358154296875
1768418183670519300,7.958519287109375,0.1688385009765625,-0.99432373046875,0.1904296875
1768418183680520200,7.968520263671875,0.209259033203125,-1.0143585205078125,0.21771240234375
1768418183690522000,7.978522216796875,0.2312774658203125,-1.020782470703125,0.2337188720703125
1768418183700523300,7.988523193359375,0.2529754638671875,-0.9940643310546875,0.246307373046875
1768418183710525200,7.998525146484375,0.2382049560546875,-0.9661865234375,0.248504638671875
1768418183720526300,8.0085263671875,0.1664581298828125,-0.9699554443359375,0.2422027587890625
1768418183730528300,8.0185283203125,0.071502685546875,-1.0156402587890625,0.243988037109375
1768418183740530200,8.0285302734375,-0.0041351318359375,-1.0898895263671875,0.2413330078125
1768418183750531000,8.038531005859374,-0.0519561767578125,-1.1655731201171875,0.216796875
1768418183760533200,8.048533203125,-0.0499267578125,-1.2050323486328125,0.176788330078125
1768418183770534400,8.058534423828124,0.022186279296875,-1.19281005859375,0.1361541748046875
1768418183780536300,8.068536376953125,0.1494293212890625,-1.150909423828125,0.1263885498046875
1768418183790537500,8.078537353515625,0.2784271240234375,-1.1163330078125,0.169830322265625
1768418183800539100,8.0885390625,0.39617919921875,-1.1241607666015625,0.2637786865234375
1768418183810541300,8.098541259765625,0.5071868896484375,-1.192901611328125,0.342742919921875
1768418183820542200,8.108542236328125,0.5973358154296875,-1.3042144775390625,0.3555145263671875
1768418183830544100,8.118544189453125,0.6468505859375,-1.3828125,0.33428955078125
1768418183840545500,8.128545654296875,0.6291961669921875,-1.4242706298828125,0.2994537353515625
1768418183850547200,8.138547119140625,0.6527557373046875,-1.374847412109375,0.2489776611328125
1768418183860548400,8.14854833984375,0.667083740234375,-1.26336669921875,0.134002685546875
1768418183870550300,8.15855029296875,0.5746917724609375,-1.1205902099609375,-0.016754150390625
1768418183880552200,8.16855224609375,0.4637451171875,-0.9636688232421875,-0.1849365234375
1768418183890553300,8.17855322265625,0.3683624267578125,-0.8411407470703125,-0.3331756591796875
1768418183900555300,8.18855517578125,0.28533935546875,-0.7901153564453125,-0.4188079833984375
1768418183910556400,8.198556396484374,0.212127685546875,-0.798309326171875,-0.4266815185546875
1768418183920558300,8.208558349609374,0.1582489013671875,-0.8471832275390625,-0.333526611328125
1768418183930559500,8.2185595703125,0.1265716552734375,-0.90960693359375,-0.1417388916015625
1768418183940561400,8.2285615234375,0.10894775390625,-0.9631805419921875,0.0776214599609375
1768418183950563000,8.23856298828125,0.118438720703125,-1.00762939453125,0.267486572265625
1768418183960564500,8.248564453125,0.1720123291015625,-1.0523529052734375,0.39117431640625
1768418183970566400,8.25856640625,0.254974365234375,-1.0883331298828125,0.4302215576171875
1768418183980567300,8.2685673828125,0.322845458984375,-1.09197998046875,0.39617919921875
1768418183990569500,8.278569580078125,0.3500518798828125,-1.0896453857421875,0.3032073974609375
1768418184000570400,8.2885703125,0.3598175048828125,-1.0782928466796875,0.19342041015625
1768418184010572300,8.298572265625,0.3703765869140625,-1.0482635498046875,0.0921783447265625
1768418184020573400,8.308573486328125,0.35992431640625,-1.0049591064453125,0.01690673828125
1768418184030575400,8.318575439453125,0.3252410888671875,-0.9577178955078125,-0.0317840576171875
1768418184040577500,8.32857763671875,0.272186279296875,-0.906768798828125,-0.067779541015625
1768418184050578400,8.338578369140626,0.2271728515625,-0.85845947265625,-0.0992431640625
1768418184060580400,8.348580322265626,0.1987152099609375,-0.8218994140625,-0.125457763671875
1768418184070581200,8.358581298828126,0.1790313720703125,-0.7967071533203125,-0.139373779296875
1768418184080583400,8.36858349609375,0.154205322265625,-0.7802734375,-0.1360931396484375
1768418184090584300,8.378584228515624,0.1255950927734375,-0.7649383544921875,-0.1178741455078125
1768418184100586500,8.38858642578125,0.1099395751953125,-0.7568511962890625,-0.0898895263671875
1768418184110587400,8.39858740234375,0.098358154296875,-0.75384521484375,-0.061492919921875
1768418184120589300,8.40858935546875,0.08447265625,-0.7549285888671875,-0.03948974609375
1768418184130591500,8.418591552734375,0.073272705078125,-0.75885009765625,-0.018829345703125
1768418184140592400,8.42859228515625,0.0743408203125,-0.771453857421875,0.0024261474609375
1768418184150594300,8.43859423828125,0.0721435546875,-0.789459228515625,0.01837158203125
1768418184160595500,8.448595458984375,0.0746612548828125,-0.8045501708984375,0.0321044921875
1768418184170597400,8.458597412109375,0.0790557861328125,-0.8212738037109375,0.0363006591796875
1768418184180598300,8.468598388671875,0.07733154296875,-0.8363037109375,0.0417022705078125
1768418184190600400,8.478600341796875,0.0762481689453125,-0.845916748046875,0.0449066162109375
1768418184200602400,8.488602294921876,0.071197509765625,-0.847381591796875,0.0430908203125
1768418184210603300,8.498603271484376,0.0697174072265625,-0.8412017822265625,0.04840087890625
1768418184220605400,8.50860546875,0.0772857666015625,-0.8320159912109375,0.0681304931640625
1768418184230606300,8.5186064453125,0.073516845703125,-0.8248138427734375,0.100494384765625
1768418184240608300,8.528608154296874,0.0559539794921875,-0.824554443359375,0.131500244140625
1768418184250609400,8.538609375,0.0371856689453125,-0.8373565673828125,0.1582489013671875
1768418184260611300,8.548611328125,0.017364501953125,-0.8691558837890625,0.1726837158203125
1768418184270612200,8.5586123046875,-0.0123748779296875,-0.91253662109375,0.1828460693359375
1768418184280614400,8.568614501953125,-0.0309600830078125,-0.9626312255859375,0.1857757568359375
1768418184290616300,8.5786162109375,-0.0116424560546875,-1.01434326171875,0.175872802734375
1768418184300617200,8.5886171875,0.0391693115234375,-1.055023193359375,0.1504364013671875
1768418184310619400,8.598619384765625,0.1259002685546875,-1.0597686767578125,0.10211181640625
1768418184320620300,8.608620361328125,0.1608428955078125,-1.0460968017578125,0.0583343505859375
1768418184330622200,8.618622314453125,-0.0142364501953125,-1.079864501953125,0.0787353515625
1768418184340623400,8.628623291015625,-0.2239532470703125,-1.1506500244140625,0.123321533203125
1768418184350625300,8.638625244140625,-0.2666168212890625,-1.275360107421875,0.1756134033203125
1768418184360626200,8.648626220703125,-0.2137298583984375,-1.3930511474609375,0.239532470703125
1768418184370628400,8.65862841796875,-0.169891357421875,-1.36724853515625,0.25885009765625
1768418184380630300,8.66863037109375,-0.1420135498046875,-1.1992340087890625,0.229766845703125
1768418184390631200,8.678631103515626,-0.1122589111328125,-0.98876953125,0.2090911865234375
1768418184400633300,8.68863330078125,-0.0406494140625,-0.9033660888671875,0.2110595703125
1768418184410635300,8.69863525390625,0.1085052490234375,-1.0316314697265625,0.1662750244140625
1768418184420637200,8.70863720703125,0.292694091796875,-1.2596282958984375,0.0662384033203125
1768418184430638000,8.71863818359375,0.4132537841796875,-1.494873046875,-0.014129638671875
1768418184440640300,8.72864013671875,0.4731292724609375,-1.62799072265625,-0.1079254150390625
1768418184450642200,8.73864208984375,0.55767822265625,-1.587738037109375,-0.2735137939453125
1768418184460643300,8.748643310546875,0.517669677734375,-1.4807891845703125,-0.3419952392578125
1768418184470645200,8.758645263671875,0.3727264404296875,-1.37835693359375,-0.2601165771484375
1768418184480646100,8.768646240234375,0.2931060791015625,-1.2713165283203125,-0.177978515625
1768418184490648300,8.7786484375,0.25244140625,-1.0866546630859375,-0.10052490234375
1768418184500649200,8.788649169921875,0.260833740234375,-0.8927001953125,-0.0016326904296875
1768418184510651100,8.798651123046875,0.299072265625,-0.778411865234375,0.105621337890625
1768418184520652300,8.80865234375,0.354949951171875,-0.7418670654296875,0.2165069580078125
1768418184530654200,8.818654296875,0.41204833984375,-0.7852783203125,0.301910400390625
1768418184540655000,8.828655029296876,0.445465087890625,-0.8909454345703125,0.35699462890625
1768418184550657300,8.8386572265625,0.4730987548828125,-0.967041015625,0.3593292236328125
1768418184560659200,8.8486591796875,0.4958648681640625,-0.954864501953125,0.2946929931640625
1768418184570660000,8.85866015625,0.5115203857421875,-0.957550048828125,0.171051025390625
1768418184580662300,8.868662353515624,0.5221710205078125,-0.9955291748046875,0.05035400390625
1768418184590663200,8.8786630859375,0.4819793701171875,-1.050445556640625,-0.0476226806640625
1768418184600665000,8.8886650390625,0.386138916015625,-1.045379638671875,-0.109130859375
1768418184610666200,8.898666259765625,0.2989501953125,-0.9976806640625,-0.131072998046875
1768418184620668200,8.908668212890625,0.215362548828125,-0.941192626953125,-0.1363677978515625
1768418184630670000,8.918670166015625,0.1725006103515625,-0.903411865234375,-0.1422882080078125
1768418184640671200,8.928671142578125,0.1630096435546875,-0.9000244140625,-0.1563568115234375
1768418184650673200,8.938673095703125,0.166046142578125,-0.896942138671875,-0.1379547119140625
1768418184660674000,8.948674072265625,0.169921875,-0.885711669921875,-0.0914154052734375
1768418184670676200,8.95867626953125,0.186187744140625,-0.867095947265625,-0.005950927734375
1768418184680677000,8.968677001953125,0.1920013427734375,-0.8446807861328125,0.0841217041015625
1768418184690679000,8.978678955078125,0.1973419189453125,-0.81488037109375,0.1549835205078125
1768418184700680200,8.98868017578125,0.21478271484375,-0.7791595458984375,0.2028961181640625
1768418184710682000,8.99868212890625,0.2370147705078125,-0.7428131103515625,0.2340087890625
1768418184720684300,9.008684326171876,0.2549896240234375,-0.7169647216796875,0.253326416015625
1768418184730685200,9.018685302734376,0.2481536865234375,-0.702880859375,0.259124755859375
1768418184740687000,9.02868701171875,0.227783203125,-0.69427490234375,0.2708587646484375
1768418184750688000,9.03868798828125,0.2143402099609375,-0.6994171142578125,0.27716064453125
1768418184760690200,9.048690185546874,0.19500732421875,-0.7191009521484375,0.2835235595703125
1768418184770691000,9.058691162109374,0.17169189453125,-0.7547607421875,0.2905120849609375
1768418184780693200,9.068693359375,0.1582489013671875,-0.80914306640625,0.2847900390625
1768418184790694100,9.078694091796875,0.15460205078125,-0.85589599609375,0.2715301513671875
1768418184800696000,9.088696044921875,0.1417083740234375,-0.895477294921875,0.26141357421875
1768418184810698200,9.0986982421875,0.1418304443359375,-0.9256439208984375,0.2391815185546875
1768418184820699100,9.10869921875,0.1522674560546875,-0.9334259033203125,0.215179443359375
1768418184830701000,9.118701171875,0.160247802734375,-0.9393157958984375,0.1907806396484375
1768418184840702200,9.1287021484375,0.1623077392578125,-0.9463653564453125,0.16656494140625
1768418184850704100,9.1387041015625,0.153289794921875,-0.95489501953125,0.1599578857421875
1768418184860705000,9.148705078125,0.131103515625,-0.9686737060546875,0.166290283203125
1768418184870707200,9.158707275390626,0.113067626953125,-0.9736175537109375,0.177581787109375
1768418184880708000,9.1687080078125,0.099456787109375,-0.9677581787109375,0.1884918212890625
1768418184890710000,9.1787099609375,0.0880279541015625,-0.9580078125,0.1834869384765625
1768418184900712200,9.188712158203124,0.0725250244140625,-0.94415283203125,0.161651611328125
1768418184910713000,9.198713134765624,0.0565643310546875,-0.927764892578125,0.1417236328125
1768418184920715000,9.208715087890624,0.0478363037109375,-0.91162109375,0.129150390625
1768418184930716200,9.218716064453124,0.05010986328125,-0.90142822265625,0.1366729736328125
1768418184940718000,9.228718017578124,0.069091796875,-0.8973388671875,0.16387939453125
1768418184950719200,9.23871923828125,0.1053009033203125,-0.8961029052734375,0.20794677734375
1768418184960721200,9.24872119140625,0.159576416015625,-0.8804931640625,0.255126953125
1768418184970722300,9.258722412109375,0.2367095947265625,-0.85760498046875,0.281585693359375
1768418184980724200,9.26872412109375,0.3024444580078125,-0.8344879150390625,0.2976837158203125
1768418184990725400,9.278725341796875,0.2676239013671875,-0.84588623046875,0.3056182861328125
1768418185000727300,9.288727294921875,0.140533447265625,-0.9235382080078125,0.2678680419921875
1768418185010729000,9.29872900390625,0.0287628173828125,-1.038543701171875,0.2242889404296875
1768418185020730400,9.30873046875,-0.034088134765625,-1.1411285400390625,0.1996612548828125
1768418185030732000,9.31873193359375,-0.083709716796875,-1.2238922119140625,0.175994873046875
1768418185040733200,9.328733154296875,-0.1129913330078125,-1.2779083251953125,0.1412200927734375
1768418185050735400,9.3387353515625,-0.1152801513671875,-1.273193359375,0.0979156494140625
1768418185060736300,9.348736328125,-0.062957763671875,-1.198028564453125,0.0814056396484375
1768418185070738200,9.35873828125,0.050445556640625,-1.0986328125,0.1198577880859375
1768418185080739300,9.3687392578125,0.1777496337890625,-1.079498291015625,0.1477508544921875
1768418185090741200,9.3787412109375,0.3264617919921875,-1.130706787109375,0.2007904052734375
1768418185100743200,9.3887431640625,0.483489990234375,-1.228240966796875,0.2916259765625
1768418185110744300,9.398744384765624,0.5843963623046875,-1.3285369873046875,0.37506103515625
1768418185120746200,9.408746337890625,0.5592041015625,-1.4291229248046875,0.40264892578125
1768418185130747100,9.4187470703125,0.5679168701171875,-1.472869873046875,0.3076019287109375
1768418185140749300,9.428749267578125,0.673797607421875,-1.4420928955078125,0.1989288330078125
1768418185150750200,9.438750244140625,0.71685791015625,-1.340362548828125,0.1197052001953125
1768418185160752400,9.44875244140625,0.6340179443359375,-1.162841796875,0.014801025390625
1768418185170753300,9.458753173828125,0.5008087158203125,-0.974884033203125,-0.1000518798828125
1768418185180755200,9.468755126953125,0.3541107177734375,-0.8298797607421875,-0.19329833984375
1768418185190757400,9.47875732421875,0.224090576171875,-0.7489166259765625,-0.26763916015625
1768418185200758300,9.48875830078125,0.1303253173828125,-0.73236083984375,-0.29815673828125
1768418185210760200,9.49876025390625,0.07159423828125,-0.7477569580078125,-0.2459716796875
1768418185220761300,9.50876123046875,0.04754638671875,-0.7777252197265625,-0.11334228515625
1768418185230763300,9.51876318359375,0.044647216796875,-0.8163604736328125,0.0522308349609375
1768418185240764200,9.52876416015625,0.0554962158203125,-0.871856689453125,0.2090606689453125
1768418185250766300,9.538766357421874,0.087890625,-0.9403839111328125,0.341705322265625
1768418185260767200,9.548767333984374,0.14788818359375,-1.010589599609375,0.4511871337890625
1768418185270769200,9.55876904296875,0.2255096435546875,-1.06402587890625,0.50616455078125
1768418185280771300,9.568771240234375,0.282623291015625,-1.0885162353515625,0.481689453125
1768418185290772200,9.578772216796875,0.30596923828125,-1.09521484375,0.3879241943359375
1768418185300774100,9.588774169921875,0.310394287109375,-1.0759735107421875,0.25799560546875
1768418185310775300,9.598775390625,0.299530029296875,-1.0277099609375,0.1286468505859375
1768418185320777200,9.608777099609375,0.2665252685546875,-0.9692230224609375,0.0258636474609375
1768418185330778000,9.618778076171875,0.21051025390625,-0.913604736328125,-0.0612030029296875
1768418185340780300,9.6287802734375,0.1651763916015625,-0.8637237548828125,-0.1397247314453125
1768418185350781200,9.63878125,0.1259918212890625,-0.819183349609375,-0.2048797607421875
1768418185360783000,9.648783203125,0.079437255859375,-0.7831268310546875,-0.2256927490234375
1768418185370785300,9.658785400390625,0.0425262451171875,-0.7784423828125,-0.230255126953125
1768418185380786200,9.6687861328125,0.0220947265625,-0.78680419921875,-0.2065582275390625
1768418185390788000,9.6787880859375,0.0221710205078125,-0.809906005859375,-0.16650390625
1768418185400789200,9.688789306640626,0.023284912109375,-0.841278076171875,-0.1185150146484375
1768418185410791200,9.698791259765626,0.0196990966796875,-0.8754425048828125,-0.064453125
1768418185420792000,9.7087919921875,0.022247314453125,-0.904327392578125,-0.01739501953125
1768418185430794000,9.7187939453125,0.040191650390625,-0.9228668212890625,0.0233306884765625
1768418185440795100,9.728795166015624,0.054595947265625,-0.9358367919921875,0.0667724609375
1768418185450797000,9.738797119140624,0.0815887451171875,-0.9381103515625,0.10797119140625
1768418185460799000,9.748799072265625,0.1127471923828125,-0.9267120361328125,0.1389312744140625
1768418185470800100,9.758800048828125,0.1322784423828125,-0.9139251708984375,0.1648101806640625
1768418185480802000,9.768802001953125,0.131103515625,-0.906585693359375,0.175933837890625
1768418185490803000,9.778802978515625,0.1086578369140625,-0.9027557373046875,0.172760009765625
1768418185500805000,9.78880517578125,0.0665740966796875,-0.894378662109375,0.1530914306640625
1768418185510806000,9.798805908203125,0.025848388671875,-0.8833160400390625,0.1212921142578125
1768418185520808000,9.808807861328125,-0.0162506103515625,-0.8774871826171875,0.0939788818359375
1768418185530809000,9.81880908203125,-0.0588226318359375,-0.878509521484375,0.08331298828125
1768418185540811000,9.82881103515625,-0.0890045166015625,-0.8865814208984375,0.0806884765625
1768418185550812000,9.83881201171875,-0.088348388671875,-0.901611328125,0.0891265869140625
1768418185560814000,9.84881396484375,-0.0584564208984375,-0.91912841796875,0.0963134765625
1768418185570816000,9.85881591796875,-0.0324859619140625,-0.93475341796875,0.0978546142578125
1768418185580817000,9.86881689453125,-0.0147705078125,-0.9404296875,0.08935546875
1768418185590819000,9.878819091796874,0.02618408203125,-0.9362030029296875,0.0622711181640625
1768418185600820000,9.888820068359376,0.10028076171875,-0.9166412353515625,0.0199127197265625
1768418185610822100,9.898822265625,0.157623291015625,-0.8800506591796875,-0.0014190673828125
1768418185620823000,9.908822998046874,0.0739898681640625,-0.8868865966796875,0.0494232177734375
1768418185630825000,9.918824951171874,-0.1204071044921875,-0.9725799560546875,0.1474761962890625
1768418185640827100,9.9288271484375,-0.1813201904296875,-1.1022796630859375,0.213623046875
1768418185650828000,9.938828125,-0.1302642822265625,-1.2509918212890625,0.288116455078125
1768418185660830000,9.948829833984375,-0.11053466796875,-1.3656768798828125,0.373687744140625
1768418185670831000,9.9588310546875,-0.1269073486328125,-1.3665313720703125,0.3977508544921875
1768418185680833000,9.9688330078125,-0.1315765380859375,-1.2286224365234375,0.3297119140625
1768418185690834000,9.978833984375,-0.146636962890625,-1.0807952880859375,0.2301483154296875
1768418185700836000,9.988836181640625,-0.1849822998046875,-0.98291015625,0.141754150390625
1768418185710837200,9.998837158203125,-0.2280426025390625,-0.9467315673828125,0.0842437744140625
1768418185720839000,10.0088388671875,-0.2251129150390625,-0.970611572265625,0.0374603271484375
1768418185730841000,10.018841064453126,-0.14886474609375,-1.03448486328125,0.0014190673828125
1768418185740842000,10.028842041015626,-0.01397705078125,-1.1454315185546875,-0.0208587646484375
1768418185750844000,10.038843994140626,0.120452880859375,-1.279388427734375,-0.0152130126953125
1768418185760845300,10.04884521484375,0.21234130859375,-1.382080078125,0.014495849609375
1768418185770847000,10.058846923828124,0.265228271484375,-1.4252777099609375,0.0514984130859375
1768418185780848000,10.06884814453125,0.333099365234375,-1.4098358154296875,0.0507049560546875
1768418185790850000,10.07885009765625,0.448211669921875,-1.384765625,0.0174713134765625
1768418185800851200,10.088851318359374,0.4840545654296875,-1.39959716796875,0.0250091552734375
1768418185810853000,10.09885302734375,0.4158477783203125,-1.3529052734375,0.0405731201171875
1768418185820855000,10.10885498046875,0.35858154296875,-1.150543212890625,0.0462799072265625
1768418185830856200,10.118856201171875,0.3288116455078125,-0.90203857421875,0.0723876953125
1768418185840857900,10.12885791015625,0.2861480712890625,-0.74371337890625,0.1144866943359375
1768418185850859300,10.138859375,0.2646331787109375,-0.6709442138671875,0.152099609375
1768418185860861200,10.148861083984375,0.2952728271484375,-0.6776580810546875,0.1954498291015625
1768418185870862000,10.158862060546875,0.3713226318359375,-0.7555389404296875,0.2371978759765625
1768418185880864300,10.1688642578125,0.4542236328125,-0.863372802734375,0.2621002197265625
1768418185890865200,10.178865234375,0.50970458984375,-0.9326019287109375,0.2402496337890625
1768418185900867000,10.1888671875,0.5092315673828125,-0.946807861328125,0.178863525390625
1768418185910869200,10.198869140625,0.5044708251953125,-0.966522216796875,0.086181640625
1768418185920870100,10.2088701171875,0.474517822265625,-0.9987640380859375,-0.0072479248046875
1768418185930872300,10.218872314453124,0.3992767333984375,-1.0253143310546875,-0.0823211669921875
1768418185940873200,10.228873291015624,0.3050994873046875,-1.0264739990234375,-0.129974365234375
1768418185950875100,10.238875244140624,0.222564697265625,-1.01190185546875,-0.1502685546875
1768418185960876000,10.2488759765625,0.177581787109375,-1.00177001953125,-0.1479949951171875
1768418185970878200,10.258878173828125,0.164276123046875,-1.00177001953125,-0.1375579833984375
1768418185980879000,10.268879150390624,0.1627655029296875,-1.0026397705078125,-0.1289215087890625
1768418185990881300,10.27888134765625,0.1655120849609375,-1.0016021728515625,-0.1083831787109375
1768418186000883200,10.28888330078125,0.155609130859375,-0.993621826171875,-0.073089599609375
1768418186010884000,10.298884033203125,0.1693878173828125,-0.9730987548828125,-0.0128936767578125
1768418186020886300,10.30888623046875,0.1905517578125,-0.9411773681640625,0.0744781494140625
1768418186030887200,10.31888720703125,0.207305908203125,-0.9028167724609375,0.151947021484375
1768418186040889000,10.32888916015625,0.20574951171875,-0.857452392578125,0.201812744140625
1768418186050890200,10.33889013671875,0.1964111328125,-0.80413818359375,0.2247467041015625
1768418186060892200,10.34889208984375,0.1794586181640625,-0.7488861083984375,0.2463836669921875
1768418186070893000,10.35889306640625,0.1621246337890625,-0.71429443359375,0.2605743408203125
1768418186080895200,10.368895263671876,0.1479644775390625,-0.7095184326171875,0.2581634521484375
1768418186090897200,10.378897216796876,0.15008544921875,-0.730712890625,0.254852294921875
1768418186100898000,10.38889794921875,0.146087646484375,-0.77587890625,0.2606201171875
1768418186110900200,10.398900146484374,0.1356048583984375,-0.8325958251953125,0.267242431640625
1768418186120901000,10.408901123046874,0.1280975341796875,-0.879486083984375,0.2691650390625
1768418186130903000,10.418903076171874,0.135009765625,-0.912994384765625,0.26995849609375
1768418186140904200,10.428904296875,0.1472625732421875,-0.929107666015625,0.255340576171875
1768418186150906000,10.438906005859375,0.1508026123046875,-0.9311981201171875,0.22747802734375
1768418186160907000,10.448906982421875,0.155242919921875,-0.9258270263671875,0.195220947265625
1768418186170909200,10.4589091796875,0.162384033203125,-0.9222259521484375,0.1609039306640625
1768418186180911000,10.4689111328125,0.168548583984375,-0.916015625,0.1360015869140625
1768418186190912000,10.478912109375,0.1618194580078125,-0.9178009033203125,0.1290435791015625
1768418186200914200,10.4889140625,0.145111083984375,-0.92425537109375,0.1362762451171875
1768418186210915000,10.4989150390625,0.1262359619140625,-0.9288482666015625,0.1486053466796875
1768418186220917000,10.5089169921875,0.1062774658203125,-0.93267822265625,0.1574859619140625
1768418186230918100,10.518918212890625,0.0860748291015625,-0.930633544921875,0.1622772216796875
1768418186240920000,10.528920166015626,0.0677337646484375,-0.9240264892578125,0.156280517578125
1768418186250921000,10.5389208984375,0.0547332763671875,-0.92169189453125,0.1467742919921875
1768418186260923100,10.548923095703126,0.048583984375,-0.9161376953125,0.14068603515625
1768418186270924000,10.558924072265626,0.053314208984375,-0.9088592529296875,0.144378662109375
1768418186280926000,10.568926025390626,0.0691070556640625,-0.9060211181640625,0.1595001220703125
1768418186290928000,10.57892822265625,0.0807342529296875,-0.9102020263671875,0.1853790283203125
1768418186300929000,10.588928955078124,0.0926513671875,-0.9219818115234375,0.2191925048828125
1768418186310931200,10.59893115234375,0.120941162109375,-0.934234619140625,0.253997802734375
1768418186320932000,10.60893212890625,0.17254638671875,-0.94549560546875,0.277679443359375
1768418186330934000,10.61893408203125,0.2374420166015625,-0.9498443603515625,0.2685394287109375
1768418186340935000,10.628934814453125,0.2643585205078125,-0.9482879638671875,0.2352447509765625
1768418186350937000,10.63893701171875,0.20111083984375,-0.968902587890625,0.184906005859375
1768418186360938000,10.64893798828125,0.0937957763671875,-1.0379638671875,0.114471435546875
1768418186370940200,10.658940185546875,0.0088958740234375,-1.140289306640625,0.06256103515625
1768418186380942000,10.668942138671875,-0.0353851318359375,-1.2310791015625,0.02984619140625
1768418186390943000,10.67894287109375,-0.0895843505859375,-1.301422119140625,-0.0075531005859375
1768418186400945200,10.688945068359375,-0.1600799560546875,-1.3368988037109375,-0.0417327880859375
1768418186410945800,10.69894580078125,-0.2020111083984375,-1.28955078125,-0.040313720703125
1768418186420947700,10.70894775390625,-0.1735992431640625,-1.150177001953125,0.014251708984375
1768418186430948600,10.718948486328125,-0.0999603271484375,-1.0122528076171875,0.0999298095703125
1768418186440950800,10.72895068359375,0.0033721923828125,-0.929412841796875,0.20355224609375
1768418186450952000,10.738951904296876,0.1509246826171875,-0.9025421142578125,0.334136962890625
1768418186460953900,10.748953857421874,0.3176727294921875,-0.943084716796875,0.4605865478515625
1768418186470955000,10.758955078125,0.4502716064453125,-1.0486907958984375,0.5185394287109375
1768418186480956700,10.768956787109374,0.535980224609375,-1.1645660400390625,0.525390625
1768418186490958800,10.778958740234375,0.5513153076171875,-1.2954864501953125,0.4847564697265625
1768418186500960000,10.7889599609375,0.4886322021484375,-1.423583984375,0.3683013916015625
1768418186510961700,10.798961669921875,0.42578125,-1.495147705078125,0.2093048095703125
1768418186520963000,10.808963134765625,0.4397125244140625,-1.4698638916015625,0.1015167236328125
1768418186530964700,10.81896484375,0.483551025390625,-1.292755126953125,0.0638275146484375
1768418186540966000,10.8289658203125,0.4759979248046875,-1.0862884521484375,0.00946044921875
1768418186550967800,10.8389677734375,0.4012603759765625,-0.9086151123046875,-0.0435943603515625
1768418186560969000,10.848968994140625,0.30633544921875,-0.7728424072265625,-0.1146240234375
1768418186570971000,10.858970947265625,0.2031707763671875,-0.686187744140625,-0.194580078125
1768418186580972800,10.868972900390625,0.1220245361328125,-0.6528472900390625,-0.2610626220703125
1768418186590974000,10.878973876953125,0.0637359619140625,-0.64947509765625,-0.240264892578125
1768418186600976000,10.888975830078126,0.0284576416015625,-0.658203125,-0.1207427978515625
1768418186610977000,10.89897705078125,0.032470703125,-0.7019805908203125,0.0265960693359375
1768418186620979000,10.90897900390625,0.0449981689453125,-0.7744140625,0.1787109375
1768418186630979800,10.918979736328126,0.06982421875,-0.86383056640625,0.343109130859375
1768418186640982000,10.92898193359375,0.122314453125,-0.9569549560546875,0.4834747314453125
1768418186650983000,10.93898291015625,0.185516357421875,-1.042236328125,0.5606231689453125
1768418186660984800,10.94898486328125,0.244415283203125,-1.1100616455078125,0.556610107421875
1768418186670986000,10.958986083984374,0.2760772705078125,-1.1551666259765625,0.48480224609375
1768418186680988000,10.96898779296875,0.278106689453125,-1.170257568359375,0.3529510498046875
1768418186690989800,10.97898974609375,0.2625579833984375,-1.1535797119140625,0.2071075439453125
1768418186700991000,10.988990966796875,0.2373199462890625,-1.1087646484375,0.0762176513671875
1768418186710993000,10.998992919921875,0.21240234375,-1.061553955078125,-0.0296173095703125
1768418186720993800,11.008993896484375,0.1903533935546875,-1.00396728515625,-0.0994873046875
1768418186730996000,11.018995849609375,0.176971435546875,-0.945220947265625,-0.1586761474609375
1768418186740996900,11.028996826171875,0.167266845703125,-0.8867340087890625,-0.193817138671875
1768418186750998800,11.038998779296875,0.1412353515625,-0.82366943359375,-0.209716796875
1768418186761000000,11.049,0.1189727783203125,-0.77362060546875,-0.2114410400390625
1768418186771001900,11.059001953125,0.1029510498046875,-0.7418060302734375,-0.1929168701171875
1768418186781004000,11.069004150390626,0.087158203125,-0.7423095703125,-0.1658477783203125
1768418186791005000,11.0790048828125,0.06988525390625,-0.775848388671875,-0.1317138671875
1768418186801006800,11.0890068359375,0.056243896484375,-0.82940673828125,-0.0935211181640625
1768418186811007700,11.0990078125,0.0427093505859375,-0.8973541259765625,-0.063568115234375
1768418186821010000,11.109010009765624,0.0384521484375,-0.96051025390625,-0.0142974853515625
1768418186831010800,11.1190107421875,0.0506439208984375,-1.005950927734375,0.03741455078125
1768418186841013000,11.129012939453125,0.0528564453125,-1.025115966796875,0.078369140625
1768418186851014000,11.139013916015625,0.0391845703125,-1.01531982421875,0.1077880859375
1768418186861015800,11.149015869140625,0.0290069580078125,-0.9938507080078125,0.1125640869140625
1768418186871016700,11.1590166015625,0.024688720703125,-0.96734619140625,0.112335205078125
1768418186881019000,11.169018798828125,0.0245513916015625,-0.95257568359375,0.1111602783203125
1768418186891020800,11.179020751953125,0.0291748046875,-0.94256591796875,0.1173553466796875
1768418186901022000,11.18902197265625,0.038970947265625,-0.9405059814453125,0.1237335205078125
1768418186911023900,11.19902392578125,0.0377960205078125,-0.945037841796875,0.1377716064453125
1768418186921024800,11.209024658203125,0.0326080322265625,-0.952239990234375,0.1542510986328125
1768418186931027000,11.21902685546875,0.037994384765625,-0.9544677734375,0.164306640625
1768418186941027800,11.22902783203125,0.04412841796875,-0.948516845703125,0.159942626953125
1768418186951029800,11.23902978515625,0.045928955078125,-0.9390411376953125,0.1409149169921875
1768418186961031000,11.249031005859376,0.0335845947265625,-0.934967041015625,0.115631103515625
1768418186971032800,11.25903271484375,0.0236663818359375,-0.9345550537109375,0.0919647216796875
1768418186981034800,11.26903466796875,0.025238037109375,-0.9347686767578125,0.063690185546875
1768418186991036000,11.279035888671874,0.026031494140625,-0.9372100830078125,0.043548583984375
1768418187001037800,11.289037841796874,0.038970947265625,-0.944580078125,0.033203125
1768418187011038700,11.299038818359374,0.074310302734375,-0.953643798828125,0.03765869140625
1768418187021041000,11.309041015625,0.0983734130859375,-0.9721832275390625,0.06646728515625
1768418187031041800,11.319041748046875,0.0523681640625,-1.009490966796875,0.1132659912109375
1768418187041043700,11.329043701171875,-0.025177001953125,-1.058013916015625,0.15924072265625
1768418187051044900,11.339044921875,-0.0712432861328125,-1.101043701171875,0.1931610107421875
1768418187061046800,11.349046875,-0.081329345703125,-1.1274261474609375,0.2248077392578125
1768418187071047700,11.359047607421875,-0.085479736328125,-1.1409149169921875,0.248779296875
1768418187081049900,11.3690498046875,-0.0990142822265625,-1.12359619140625,0.261627197265625
1768418187091051800,11.3790517578125,-0.1182098388671875,-1.0688934326171875,0.2564544677734375
1768418187101052700,11.389052734375,-0.125732421875,-1.0014801025390625,0.24066162109375
1768418187111054800,11.399054931640626,-0.12652587890625,-0.9534149169921875,0.22186279296875
1768418187121055700,11.4090556640625,-0.134490966796875,-0.9390869140625,0.18841552734375
1768418187131057700,11.4190576171875,-0.131927490234375,-0.939849853515625,0.127777099609375
1768418187141058800,11.429058837890626,-0.103240966796875,-0.95404052734375,0.060028076171875
1768418187151060700,11.439060791015624,-0.04730224609375,-0.99005126953125,-0.00457763671875
1768418187161062000,11.449061767578126,0.0362091064453125,-1.046630859375,-0.0722198486328125
1768418187171063800,11.459063720703124,0.145172119140625,-1.1274871826171875,-0.1346282958984375
1768418187181065700,11.469065673828124,0.2555084228515625,-1.234130859375,-0.1706695556640625
1768418187191066600,11.479066650390624,0.325775146484375,-1.348114013671875,-0.155609130859375
1768418187201068800,11.48906884765625,0.3836822509765625,-1.4532012939453125,-0.124053955078125
1768418187211069700,11.499069580078125,0.43548583984375,-1.5175018310546875,-0.0855560302734375
1768418187221072000,11.50907177734375,0.4096832275390625,-1.5004730224609375,-0.0434112548828125
1768418187231073000,11.519072998046875,0.3146209716796875,-1.374237060546875,-0.02392578125
1768418187241074700,11.52907470703125,0.2167205810546875,-1.1584320068359375,0.005950927734375
1768418187251075800,11.539075927734375,0.150115966796875,-0.9470977783203125,0.0513458251953125
1768418187261077800,11.549077880859375,0.1039581298828125,-0.80462646484375,0.11572265625
1768418187271079700,11.55907958984375,0.0914764404296875,-0.7116851806640625,0.1890869140625
1768418187281081000,11.5690810546875,0.139923095703125,-0.688079833984375,0.2549591064453125
1768418187291082800,11.579082763671876,0.2295379638671875,-0.7462005615234375,0.30462646484375
1768418187301084000,11.589083984375,0.342376708984375,-0.854888916015625,0.329315185546875
1768418187311085800,11.5990859375,0.4496917724609375,-0.9735260009765625,0.3061676025390625
1768418187321087000,11.6090869140625,0.51214599609375,-1.037841796875,0.2365264892578125
1768418187331089000,11.6190888671875,0.5435333251953125,-1.0468902587890625,0.1456298828125
1768418187341090000,11.629090087890624,0.5701904296875,-1.0368804931640625,0.05914306640625
1768418187351092000,11.639092041015624,0.546173095703125,-1.032684326171875,-0.0050048828125
1768418187361093600,11.64909375,0.4517974853515625,-1.0218658447265625,-0.0337982177734375
1768418187371095000,11.659094970703125,0.33544921875,-0.99102783203125,-0.0351715087890625
1768418187381097000,11.669096923828125,0.2547760009765625,-0.9601287841796875,-0.0425262451171875
1768418187391097900,11.679097900390625,0.213043212890625,-0.95208740234375,-0.0484161376953125
1768418187401100000,11.68910009765625,0.192169189453125,-0.9624786376953125,-0.063720703125
1768418187411100400,11.699100341796875,0.1739959716796875,-0.983978271484375,-0.0851287841796875
1768418187421102300,11.709102294921875,0.1553497314453125,-0.9957275390625,-0.0938720703125
1768418187431103200,11.719103271484375,0.1375274658203125,-0.998687744140625,-0.076751708984375
1768418187441105400,11.72910546875,0.136260986328125,-0.99273681640625,-0.0427398681640625
1768418187451107300,11.739107421875,0.155792236328125,-0.9654998779296875,0.0248565673828125
1768418187461108500,11.7491083984375,0.1712493896484375,-0.9195098876953125,0.1070709228515625
1768418187471110400,11.7591103515625,0.189422607421875,-0.85675048828125,0.1654205322265625
1768418187481111300,11.769111328125,0.202545166015625,-0.7957305908203125,0.1991119384765625
1768418187491113500,11.779113525390626,0.2119903564453125,-0.7455596923828125,0.2049407958984375
1768418187501114400,11.7891142578125,0.209197998046875,-0.7134246826171875,0.2112884521484375
1768418187511116300,11.7991162109375,0.1940155029296875,-0.711578369140625,0.207122802734375
1768418187521117400,11.809117431640624,0.176727294921875,-0.7287445068359375,0.2075042724609375
1768418187531119400,11.819119384765624,0.1586151123046875,-0.76885986328125,0.2142486572265625
1768418187541121300,11.829121337890625,0.1567840576171875,-0.8339385986328125,0.213226318359375
1768418187551122400,11.839122314453125,0.1585693359375,-0.8951568603515625,0.2102508544921875
1768418187561124400,11.849124267578125,0.1617584228515625,-0.9375,0.19854736328125
1768418187571125200,11.859125244140625,0.1710968017578125,-0.951904296875,0.1763153076171875
1768418187581127400,11.86912744140625,0.177093505859375,-0.9496612548828125,0.14471435546875
1768418187591128300,11.87912841796875,0.1779937744140625,-0.947174072265625,0.11273193359375
1768418187601130200,11.889130126953125,0.179656982421875,-0.9539337158203125,0.0918731689453125
1768418187611132400,11.89913232421875,0.179443359375,-0.967376708984375,0.083251953125
1768418187621133300,11.90913330078125,0.177581787109375,-0.984527587890625,0.08770751953125
1768418187631135500,11.919135498046876,0.16668701171875,-0.997039794921875,0.1120452880859375
1768418187641136400,11.929136474609376,0.146087646484375,-0.9986419677734375,0.1408538818359375
1768418187651138300,11.93913818359375,0.1236724853515625,-0.989471435546875,0.162353515625
1768418187661139200,11.94913916015625,0.1006011962890625,-0.9772491455078125,0.17364501953125
1768418187671141400,11.959141357421874,0.079803466796875,-0.9629364013671875,0.171630859375
1768418187681142300,11.969142333984376,0.064544677734375,-0.952423095703125,0.1616363525390625
1768418187691144400,11.97914453125,0.05682373046875,-0.942291259765625,0.1485137939453125
1768418187701146400,11.989146484375,0.0556793212890625,-0.9315948486328125,0.14019775390625
1768418187711147300,11.999147216796874,0.0515594482421875,-0.9209747314453125,0.1417694091796875
1768418187721149400,12.0091494140625,0.0488128662109375,-0.9114227294921875,0.1502685546875
1768418187731150300,12.019150390625,0.057769775390625,-0.9015655517578125,0.1708984375
1768418187741152300,12.02915234375,0.076507568359375,-0.89697265625,0.1934051513671875
1768418187751153200,12.039153076171875,0.10137939453125,-0.8953857421875,0.211334228515625
1768418187761155300,12.0491552734375,0.1166839599609375,-0.8956146240234375,0.2160186767578125
1768418187771156200,12.05915625,0.1340484619140625,-0.912139892578125,0.200042724609375
1768418187781158400,12.069158447265625,0.17303466796875,-0.9284210205078125,0.1800079345703125
1768418187791160300,12.079160400390625,0.198577880859375,-0.9436798095703125,0.1649627685546875
1768418187801161200,12.0891611328125,0.18499755859375,-0.9779052734375,0.1587371826171875
1768418187811163400,12.099163330078126,0.13250732421875,-1.0261077880859375,0.15460205078125
1768418187821164300,12.109164306640626,0.0622406005859375,-1.0912322998046875,0.1496124267578125
1768418187831166200,12.119166259765626,0.0065765380859375,-1.1483612060546875,0.1482086181640625
1768418187841167400,12.12916748046875,-0.03265380859375,-1.181396484375,0.14178466796875
1768418187851169300,12.139169189453124,-0.0681304931640625,-1.1929473876953125,0.1388702392578125
1768418187861171200,12.149171142578124,-0.0863189697265625,-1.180419921875,0.1441192626953125
1768418187871172400,12.15917236328125,-0.0692138671875,-1.13726806640625,0.15728759765625
1768418187881174300,12.16917431640625,-0.00665283203125,-1.0697174072265625,0.1907958984375
1768418187891175200,12.179175048828125,0.06329345703125,-1.0370025634765625,0.2137451171875
1768418187901177300,12.18917724609375,0.160858154296875,-1.0362548828125,0.2508544921875
1768418187911178200,12.19917822265625,0.28350830078125,-1.064544677734375,0.3241424560546875
1768418187921180200,12.20918017578125,0.3784942626953125,-1.1501007080078125,0.372406005859375
1768418187931182300,12.219182373046875,0.41473388671875,-1.248138427734375,0.3902740478515625
1768418187941183200,12.229183349609375,0.39788818359375,-1.317840576171875,0.399139404296875
1768418187951185400,12.239185302734375,0.419281005859375,-1.3621673583984375,0.3515167236328125
1768418187961186300,12.249186279296875,0.5272064208984375,-1.3326568603515625,0.2953338623046875
1768418187971188200,12.259188232421875,0.5942840576171875,-1.2397308349609375,0.2587432861328125
1768418187981189400,12.269189453125,0.563201904296875,-1.147430419921875,0.1654510498046875
1768418187991191300,12.27919140625,0.491546630859375,-1.031829833984375,0.0442657470703125
1768418188001192400,12.2891923828125,0.3982086181640625,-0.9283447265625,-0.0836029052734375
1768418188011194000,12.299194091796876,0.3147735595703125,-0.860443115234375,-0.2082366943359375
1768418188021196300,12.3091962890625,0.2476654052734375,-0.822113037109375,-0.3119354248046875
1768418188031197200,12.319197265625,0.184539794921875,-0.8128204345703125,-0.3806304931640625
1768418188041199400,12.329199462890625,0.1326446533203125,-0.8184967041015625,-0.3699951171875
1768418188051200500,12.339200439453125,0.0795745849609375,-0.8161163330078125,-0.253936767578125
1768418188061202200,12.3492021484375,0.0360565185546875,-0.819915771484375,-0.0770416259765625
1768418188071203300,12.359203369140625,0.0154876708984375,-0.8466644287109375,0.118377685546875
1768418188081205200,12.369205322265625,0.0525360107421875,-0.881011962890625,0.319122314453125
1768418188091207200,12.379207275390625,0.121917724609375,-0.91802978515625,0.486053466796875
1768418188101208600,12.38920849609375,0.195159912109375,-0.966400146484375,0.5699920654296875
1768418188111210200,12.399210205078125,0.2655181884765625,-1.019744873046875,0.55584716796875
1768418188121211400,12.40921142578125,0.3162994384765625,-1.065216064453125,0.469635009765625
1768418188131213300,12.41921337890625,0.332305908203125,-1.0889892578125,0.3468780517578125
1768418188141214500,12.42921435546875,0.3280029296875,-1.087127685546875,0.2097015380859375
1768418188151216400,12.43921630859375,0.2940521240234375,-1.068145751953125,0.0834197998046875
1768418188161218300,12.44921826171875,0.2274322509765625,-1.039093017578125,-0.0169830322265625
1768418188171219500,12.459219482421876,0.1580352783203125,-0.99908447265625,-0.083984375
1768418188181221000,12.46922119140625,0.10687255859375,-0.946502685546875,-0.131011962890625
1768418188191222500,12.479222412109374,0.0786285400390625,-0.8917388916015625,-0.156890869140625
1768418188201224400,12.489224365234374,0.057098388671875,-0.838043212890625,-0.1569366455078125
1768418188211225300,12.499225341796874,0.05755615234375,-0.7892303466796875,-0.141571044921875
1768418188221227500,12.5092275390625,0.0754241943359375,-0.764068603515625,-0.1197662353515625
1768418188231228400,12.519228515625,0.098785400390625,-0.7629547119140625,-0.078155517578125
1768418188241230300,12.529230224609375,0.096099853515625,-0.790283203125,-0.0336151123046875
1768418188251232500,12.539232421875,0.0737152099609375,-0.82843017578125,0.0030059814453125
1768418188261233400,12.5492333984375,0.0722198486328125,-0.878631591796875,0.0321044921875
1768418188271235600,12.559235595703125,0.0800933837890625,-0.9207305908203125,0.0610809326171875
1768418188281236500,12.569236572265625,0.093017578125,-0.9522705078125,0.0892791748046875
1768418188291238400,12.57923828125,0.1046905517578125,-0.9713897705078125,0.1068115234375
1768418188301239300,12.5892392578125,0.0869140625,-0.9725341796875,0.1123046875
1768418188311241500,12.599241455078126,0.0532684326171875,-0.955810546875,0.10321044921875
1768418188321243400,12.609243408203126,0.0270538330078125,-0.9387969970703125,0.0811614990234375
1768418188331244300,12.619244384765626,0.006683349609375,-0.926300048828125,0.0725860595703125
1768418188341246500,12.62924658203125,-0.012847900390625,-0.9243011474609375,0.0724334716796875
1768418188351247400,12.639247314453126,-0.031402587890625,-0.924530029296875,0.076629638671875
1768418188361249500,12.64924951171875,-0.04376220703125,-0.926055908203125,0.093505859375
1768418188371250400,12.65925048828125,-0.0552978515625,-0.9276275634765625,0.1194305419921875
1768418188381252400,12.66925244140625,-0.059295654296875,-0.926116943359375,0.15191650390625
1768418188391254500,12.679254638671875,-0.053924560546875,-0.924713134765625,0.1807708740234375
1768418188401255400,12.68925537109375,-0.0329742431640625,-0.9246063232421875,0.1848602294921875
1768418188411257600,12.699257568359375,-0.009033203125,-0.9245758056640625,0.16595458984375
1768418188421258500,12.709258544921875,-0.00128173828125,-0.924652099609375,0.1427001953125
1768418188431260400,12.719260498046875,0.0101776123046875,-0.9242401123046875,0.1211395263671875
1768418188441261600,12.729261474609375,0.0271148681640625,-0.9231414794921875,0.1007232666015625
1768418188451263500,12.739263427734375,0.0729522705078125,-0.925140380859375,0.0788726806640625
1768418188461265400,12.749265380859375,0.1340789794921875,-0.9289703369140625,0.0587005615234375
1768418188471266600,12.7592666015625,0.0987548828125,-0.9579620361328125,0.0746002197265625
1768418188481268500,12.7692685546875,-0.0534210205078125,-1.032562255859375,0.1267242431640625
1768418188491269400,12.779269287109376,-0.14581298828125,-1.1207733154296875,0.193450927734375
1768418188501271600,12.789271484375,-0.13714599609375,-1.2028656005859375,0.2734375
1768418188511272400,12.7992724609375,-0.1065826416015625,-1.260284423828125,0.3268280029296875
1768418188521274400,12.8092744140625,-0.0993804931640625,-1.2410736083984375,0.3299560546875
1768418188531276500,12.819276611328124,-0.1068115234375,-1.16424560546875,0.300445556640625
1768418188541277400,12.82927734375,-0.1265869140625,-1.07745361328125,0.25537109375
1768418188551279600,12.839279541015625,-0.1564483642578125,-0.990509033203125,0.1893463134765625
1768418188561280500,12.849280517578125,-0.1803436279296875,-0.9227752685546875,0.117889404296875
1768418188571282400,12.859282470703125,-0.1579437255859375,-0.911224365234375,0.045501708984375
1768418188581283300,12.869283447265625,-0.068267822265625,-0.9698638916015625,-0.0509185791015625
1768418188591285500,12.879285400390625,0.06585693359375,-1.0876007080078125,-0.1443328857421875
1768418188601287400,12.889287353515625,0.208343505859375,-1.2348480224609375,-0.202606201171875
1768418188611288600,12.89928857421875,0.3063507080078125,-1.388336181640625,-0.2143707275390625
1768418188621290500,12.90929052734375,0.3548126220703125,-1.507537841796875,-0.1697998046875
1768418188631291400,12.91929150390625,0.3907623291015625,-1.54052734375,-0.1108856201171875
1768418188641293600,12.92929345703125,0.36236572265625,-1.4956817626953125,-0.0824737548828125
1768418188651294500,12.93929443359375,0.2335662841796875,-1.3851776123046875,-0.0475616455078125
1768418188661296400,12.94929638671875,0.1128692626953125,-1.207427978515625,0.0044708251953125
1768418188671298600,12.959298583984374,0.0824432373046875,-0.98846435546875,0.054168701171875
1768418188681299500,12.969299560546874,0.1087799072265625,-0.817535400390625,0.1190643310546875
1768418188691301400,12.97930126953125,0.1176300048828125,-0.7353057861328125,0.1792755126953125
1768418188701302500,12.989302490234374,0.1826324462890625,-0.6989898681640625,0.2327880859375
