time,seconds_elapsed,z,y,x
1768418175762985000,0.05098486328125,-0.09013645350933075,-0.06915619224309921,0.1541796624660492
1768418175772987000,0.06098681640625,-0.08205029368400574,-0.05463824048638344,0.16342376172542572
1768418175782989000,0.070989013671875,-0.0706796646118164,-0.043663620948791504,0.15701353549957275
1768418175792990000,0.080989990234375,-0.05866656079888344,-0.04579795151948929,0.14008378982543945
1768418175802991900,0.090991943359375,-0.05380815640091896,-0.05731958523392677,0.12022247165441513
1768418175812993000,0.100992919921875,-0.059446100145578384,-0.07289513200521469,0.10370948165655136
1768418175822995000,0.110994873046875,-0.06402434408664703,-0.07875701785087585,0.10668476670980453
1768418175832997000,0.1209970703125,-0.05467912554740906,-0.07926661521196365,0.11951328814029694
1768418175842998000,0.130998046875,-0.044923968613147736,-0.06715375930070877,0.12227098643779755
1768418175853000000,0.141,-0.0366329550743103,-0.05212436616420746,0.1197570338845253
1768418175863002000,0.151002197265625,-0.02916198968887329,-0.03673262894153595,0.11907579749822617
1768418175873003000,0.1610029296875,-0.02257901057600975,-0.02003984898328781,0.1289139688014984
1768418175883005000,0.1710048828125,-0.02210310287773609,-0.007819135673344135,0.14252911508083344
1768418175893007000,0.181007080078125,-0.021780923008918762,0.001596058951690793,0.15578846633434296
1768418175903008000,0.191008056640625,-0.015660712495446205,0.019545765593647957,0.16319045424461365
1768418175913010000,0.201010009765625,-0.013677336275577545,0.04092774912714958,0.1664997637271881
1768418175923011000,0.211010986328125,-0.019772779196500778,0.05345259606838226,0.16218969225883484
1768418175933013000,0.221012939453125,-0.02427574247121811,0.050861939787864685,0.1559557318687439
1768418175943015000,0.231014892578125,-0.028537863865494728,0.047442175447940826,0.1578388512134552
1768418175953016000,0.24101611328125,-0.03342544287443161,0.05346544086933136,0.16418707370758057
1768418175963018000,0.25101806640625,-0.029691427946090698,0.05911879986524582,0.16943323612213135
1768418175973020200,0.261020263671875,-0.013876393437385559,0.059638071805238724,0.17106646299362183
1768418175983021000,0.27102099609375,0.0005632657557725906,0.06254012137651443,0.1567852646112442
1768418175993023000,0.28102294921875,-0.003974909894168377,0.060251884162425995,0.12158402800559998
1768418176003024000,0.29102392578125,-0.025109224021434784,0.049245838075876236,0.08882315456867218
1768418176013026000,0.301026123046875,-0.06340157240629196,0.02340288646519184,0.06847568601369858
1768418176023028000,0.311028076171875,-0.09704715013504028,0.0004040929488837719,0.07333008944988251
1768418176033029000,0.321029052734375,-0.1163918748497963,-0.02220066823065281,0.07936688512563705
1768418176043031000,0.331031005859375,-0.1239091232419014,-0.04099474474787712,0.08266180753707886
1768418176053033000,0.341032958984375,-0.12877924740314484,-0.066878542304039,0.08029239624738693
1768418176063034000,0.3510341796875,-0.13400746881961823,-0.09408970922231674,0.07631975412368774
1768418176073036000,0.3610361328125,-0.13385887444019318,-0.1205838993191719,0.07246030122041702
1768418176083037000,0.371036865234375,-0.13266175985336304,-0.14189690351486206,0.07706800848245621
1768418176093039000,0.3810390625,-0.12816980481147766,-0.1493833065032959,0.08273361623287201
1768418176103041000,0.391041015625,-0.12456820160150528,-0.1516748070716858,0.08120139688253403
1768418176113042000,0.4010419921875,-0.1444132775068283,-0.15776652097702026,0.08822415769100189
1768418176123044000,0.411044189453125,-0.11905550956726074,-0.17192134261131287,0.10856051743030548
1768418176133046000,0.4210458984375,-0.105259008705616,-0.16424743831157684,0.11451055109500885
1768418176143047000,0.431046875,-0.09622547775506973,-0.14272652566432953,0.10152189433574677
1768418176153049000,0.441049072265625,-0.10474786162376404,-0.11549118161201477,0.09611941874027252
1768418176163051000,0.451051025390625,-0.10140473395586014,-0.10919719934463501,0.09171589463949203
1768418176173052200,0.46105224609375,-0.07617980241775513,-0.11037857830524445,0.08275622129440308
1768418176183054000,0.47105419921875,-0.07971334457397461,-0.09446229785680771,0.07502336800098419
1768418176193055000,0.481054931640625,-0.0933881402015686,-0.10127227008342743,0.066230408847332
1768418176203057200,0.49105712890625,-0.09842823445796967,-0.118648461997509,0.07060515880584717
1768418176213059000,0.50105908203125,-0.09112504869699478,-0.12413910031318665,0.09928101301193237
1768418176223060000,0.51106005859375,-0.07280590385198593,-0.11460407078266144,0.13098546862602234
1768418176233062100,0.521062255859375,-0.05539069324731827,-0.09882990270853043,0.1504233479499817
1768418176243063800,0.531063720703125,-0.04925237596035004,-0.08740732073783875,0.15770013630390167
1768418176253065000,0.54106494140625,-0.05870340019464493,-0.09101404249668121,0.15272162854671478
1768418176263067000,0.55106689453125,-0.0764126181602478,-0.09878114610910416,0.1419355571269989
1768418176273068000,0.561068115234375,-0.1017313301563263,-0.10437145829200745,0.1340230256319046
1768418176283070200,0.5710703125,-0.12901434302330017,-0.11388267576694489,0.12381353229284286
1768418176293072000,0.58107177734375,-0.19015125930309296,-0.13915671408176422,0.12497088313102722
1768418176303073000,0.591072998046875,-0.17001749575138092,-0.15897329151630402,0.12819276750087738
1768418176313075000,0.601074951171875,-0.18990084528923035,-0.17580431699752808,0.1543547660112381
1768418176323076900,0.611076904296875,-0.19687965512275696,-0.18701249361038208,0.18360425531864166
1768418176333078000,0.621078125,-0.19873152673244476,-0.18142607808113098,0.21006233990192413
1768418176343080000,0.631079833984375,-0.20237232744693756,-0.16985943913459778,0.23472534120082855
1768418176353081900,0.641081787109375,-0.1910543590784073,-0.14822722971439362,0.23520413041114807
1768418176363083000,0.6510830078125,-0.17145989835262299,-0.1060882955789566,0.2181846648454666
1768418176373085000,0.6610849609375,-0.14396905899047852,-0.057244423776865005,0.1924983263015747
1768418176383086000,0.671086181640625,-0.11681653559207916,-0.009929373860359192,0.17534597218036652
1768418176393087700,0.681087646484375,-0.10254039615392685,0.034148577600717545,0.16841170191764832
1768418176403090000,0.69108984375,-0.10001359134912491,0.06930310279130936,0.16452962160110474
1768418176413091000,0.701091064453125,-0.10427257418632507,0.10021853446960449,0.1740054190158844
1768418176423093000,0.711093017578125,-0.10334180295467377,0.12431561201810837,0.18522877991199493
1768418176433095000,0.721094970703125,-0.10583146661520004,0.1434112787246704,0.19314800202846527
1768418176443096000,0.731095947265625,-0.10337923467159271,0.16729556024074554,0.19994306564331055
1768418176453098000,0.741097900390625,-0.10169726610183716,0.1892017424106598,0.20227032899856567
1768418176463100200,0.75110009765625,-0.08985365927219391,0.21546822786331177,0.20747734606266022
1768418176473101000,0.76110107421875,-0.07386036962270737,0.2513406276702881,0.22034509479999542
1768418176483103000,0.77110302734375,-0.05708618089556694,0.28971067070961,0.23059773445129395
1768418176493103900,0.781103759765625,-0.031165489926934242,0.3268471360206604,0.23637829720973969
1768418176503106000,0.79110595703125,0.0017996494425460696,0.36162853240966797,0.23900873959064484
1768418176513108000,0.80110791015625,0.03256715089082718,0.375820517539978,0.23190130293369293
1768418176523109000,0.811109130859375,0.043672531843185425,0.39674127101898193,0.21641658246517181
1768418176533111000,0.821111083984375,-0.016330085694789886,0.38147497177124023,0.19351978600025177
1768418176543113000,0.831113037109375,-0.06949935108423233,0.3160969316959381,0.17964434623718262
1768418176553114000,0.841114013671875,-0.08816704154014587,0.25775134563446045,0.17524588108062744
1768418176563116000,0.851115966796875,-0.06413773447275162,0.23864875733852386,0.14363831281661987
1768418176573118200,0.8611181640625,-0.09864457696676254,0.18695174157619476,0.129411980509758
1768418176583119000,0.871119140625,-0.07424066960811615,0.14287246763706207,0.16116304695606232
1768418176593121000,0.88112109375,-0.01762586086988449,0.16450347006320953,0.18060651421546936
1768418176603122000,0.891121826171875,0.019470850005745888,0.15962764620780945,0.1846403032541275
1768418176613124000,0.9011240234375,0.03478189557790756,0.12582068145275116,0.18687975406646729
1768418176623126000,0.9111259765625,0.056922439485788345,0.10855186730623245,0.1846369057893753
1768418176633127200,0.921127197265625,0.07774809747934341,0.09890030324459076,0.17671799659729004
1768418176643129000,0.931129150390625,0.10119643062353134,0.1075906977057457,0.16137485206127167
1768418176653131000,0.941131103515625,0.12409801781177521,0.13266567885875702,0.14513355493545532
1768418176663132200,0.951132080078125,0.1436738669872284,0.15534819662570953,0.13267308473587036
1768418176673134000,0.961134033203125,0.1519605666399002,0.1748822182416916,0.12830577790737152
1768418176683136000,0.971135986328125,0.1555348038673401,0.20052176713943481,0.12353556603193283
1768418176693137200,0.98113720703125,0.15674972534179688,0.22081878781318665,0.12313449382781982
1768418176703139000,0.99113916015625,0.15019237995147705,0.24090968072414398,0.13086217641830444
1768418176713140000,1.001139892578125,0.159818634390831,0.27532491087913513,0.12932473421096802
1768418176723142100,1.01114208984375,0.1769411712884903,0.32453668117523193,0.12372224032878876
1768418176733144000,1.02114404296875,0.23067550361156464,0.39906632900238037,0.09017611294984818
1768418176743145000,1.03114501953125,0.30701717734336853,0.47559499740600586,0.03318840265274048
1768418176753147100,1.041147216796875,0.3679311275482178,0.5027259588241577,0.010508125647902489
1768418176763149000,1.051149169921875,0.38022321462631226,0.49042803049087524,0.03342409431934357
1768418176773150200,1.061150146484375,0.36317357420921326,0.4930068552494049,0.04931269958615303
1768418176783152000,1.071152099609375,0.2969692647457123,0.5111629366874695,0.002554517239332199
1768418176793154000,1.081154052734375,0.22438043355941772,0.541667103767395,-0.09592484682798386
1768418176803155200,1.0911552734375,0.04605330899357796,0.5788184404373169,-0.156426802277565
1768418176813157000,1.1011572265625,-0.05008035525679588,0.6515015363693237,-0.1684647649526596
1768418176823158000,1.111157958984375,-0.03181719407439232,0.7807362079620361,-0.1974460929632187
1768418176833160200,1.12116015625,0.01686873286962509,0.9125755429267883,-0.2204253226518631
1768418176843162000,1.131162109375,0.13328056037425995,1.037979245185852,-0.26026222109794617
1768418176853163000,1.1411630859375,0.16649918258190155,1.0420117378234863,-0.22243985533714294
1768418176863165200,1.151165283203125,0.1812102049589157,0.9573109745979309,-0.12656205892562866
1768418176873167000,1.1611669921875,0.2473851442337036,0.757639467716217,0.0015892891678959131
1768418176883168000,1.17116796875,0.2755776643753052,0.5104584097862244,0.13415877521038055
1768418176893170200,1.181170166015625,-0.1129538044333458,0.1058221161365509,0.3271951377391815
1768418176903172000,1.191172119140625,-0.20206689834594727,0.09261496365070343,0.3627443313598633
1768418176913173200,1.20117333984375,-0.36102718114852905,-0.06319337338209152,0.3194960653781891
1768418176923175200,1.211175048828125,-0.44378677010536194,-0.1281057894229889,0.23675191402435303
1768418176933177000,1.221177001953125,-0.3741935193538666,-0.11059911549091339,0.0723411962389946
1768418176943178200,1.23117822265625,-0.1530504673719406,-0.016438264399766922,-0.13613079488277435
1768418176953180200,1.24118017578125,-0.11477300524711609,0.13059565424919128,-0.23853996396064758
1768418176963181000,1.25118115234375,-0.03418761491775513,0.324921190738678,-0.31546589732170105
1768418176973183200,1.261183349609375,0.08629091829061508,0.5294144749641418,-0.3762146234512329
1768418176983185200,1.27118505859375,0.20400868356227875,0.7248509526252747,-0.41698241233825684
1768418176993186000,1.28118603515625,0.3293048143386841,0.8962544202804565,-0.45321765542030334
1768418177003188200,1.291188232421875,0.4218694269657135,0.9987423419952393,-0.47686806321144104
1768418177013190100,1.301190185546875,0.45991429686546326,1.000583291053772,-0.4904930591583252
1768418177023191300,1.31119140625,0.4547191262245178,0.9166407585144043,-0.43764132261276245
1768418177033193200,1.321193115234375,0.40041807293891907,0.726059079170227,-0.30416715145111084
1768418177043195100,1.331195068359375,0.08018417656421661,0.40121132135391235,-0.05343116074800491
1768418177053196300,1.3411962890625,0.27537763118743896,0.3563040494918823,-0.02356167696416378
1768418177063198200,1.3511982421875,0.22453229129314423,0.24026796221733093,0.012957754544913769
1768418177073199900,1.361199951171875,0.10507460683584213,0.07682391256093979,0.15205252170562744
1768418177083201300,1.371201171875,-0.14138425886631012,0.2923416495323181,0.5106017589569092
1768418177093203000,1.381202880859375,-0.08267620950937271,0.08032286167144775,0.591526448726654
1768418177103204000,1.3912041015625,-0.0038185282610356808,-0.05710342526435852,0.5076517462730408
1768418177113206300,1.401206298828125,0.07980579137802124,-0.09315995872020721,0.319430947303772
1768418177123208000,1.4112080078125,0.19878630340099335,-0.13565482199192047,0.09792759269475937
1768418177133209000,1.421208984375,0.23377332091331482,-0.053963951766490936,-0.023330388590693474
1768418177143211000,1.4312109375,0.20870210230350494,0.009306470863521099,-0.07460519671440125
1768418177153213000,1.441212890625,0.19042456150054932,-0.03476112335920334,-0.0920875146985054
1768418177163214000,1.451214111328125,0.1627608686685562,-0.13539797067642212,-0.10263852030038834
1768418177173216000,1.461216064453125,0.1354416310787201,-0.2561885714530945,-0.0874989777803421
1768418177183218000,1.471218017578125,0.13308914005756378,-0.3590022325515747,-0.059749308973550797
1768418177193219000,1.481218994140625,0.14521531760692596,-0.39030343294143677,-0.023987580090761185
1768418177203221000,1.491220947265625,0.16351096332073212,-0.36618876457214355,0.03398331254720688
1768418177213223000,1.501222900390625,0.1850392073392868,-0.317011296749115,0.094056636095047
1768418177223224000,1.51122412109375,0.21524745225906372,-0.25975653529167175,0.11953616887331009
1768418177233226000,1.52122607421875,0.24259790778160095,-0.20955848693847656,0.1138400286436081
1768418177243227000,1.531226806640625,0.2774306833744049,-0.17297044396400452,0.09116639196872711
1768418177253229000,1.54122900390625,0.29560062289237976,-0.12593156099319458,0.034684743732213974
1768418177263231000,1.55123095703125,0.28871235251426697,-0.11966540664434433,-0.05435458570718765
1768418177273232000,1.56123193359375,0.22190792858600616,-0.12801116704940796,-0.11848639696836472
1768418177283234000,1.571234130859375,0.15343566238880157,-0.1725514680147171,-0.13370396196842194
1768418177293236000,1.581236083984375,0.10513381659984589,-0.21070356667041779,-0.11073371767997742
1768418177303237000,1.591237060546875,0.07953071594238281,-0.26739266514778137,-0.06448978930711746
1768418177313239000,1.601239013671875,0.0853678360581398,-0.33096903562545776,0.005447291769087315
1768418177323241000,1.611240966796875,0.09408356249332428,-0.40616631507873535,0.10856541991233826
1768418177333242000,1.6212421875,0.08845603466033936,-0.5076825022697449,0.2107178270816803
1768418177343244000,1.631244140625,-0.13225103914737701,-0.44977498054504395,0.441062331199646
1768418177353246200,1.64124609375,-0.20761488378047943,-0.5465558767318726,0.5997293591499329
1768418177363247000,1.6512470703125,-0.2754722535610199,-0.6212668418884277,0.6463906168937683
1768418177373249000,1.6612490234375,-0.3301692306995392,-0.600753664970398,0.6005769371986389
1768418177383251200,1.671251220703125,-0.3689517676830292,-0.5854061245918274,0.48610973358154297
1768418177393252000,1.681252197265625,-0.40195247530937195,-0.6043977737426758,0.3366315960884094
1768418177403253800,1.691253662109375,-0.4282269775867462,-0.6692055463790894,0.1797996461391449
1768418177413254700,1.701254638671875,-0.46137067675590515,-0.7412001490592957,0.05360451713204384
1768418177423256800,1.7112568359375,-0.5091238617897034,-0.7995481491088867,0.016288835555315018
1768418177433258800,1.7212587890625,-0.5759437680244446,-0.845794677734375,0.09589329361915588
1768418177443260000,1.731260009765625,-0.5766170024871826,-0.8892657160758972,0.2332005500793457
1768418177453261800,1.74126171875,-0.49436989426612854,-0.9510416388511658,0.4178706407546997
1768418177463263700,1.751263671875,-0.37403610348701477,-0.9481161236763,0.6453474164009094
1768418177473265000,1.761264892578125,-0.23197458684444427,-0.8551241159439087,0.8431254625320435
1768418177483266800,1.771266845703125,-0.02067847177386284,-0.534469723701477,0.8492820858955383
1768418177493269000,1.78126904296875,0.21944411098957062,-0.2088833898305893,0.6613351106643677
1768418177503270000,1.791269775390625,0.42591196298599243,0.09472182393074036,0.37019628286361694
1768418177513271800,1.801271728515625,0.43492117524147034,0.2788655459880829,0.17623107135295868
1768418177523274000,1.81127392578125,0.31137165427207947,0.25016096234321594,0.06671540439128876
1768418177533275000,1.82127490234375,0.21386003494262695,0.04609838128089905,0.008084052242338657
1768418177543276800,1.83127685546875,0.07835377752780914,-0.12105376273393631,0.041231509298086166
1768418177553279000,1.841279052734375,0.0036172252148389816,-0.21269072592258453,0.14988873898983002
1768418177563280000,1.85127978515625,0.0052153305150568485,-0.21078534424304962,0.24553927779197693
1768418177573281800,1.86128173828125,0.052600156515836716,-0.19934681057929993,0.29439976811408997
1768418177583283000,1.871282958984375,0.08713505417108536,-0.18816135823726654,0.2755923271179199
1768418177593284900,1.881284912109375,0.05760299414396286,-0.15412695705890656,0.24239787459373474
1768418177603286800,1.891286865234375,-0.0945902094244957,-0.1486591100692749,0.2001994401216507
1768418177613288000,1.901287841796875,-0.09273292124271393,-0.12550505995750427,0.18373630940914154
1768418177623289900,1.911289794921875,-0.06649903953075409,-0.09043038636445999,0.15761798620224
1768418177633292000,1.9212919921875,-0.033310726284980774,-0.06489866226911545,0.11223772168159485
1768418177643293000,1.93129296875,-0.002917639445513487,-0.04957292228937149,0.05781874060630798
1768418177653294800,1.941294921875,0.005887037608772516,-0.05679461359977722,0.004890809766948223
1768418177663297000,1.951297119140625,0.0017479523085057735,-0.07557389885187149,-0.03030659258365631
1768418177673298000,1.9612978515625,-0.007897754199802876,-0.0891144871711731,-0.05234764143824577
1768418177683299800,1.9712998046875,-0.014454190619289875,-0.10199513286352158,-0.06693777441978455
1768418177693302000,1.981302001953125,-0.018964484333992004,-0.10822975635528564,-0.07037204504013062
1768418177703303000,1.991302978515625,-0.014371861703693867,-0.09291285276412964,-0.07087112218141556
1768418177713304800,2.001304931640625,-0.0009286176646128297,-0.049068182706832886,-0.07471480965614319
1768418177723307000,2.01130712890625,0.015847966074943542,-0.00847761519253254,-0.08824579417705536
1768418177733308000,2.021307861328125,0.025348706170916557,0.01413752045482397,-0.1074497327208519
1768418177743309800,2.031309814453125,0.02541324496269226,0.02455386519432068,-0.13205836713314056
1768418177753311000,2.04131103515625,0.011047089472413063,0.03123334050178528,-0.14263591170310974
1768418177763313000,2.05131298828125,-0.009379088878631592,0.03339396417140961,-0.14495578408241272
1768418177773315000,2.061315185546875,-0.028508219867944717,0.04073195159435272,-0.14458952844142914
1768418177783316000,2.07131591796875,-0.036358416080474854,0.05655645579099655,-0.13144177198410034
1768418177793318000,2.08131787109375,-0.032738327980041504,0.07518137991428375,-0.11396307498216629
1768418177803319800,2.09131982421875,-0.015255739912390709,0.0947931632399559,-0.10112877190113068
1768418177813321000,2.101321044921875,0.0023705100174993277,0.10233253985643387,-0.09573308378458023
1768418177823323000,2.111322998046875,0.01517418958246708,0.10730385780334473,-0.08961793035268784
1768418177833324800,2.12132470703125,0.019236812368035316,0.10020702332258224,-0.0869995579123497
1768418177843326000,2.131325927734375,0.018739335238933563,0.08968034386634827,-0.09454349428415298
1768418177853328000,2.141327880859375,0.02230275794863701,0.07707501947879791,-0.10948656499385834
1768418177863329800,2.151329833984375,0.025470321998000145,0.06411847472190857,-0.12063535302877426
1768418177873331000,2.1613310546875,0.030124586075544357,0.059473916888237,-0.12305107712745667
1768418177883332600,2.17133251953125,0.037328969687223434,0.057868294417858124,-0.12404763698577881
1768418177893334800,2.181334716796875,0.05094032362103462,0.05769747123122215,-0.11993125826120377
1768418177903336000,2.1913359375,0.060225434601306915,0.06447281688451767,-0.1087353304028511
1768418177913337900,2.201337890625,0.06928237527608871,0.0672767236828804,-0.10307475179433823
1768418177923339000,2.211339111328125,0.07903140783309937,0.07395646721124649,-0.10468889772891998
1768418177933340700,2.221340576171875,0.08524740487337112,0.07967433333396912,-0.11832055449485779
1768418177943342800,2.2313427734375,0.09275376051664352,0.08222798258066177,-0.13950179517269135
1768418177953343700,2.24134375,0.0962614044547081,0.08511138707399368,-0.15398353338241577
1768418177963345700,2.251345703125,0.09959180653095245,0.08403706550598145,-0.15968582034111023
1768418177973347800,2.261347900390625,0.10053163766860962,0.0845760852098465,-0.162540465593338
1768418177983348700,2.2713486328125,0.09654198586940765,0.08707734942436218,-0.163029283285141
1768418177993350700,2.2813505859375,0.0910087376832962,0.08876898884773254,-0.16205349564552307
1768418178003352800,2.291352783203125,0.0807233676314354,0.08685370534658432,-0.16316083073616028
1768418178013353700,2.301353759765625,0.06535932421684265,0.08559270203113556,-0.16746129095554352
1768418178023356000,2.31135595703125,0.0491051971912384,0.08444928377866745,-0.17574724555015564
1768418178033357800,2.32135791015625,0.029982635751366615,0.0781615599989891,-0.18934215605258942
1768418178043358700,2.331358642578125,0.010425744578242302,0.07808201014995575,-0.20977447926998138
1768418178053361000,2.34136083984375,-0.00040240189991891384,0.08230258524417877,-0.23951320350170135
1768418178063362800,2.35136279296875,-0.0003239887300878763,0.0881258100271225,-0.27423161268234253
1768418178073363700,2.36136376953125,0.011109760962426662,0.08953169733285904,-0.31323760747909546
1768418178083366000,2.371365966796875,0.020892618224024773,0.08536838740110397,-0.33956190943717957
1768418178093366800,2.38136669921875,0.022784527391195297,0.08260295540094376,-0.34284666180610657
1768418178103368700,2.39136865234375,0.02032894268631935,0.07692851126194,-0.33556029200553894
1768418178113371000,2.401370849609375,0.02428426966071129,0.0797666385769844,-0.33969831466674805
1768418178123371800,2.411371826171875,0.04018118605017662,0.09384036064147949,-0.3643452525138855
1768418178133373700,2.421373779296875,0.05628638714551926,0.11669880896806717,-0.4097073972225189
1768418178143376000,2.4313759765625,0.06654621660709381,0.13591377437114716,-0.46750038862228394
1768418178153376800,2.441376708984375,0.06803201884031296,0.17536401748657227,-0.5273428559303284
1768418178163379000,2.45137890625,0.0550624243915081,0.23487740755081177,-0.583774745464325
1768418178173380900,2.461380859375,0.02539430744946003,0.2910810708999634,-0.6366016864776611
1768418178183381800,2.4713818359375,-0.018312426283955574,0.3307430148124695,-0.6830195188522339
1768418178193384000,2.481384033203125,-0.07722622901201248,0.36651402711868286,-0.7006590366363525
1768418178203385900,2.4913857421875,-0.1423724740743637,0.4080393612384796,-0.6950147747993469
1768418178213386800,2.50138671875,-0.1973731368780136,0.44213026762008667,-0.661273717880249
1768418178223389000,2.511388916015625,-0.2381107062101364,0.4686596095561981,-0.61629718542099
1768418178233390800,2.521390869140625,-0.26452499628067017,0.4928102493286133,-0.5649779438972473
1768418178243391700,2.531391845703125,-0.278576523065567,0.5017632246017456,-0.5350947380065918
1768418178253394000,2.541393798828125,-0.2798923850059509,0.5134299993515015,-0.5176584720611572
1768418178263394800,2.551394775390625,-0.26185399293899536,0.5300968885421753,-0.4903286099433899
1768418178273396700,2.561396728515625,-0.23496122658252716,0.5337803363800049,-0.4587324559688568
1768418178283399000,2.57139892578125,-0.19942720234394073,0.5363451838493347,-0.43960535526275635
1768418178293399800,2.58139990234375,-0.16255973279476166,0.5215838551521301,-0.4213084280490875
1768418178303402000,2.591402099609375,-0.13521918654441833,0.48631322383880615,-0.4074983298778534
1768418178313404000,2.60140380859375,-0.10666285455226898,0.45196789503097534,-0.38416364789009094
1768418178323404800,2.61140478515625,-0.08546196669340134,0.4283597469329834,-0.35294127464294434
1768418178333407000,2.621406982421875,-0.07378998398780823,0.4087253510951996,-0.321959525346756
1768418178343409000,2.631408935546875,-0.05910557135939598,0.385977178812027,-0.2952706515789032
1768418178353409800,2.641409912109375,-0.05609303340315819,0.337982177734375,-0.28599390387535095
1768418178363412000,2.651411865234375,-0.05827043578028679,0.2923462390899658,-0.27494683861732483
1768418178373414000,2.661413818359375,-0.05014326423406601,0.252887487411499,-0.24851757287979126
1768418178383414800,2.671414794921875,-0.03193176910281181,0.20428428053855896,-0.21982628107070923
1768418178393417000,2.6814169921875,-0.005677385721355677,0.14364197850227356,-0.18282997608184814
1768418178403417900,2.69141796875,0.033357128500938416,0.09286222606897354,-0.12872757017612457
1768418178413420000,2.701419921875,0.06615795195102692,0.03801282122731209,-0.07670165598392487
1768418178423422000,2.711421875,0.09213916212320328,-0.020039144903421402,-0.05912778899073601
1768418178433423000,2.721423095703125,0.10392817854881287,-0.05464239791035652,-0.0587320439517498
1768418178443425000,2.731425048828125,0.11291072517633438,-0.0831204429268837,-0.03210524469614029
1768418178453427000,2.741427001953125,0.1174016147851944,-0.12556856870651245,0.02060936950147152
1768418178463428000,2.751427978515625,0.12431112676858902,-0.16539569199085236,0.06626486778259277
1768418178473430000,2.761429931640625,0.12809814512729645,-0.19376981258392334,0.08457037061452866
1768418178483432000,2.771431884765625,0.13983681797981262,-0.20656180381774902,0.08638352900743484
1768418178493433000,2.78143310546875,0.15550552308559418,-0.18327538669109344,0.0820164754986763
1768418178503435000,2.79143505859375,0.17518827319145203,-0.1656641811132431,0.08160879462957382
1768418178513437000,2.80143701171875,0.18316763639450073,-0.14987003803253174,0.07608646899461746
1768418178523438000,2.81143798828125,0.174778550863266,-0.1388450711965561,0.06576289981603622
1768418178533440000,2.82143994140625,0.1567351073026657,-0.12461578845977783,0.06771925091743469
1768418178543442000,2.83144189453125,0.13245101273059845,-0.09782638400793076,0.086933933198452
1768418178553443000,2.841443115234375,0.11805663257837296,-0.0701548159122467,0.11471603065729141
1768418178563444700,2.85144482421875,0.10205689072608948,-0.037830956280231476,0.14544464647769928
1768418178573446100,2.861446044921875,0.08852989971637726,-0.018255658447742462,0.17133483290672302
1768418178583447800,2.87144775390625,0.0746336430311203,0.0012415777891874313,0.19153743982315063
1768418178593449700,2.88144970703125,0.05887438356876373,0.020811019465327263,0.20952123403549194
1768418178603451100,2.891451171875,0.04062971845269203,0.030265741050243378,0.22473865747451782
1768418178613452800,2.901452880859375,0.018441857770085335,0.02588643878698349,0.23508530855178833
1768418178623455000,2.911455078125,-0.002400839701294899,0.016476958990097046,0.24025876820087433
1768418178633455900,2.921455810546875,-0.02002667263150215,0.013356872834265232,0.252450168132782
1768418178643457800,2.931457763671875,-0.026375915855169296,0.0013995454646646976,0.2704736590385437
1768418178653460000,2.9414599609375,-0.03963884338736534,-0.019833549857139587,0.28766557574272156
1768418178663460900,2.9514609375,-0.05479489266872406,-0.04496287181973457,0.3089977502822876
1768418178673462800,2.961462890625,-0.06722904741764069,-0.05955696105957031,0.32719022035598755
1768418178683465000,2.97146484375,-0.07908464223146439,-0.06777094304561615,0.34202057123184204
1768418178693465900,2.9814658203125,-0.08590105175971985,-0.08114384114742279,0.3495497405529022
1768418178703467800,2.9914677734375,-0.09378401190042496,-0.1067996695637703,0.3580838441848755
1768418178713470000,3.001469970703125,-0.10344347357749939,-0.12828563153743744,0.36252692341804504
1768418178723470800,3.011470947265625,-0.10936155915260315,-0.1467519849538803,0.35539790987968445
1768418178733472800,3.02147265625,-0.11409585177898407,-0.18538407981395721,0.3410932719707489
1768418178743474000,3.031473876953125,-0.12089141458272934,-0.244390606880188,0.335881769657135
1768418178753475800,3.041475830078125,-0.12560014426708221,-0.30109331011772156,0.36130911111831665
1768418178763478000,3.05147802734375,-0.11809909343719482,-0.31794872879981995,0.42223823070526123
1768418178773479000,3.06147900390625,-0.095223069190979,-0.30591893196105957,0.5030707716941833
1768418178783480800,3.071480712890625,-0.05578191578388214,-0.28496918082237244,0.5677341818809509
1768418178793483000,3.08148291015625,-0.01069622952491045,-0.25409120321273804,0.5704159736633301
1768418178803484000,3.09148388671875,0.04445170983672142,-0.21131420135498047,0.4836325943470001
1768418178813485800,3.10148583984375,0.09478926658630371,-0.15252716839313507,0.3273027539253235
1768418178823488000,3.111488037109375,0.14745967090129852,-0.03594328835606575,0.13607369363307953
1768418178833489000,3.121489013671875,0.22838571667671204,0.17481403052806854,-0.029643919318914413
1768418178843490800,3.13149072265625,0.28627991676330566,0.38948267698287964,-0.19296146929264069
1768418178853493000,3.141492919921875,0.2639581561088562,0.48740264773368835,-0.3055518567562103
1768418178863494000,3.151493896484375,0.17082101106643677,0.451000452041626,-0.2694966793060303
1768418178873495800,3.161495849609375,0.0805814266204834,0.31856417655944824,-0.18747691810131073
1768418178883497000,3.1714970703125,0.0001615964574739337,0.1603328287601471,-0.13058145344257355
1768418178893499000,3.181498779296875,-0.05028746277093887,0.011808330193161964,-0.06367512792348862
1768418178903501000,3.1915009765625,-0.0853363499045372,-0.10036231577396393,0.028550829738378525
1768418178913502000,3.201501953125,-0.1284332275390625,-0.19796770811080933,0.13107480108737946
1768418178923503900,3.21150390625,-0.18846553564071655,-0.2649792730808258,0.2407280057668686
1768418178933506000,3.221506103515625,-0.2510144114494324,-0.2930133044719696,0.31263017654418945
1768418178943507000,3.2315068359375,-0.2695268392562866,-0.32857149839401245,0.29816147685050964
1768418178953508900,3.2415087890625,-0.2707955539226532,-0.3582148849964142,0.23417982459068298
1768418178963511000,3.251510986328125,-0.27758681774139404,-0.3844967484474182,0.2048887312412262
1768418178973512000,3.261511962890625,-0.2783876359462738,-0.4643164873123169,0.19415433704853058
1768418178983513900,3.271513916015625,-0.28424322605133057,-0.5796679854393005,0.1805708110332489
1768418178993516000,3.28151611328125,-0.2883085310459137,-0.6865912675857544,0.15851104259490967
1768418179003517000,3.291516845703125,-0.2863749861717224,-0.7688036561012268,0.1540638953447342
1768418179013519000,3.30151904296875,-0.2700490355491638,-0.8131194710731506,0.18135517835617065
1768418179023520000,3.31152001953125,-0.22938622534275055,-0.8160306811332703,0.23023755848407745
1768418179033522000,3.32152197265625,-0.17501352727413177,-0.7961241006851196,0.25312477350234985
1768418179043524000,3.331524169921875,-0.12881262600421906,-0.7510660886764526,0.2398865967988968
1768418179053525000,3.34152490234375,-0.09393640607595444,-0.6770443320274353,0.19881531596183777
1768418179063527000,3.35152685546875,-0.07921838760375977,-0.5700525045394897,0.14471566677093506
1768418179073529000,3.361529052734375,-0.08199313282966614,-0.4460301995277405,0.0944431722164154
1768418179083530000,3.371530029296875,-0.0994831770658493,-0.32464784383773804,0.0453009195625782
1768418179093532000,3.381531982421875,-0.12868113815784454,-0.21298682689666748,-0.008282165974378586
1768418179103534000,3.3915341796875,-0.1651587188243866,-0.11651888489723206,-0.06292624026536942
1768418179113535000,3.401534912109375,-0.2026171088218689,-0.04417401924729347,-0.10743121057748795
1768418179123537000,3.411536865234375,-0.24677018821239471,0.02221245877444744,-0.14002324640750885
1768418179133539000,3.4215390625,-0.2791656255722046,0.08299363404512405,-0.1718471497297287
1768418179143540000,3.4315400390625,-0.2964721620082855,0.13752132654190063,-0.19254150986671448
1768418179153542100,3.441542236328125,-0.30339905619621277,0.17175865173339844,-0.21124911308288574
1768418179163544000,3.4515439453125,-0.30068713426589966,0.17130404710769653,-0.22237394750118256
1768418179173545000,3.461544921875,-0.28857186436653137,0.14731545746326447,-0.21359527111053467
1768418179183547100,3.471547119140625,-0.271416038274765,0.09945791959762573,-0.18681691586971283
1768418179193548000,3.481548095703125,-0.2372097671031952,0.040264833718538284,-0.146484375
1768418179203550000,3.491550048828125,-0.18954318761825562,-0.0087977834045887,-0.09417162835597992
1768418179213551900,3.5015517578125,-0.13630017638206482,-0.06258320063352585,-0.02798004075884819
1768418179223553000,3.511552978515625,-0.0966624766588211,-0.12407505512237549,0.038675952702760696
1768418179233555000,3.521554931640625,-0.06838908791542053,-0.1989337056875229,0.10226578265428543
1768418179243556900,3.531556884765625,-0.05706591531634331,-0.2835541367530823,0.15258048474788666
1768418179253558000,3.54155810546875,-0.054754290729761124,-0.3486655056476593,0.1892697960138321
1768418179263560000,3.551559814453125,-0.04487103223800659,-0.3840644955635071,0.20960888266563416
1768418179273561900,3.561561767578125,-0.02750462293624878,-0.3882085382938385,0.2083742916584015
1768418179283563000,3.57156298828125,-0.0013579744845628738,-0.36093032360076904,0.17538145184516907
1768418179293565000,3.58156494140625,0.01486470177769661,-0.3173697292804718,0.10803703963756561
1768418179303566000,3.591566162109375,0.019722040742635727,-0.27070289850234985,0.012762721627950668
1768418179313568000,3.601568115234375,0.02712210826575756,-0.22535814344882965,-0.07246731966733932
1768418179323570000,3.61156982421875,0.04175378382205963,-0.1804889440536499,-0.13938643038272858
1768418179333571000,3.621571044921875,0.04749955236911774,-0.13196241855621338,-0.17823661863803864
1768418179343572700,3.63157275390625,0.04551496356725693,-0.08938458561897278,-0.19214577972888947
1768418179353575000,3.641574951171875,0.044824499636888504,-0.056297559291124344,-0.19257953763008118
1768418179363575800,3.651575927734375,0.0399988517165184,-0.021826377138495445,-0.18561998009681702
1768418179373577700,3.66157763671875,0.04028220847249031,0.0021444689482450485,-0.18191897869110107
1768418179383580000,3.671579833984375,0.0493481419980526,0.03282007575035095,-0.18228405714035034
1768418179393580800,3.681580810546875,0.06452523171901703,0.06824464350938797,-0.19260460138320923
1768418179403582200,3.691582275390625,0.08542270213365555,0.10982012748718262,-0.2035030871629715
1768418179413584100,3.701584228515625,0.11276910454034805,0.16476432979106903,-0.19215670228004456
1768418179423585500,3.71158544921875,0.13465428352355957,0.21470549702644348,-0.16901853680610657
1768418179433587200,3.721587158203125,0.1488039195537567,0.2538582384586334,-0.14166174829006195
1768418179443588400,3.73158837890625,0.14934904873371124,0.2697007954120636,-0.10921570658683777
1768418179453590300,3.74159033203125,0.14526988565921783,0.27846020460128784,-0.07116898894309998
1768418179463592200,3.75159228515625,0.14697906374931335,0.3084302842617035,-0.021112000569701195
1768418179473593300,3.76159326171875,0.18504895269870758,0.4311290383338928,0.03164788335561752
1768418179483595300,3.77159521484375,0.1920229196548462,0.43245598673820496,0.05534067004919052
1768418179493597200,3.78159716796875,0.17458613216876984,0.3937581181526184,0.04267574101686478
1768418179503598300,3.791598388671875,0.17411333322525024,0.3777371346950531,0.012172691524028778
1768418179513600300,3.801600341796875,0.1896054744720459,0.3674192428588867,-0.012902834452688694
1768418179523602200,3.811602294921875,0.2069268524646759,0.37517526745796204,-0.04260628670454025
1768418179533603000,3.82160302734375,0.1729196161031723,0.36575832962989807,-0.08235715329647064
1768418179543605200,3.831605224609375,0.10417895764112473,0.34077188372612,-0.1272212415933609
1768418179553607200,3.841607177734375,0.01750797964632511,0.3773690462112427,-0.1836930364370346
1768418179563608300,3.8516083984375,-0.07522142678499222,0.4445997476577759,-0.2624738812446594
1768418179573610200,3.8616103515625,-0.1565900444984436,0.5490787625312805,-0.3503861427307129
1768418179583611100,3.871611083984375,-0.21149617433547974,0.6534373760223389,-0.42214155197143555
1768418179593613300,3.88161328125,-0.23385068774223328,0.7480167746543884,-0.474494993686676
1768418179603615200,3.891615234375,-0.24465540051460266,0.803266704082489,-0.5155854225158691
1768418179613616000,3.9016162109375,-0.26073965430259705,0.8688351511955261,-0.555758535861969
1768418179623618300,3.911618408203125,-0.26755785942077637,0.9790875911712646,-0.5546762347221375
1768418179633620200,3.9216201171875,-0.21096587181091309,1.0669987201690674,-0.4682687819004059
1768418179643621000,3.93162109375,-0.11990547925233841,1.0685508251190186,-0.297162801027298
1768418179653623300,3.941623291015625,-0.019109979271888733,0.9855812191963196,-0.07784236967563629
1768418179663625200,3.951625244140625,0.04853537678718567,0.8145695328712463,0.11706533282995224
1768418179673626400,3.96162646484375,0.029490280896425247,0.564836323261261,0.20561417937278748
1768418179683628300,3.971628173828125,-0.10746198147535324,0.22094176709651947,0.1826244443655014
1768418179693630200,3.981630126953125,-0.34338051080703735,-0.1036323830485344,0.1109667420387268
1768418179703631400,3.99163134765625,-0.615738570690155,-0.3422710597515106,0.048636529594659805
1768418179713633300,4.00163330078125,-0.8429223895072937,-0.4442421495914459,-0.007674754597246647
1768418179723634200,4.01163427734375,-0.8797182440757751,-0.4325045347213745,-0.15222235023975372
1768418179733636400,4.02163623046875,-0.7662182450294495,-0.3299662470817566,-0.387379914522171
1768418179743638300,4.03163818359375,-0.6105158925056458,-0.12415502220392227,-0.5946141481399536
1768418179753639200,4.04163916015625,-0.42033737897872925,0.18391385674476624,-0.7419119477272034
1768418179763641300,4.051641357421875,-0.200777068734169,0.500621497631073,-0.8023399114608765
1768418179773643300,4.061643310546875,-0.007229084149003029,0.76930832862854,-0.8269368410110474
1768418179783644200,4.07164404296875,0.15165269374847412,0.9637444019317627,-0.8151717782020569
1768418179793646300,4.081646240234375,0.294271856546402,1.0232032537460327,-0.7178241610527039
1768418179803648300,4.091648193359375,0.3480389416217804,0.9402780532836914,-0.5030950903892517
1768418179813649400,4.1016494140625,0.267373263835907,0.7861555814743042,-0.20715412497520447
1768418179823651300,4.1116513671875,0.4016065001487732,0.7115190625190735,-0.006043822970241308
1768418179833652200,4.12165234375,0.43672534823417664,0.5772784352302551,0.13883641362190247
1768418179843654400,4.131654296875,0.14042623341083527,0.11467976868152618,0.3557022511959076
1768418179853656300,4.14165625,-0.15404774248600006,-0.23020091652870178,0.5102196335792542
1768418179863657200,4.1516572265625,-0.26367825269699097,-0.4439961612224579,0.4534766376018524
1768418179873659400,4.161659423828125,-0.2540874183177948,-0.46702903509140015,0.19535934925079346
1768418179883661300,4.171661376953125,-0.03976622596383095,-0.42123594880104065,-0.12015781551599503
1768418179893662200,4.181662109375,0.20207063853740692,-0.3641470968723297,-0.3326128125190735
1768418179903664400,4.191664306640625,0.2987302839756012,-0.35880783200263977,-0.4638838768005371
1768418179913666300,4.201666259765625,0.28955143690109253,-0.42310401797294617,-0.5537232160568237
1768418179923667200,4.211667236328125,0.2642318308353424,-0.5050572156906128,-0.5919214487075806
1768418179933669400,4.22166943359375,0.2574796676635742,-0.531872034072876,-0.5646603107452393
1768418179943670300,4.231670166015625,0.2895217537879944,-0.5120858550071716,-0.4812287390232086
1768418179953672400,4.24167236328125,0.3392815887928009,-0.4781566262245178,-0.3645114600658417
1768418179963674400,4.25167431640625,0.3745003938674927,-0.4241136312484741,-0.21702639758586884
1768418179973675300,4.26167529296875,0.39380964636802673,-0.37833601236343384,-0.06060830131173134
1768418179983677400,4.271677490234375,0.3961004912853241,-0.3407497704029083,0.08360270410776138
1768418179993679400,4.281679443359375,0.38002511858940125,-0.281713604927063,0.19624961912631989
1768418180003680300,4.29168017578125,0.34930697083473206,-0.2044553905725479,0.25957807898521423
1768418180013682400,4.301682373046875,0.301080584526062,-0.12779231369495392,0.2695998251438141
1768418180023683300,4.311683349609375,0.21394649147987366,-0.08467359840869904,0.2346665859222412
1768418180033685200,4.321685302734375,0.10958121716976166,-0.0586707629263401,0.1699027717113495
1768418180043687400,4.3316875,0.026102034375071526,-0.05709070712327957,0.10296502709388733
1768418180053688300,4.341688232421875,0.017555443570017815,-0.0275903157889843,0.0511898435652256
1768418180063690500,4.3516904296875,0.03917977586388588,0.017926301807165146,0.022697746753692627
1768418180073692400,4.3616923828125,0.055336084216833115,0.07058282941579819,0.002147338353097439
1768418180083693300,4.371693359375,0.08795581758022308,0.1456834375858307,-0.02044026181101799
1768418180093695500,4.381695556640625,0.16875307261943817,0.2045387625694275,-0.018536152318120003
1768418180103697400,4.391697509765625,0.13020940124988556,0.17466501891613007,-0.0021212268620729446
1768418180113698300,4.4016982421875,0.022143661975860596,0.04053737595677376,-0.0022611981257796288
1768418180123700500,4.411700439453125,-0.059161048382520676,-0.047867320477962494,0.0002664080820977688
1768418180133701400,4.421701416015625,-0.11378095299005508,-0.11997656524181366,0.018148791044950485
1768418180143703300,4.431703369140625,-0.163147434592247,-0.18515236675739288,0.02805415168404579
1768418180153705500,4.44170556640625,-0.16710235178470612,-0.2545841336250305,0.034010984003543854
1768418180163706400,4.451706298828125,-0.16678597033023834,-0.2863534986972809,0.014615713618695736
1768418180173708300,4.461708251953125,-0.19886939227581024,-0.32828351855278015,-0.021968156099319458
1768418180183710500,4.47171044921875,-0.23275411128997803,-0.3669683337211609,-0.043976251035928726
1768418180193711400,4.48171142578125,-0.21711674332618713,-0.3829295337200165,-0.03879130631685257
1768418180203713500,4.491713623046875,-0.17858640849590302,-0.41814425587654114,-0.01027257926762104
1768418180213715200,4.501715087890625,-0.14023707807064056,-0.4417427182197571,0.03419436141848564
1768418180223716400,4.51171630859375,-0.11849610507488251,-0.4729387164115906,0.0874413400888443
1768418180233718300,4.52171826171875,-0.13087846338748932,-0.5240876078605652,0.1383584588766098
1768418180243719400,4.531719482421875,-0.18049904704093933,-0.5106295943260193,0.18300287425518036
1768418180253721300,4.541721435546875,-0.2919861674308777,-0.5766352415084839,0.21882133185863495
1768418180263723300,4.55172314453125,-0.2896340787410736,-0.6196847558021545,0.22632558643817902
1768418180273724400,4.561724365234375,-0.21588529646396637,-0.5402592420578003,0.2585911452770233
1768418180283726300,4.571726318359375,-0.06814191490411758,-0.42118507623672485,0.28792932629585266
1768418180293728300,4.581728271484375,0.06672769039869308,-0.37973201274871826,0.34235841035842896
1768418180303729400,4.5917294921875,0.09336963295936584,-0.35801804065704346,0.39024683833122253
1768418180313731000,4.60173095703125,0.06802885979413986,-0.4265241324901581,0.370412677526474
1768418180323732500,4.611732421875,0.009680715389549732,-0.5182825922966003,0.2962378263473511
1768418180333734400,4.621734375,-0.045021411031484604,-0.6069623827934265,0.22144266963005066
1768418180343736300,4.631736328125,-0.07916521281003952,-0.6328769326210022,0.18183784186840057
1768418180353737500,4.641737548828125,-0.08410723507404327,-0.6045526266098022,0.1836402714252472
1768418180363739100,4.6517392578125,-0.06880112737417221,-0.6238989233970642,0.25592654943466187
1768418180373741300,4.6617412109375,-0.014013251289725304,-0.5641149878501892,0.32582226395606995
1768418180383742200,4.6717421875,0.05540035665035248,-0.5354461669921875,0.3972441256046295
1768418180393744100,4.681744140625,0.1094534695148468,-0.5087716579437256,0.4664580821990967
1768418180403747000,4.6917470703125,0.1442355066537857,-0.5020182728767395,0.5035563111305237
1768418180413748000,4.701748046875,0.1666737049818039,-0.5088874101638794,0.48550939559936523
1768418180423750100,4.711750244140625,0.16957031190395355,-0.4518696069717407,0.4014303982257843
1768418180433751000,4.7217509765625,0.18812055885791779,-0.22777099907398224,0.27167320251464844
1768418180443753000,4.7317529296875,0.28047657012939453,-0.016449423506855965,0.16948260366916656
1768418180453755100,4.741755126953125,0.2934509813785553,0.08835049718618393,0.19445906579494476
1768418180463756000,4.751756103515625,0.2770058512687683,0.11157840490341187,0.2505347728729248
1768418180473758000,4.761758056640625,0.25168824195861816,0.025646980851888657,0.2361113429069519
1768418180483760000,4.771760009765625,0.16071049869060516,-0.14560049772262573,0.1750691533088684
1768418180493761000,4.781760986328125,0.04381823539733887,-0.33428892493247986,0.16928929090499878
1768418180503763200,4.79176318359375,-0.04855116456747055,-0.47378116846084595,0.23266901075839996
1768418180513764000,4.80176416015625,-0.12511572241783142,-0.5988916754722595,0.34168097376823425
1768418180523766000,4.81176611328125,-0.17649753391742706,-0.6910961270332336,0.42219290137290955
1768418180533768200,4.821768310546875,-0.20081351697444916,-0.7519530653953552,0.4517854154109955
1768418180543769000,4.83176904296875,-0.20914654433727264,-0.7631545662879944,0.43842169642448425
1768418180553771000,4.84177099609375,-0.18029940128326416,-0.6730935573577881,0.427856981754303
1768418180563773200,4.851773193359375,-0.0942649096250534,-0.5093466639518738,0.3961525857448578
1768418180573774000,4.861774169921875,-0.003068577265366912,-0.3703491985797882,0.32482534646987915
1768418180583776000,4.87177587890625,0.06427104771137238,-0.2808659076690674,0.21175499260425568
1768418180593778200,4.881778076171875,0.10311580449342728,-0.18731404840946198,0.09035619348287582
1768418180603779000,4.891779052734375,0.1020103245973587,-0.10212380439043045,0.011105576530098915
1768418180613781200,4.90178125,0.06672583520412445,-0.037087809294462204,-0.01979002170264721
1768418180623782100,4.9117822265625,0.005273392423987389,-0.01889468915760517,-0.024114996194839478
1768418180633784000,4.9217841796875,-0.08878084272146225,-0.07702811807394028,-0.018911635503172874
1768418180643786200,4.9317861328125,-0.21895189583301544,-0.1379639059305191,-0.009354349225759506
1768418180653787100,4.941787109375,-0.32460927963256836,-0.1752527952194214,0.001475510885939002
1768418180663789000,4.9517890625,-0.37155333161354065,-0.1819618195295334,0.0011005375999957323
1768418180673791200,4.961791259765625,-0.3686506152153015,-0.15730440616607666,-0.022133462131023407
1768418180683792100,4.971792236328125,-0.3434390127658844,-0.1393725425004959,-0.06764954328536987
1768418180693794000,4.9817939453125,-0.29722997546195984,-0.1266585886478424,-0.1241224855184555
1768418180703795200,4.991795166015625,-0.24466660618782043,-0.1082950234413147,-0.16705211997032166
1768418180713797000,5.001797119140625,-0.20349857211112976,-0.11053402721881866,-0.18275722861289978
1768418180723799000,5.011799072265625,-0.1659645140171051,-0.1400301307439804,-0.17773345112800598
1768418180733800200,5.02180029296875,-0.13429856300354004,-0.19432684779167175,-0.1560061126947403
1768418180743802000,5.031802001953125,-0.11565083265304565,-0.23485882580280304,-0.12372007966041565
1768418180753804300,5.04180419921875,-0.10738678276538849,-0.2700706124305725,-0.07274079322814941
1768418180763805200,5.05180517578125,-0.09991101920604706,-0.30358409881591797,-0.0006897663697600365
1768418180773807000,5.06180712890625,-0.08284305781126022,-0.3409242033958435,0.08559316396713257
1768418180783808000,5.07180810546875,-0.05323226377367973,-0.3410932421684265,0.15290215611457825
1768418180793810200,5.08181005859375,-0.007240802049636841,-0.31178969144821167,0.1969231516122818
1768418180803812000,5.09181201171875,0.02601444534957409,-0.2704457938671112,0.21650545299053192
1768418180813813200,5.101813232421875,0.053790949285030365,-0.23448459804058075,0.21776191890239716
1768418180823815200,5.111815185546875,0.07560617476701736,-0.19588272273540497,0.19194890558719635
1768418180833817000,5.121817138671875,0.09049404412508011,-0.1515594720840454,0.15032769739627838
1768418180843818200,5.131818359375,0.10291911661624908,-0.10071365535259247,0.09866876155138016
1768418180853820200,5.141820068359375,0.11241461336612701,-0.03176894411444664,0.055869366973638535
1768418180863821000,5.151821044921875,0.11085005849599838,0.03741340711712837,0.02792363055050373
1768418180873823200,5.1618232421875,0.10370426625013351,0.10012418776750565,0.0065152766183018684
1768418180883825200,5.1718251953125,0.09044788777828217,0.16924850642681122,-0.0026058522053062916
1768418180893826000,5.181825927734375,0.08816928416490555,0.25097769498825073,0.0001055118627846241
1768418180903828200,5.191828125,0.10184186697006226,0.3473035395145416,0.012054774910211563
1768418180913830100,5.201830078125,0.11885067820549011,0.4237136244773865,0.03780248388648033
1768418180923831000,5.2118310546875,0.13617326319217682,0.4768536388874054,0.06269222497940063
1768418180933833200,5.221833251953125,0.1543021947145462,0.5301885008811951,0.08203289657831192
1768418180943834000,5.231834228515625,0.1643410474061966,0.5486009120941162,0.0940462127327919
1768418180953836300,5.241836181640625,0.1744714379310608,0.5424585938453674,0.10045937448740005
1768418180963838200,5.251838134765625,0.1878557801246643,0.5225551128387451,0.10725849866867065
1768418180973839000,5.261839111328125,0.18990081548690796,0.49471813440322876,0.12537997961044312
1768418180983841300,5.27184130859375,0.20698922872543335,0.4661905765533447,0.1370731145143509
1768418180993843200,5.28184326171875,0.22854912281036377,0.4231592118740082,0.13203920423984528
1768418181003844000,5.291843994140625,0.2562909722328186,0.39877423644065857,0.12858641147613525
1768418181013846300,5.30184619140625,0.30851268768310547,0.395581990480423,0.11964881420135498
1768418181023847200,5.31184716796875,0.35655131936073303,0.4212700426578522,0.0853574201464653
1768418181033849000,5.32184912109375,0.3519640266895294,0.44345977902412415,0.0024297807831317186
1768418181043851300,5.331851318359375,0.2909720540046692,0.472348153591156,-0.10301995277404785
1768418181053852200,5.34185205078125,0.1729716956615448,0.5070556998252869,-0.19830113649368286
1768418181063854000,5.35185400390625,0.015482207760214806,0.534852147102356,-0.26095065474510193
1768418181073855200,5.361855224609375,-0.1420365422964096,0.5569995641708374,-0.29378360509872437
1768418181083857200,5.371857177734375,-0.2575804591178894,0.6291874647140503,-0.3132374882698059
1768418181093859000,5.381859130859375,-0.2980077266693115,0.7133772373199463,-0.3502087891101837
1768418181103860200,5.391860107421875,-0.30135852098464966,0.806277334690094,-0.41193127632141113
1768418181113862100,5.401862060546875,-0.29884958267211914,0.8557121753692627,-0.46773120760917664
1768418181123864000,5.411864013671875,-0.2983955144882202,0.8907450437545776,-0.4431670010089874
1768418181133865200,5.421865234375,-0.2718416154384613,0.8988683223724365,-0.29945772886276245
1768418181143867100,5.4318671875,-0.23138128221035004,0.8502064943313599,-0.04085386544466019
1768418181153868300,5.441868408203125,-0.18614760041236877,0.7487353682518005,0.230917826294899
1768418181163870200,5.4518701171875,-0.19197885692119598,0.5413280725479126,0.3348458409309387
1768418181173871900,5.461871826171875,-0.27376264333724976,0.22338828444480896,0.25577512383461
1768418181183873300,5.471873291015625,-0.43404364585876465,-0.0490293875336647,0.1948273479938507
1768418181193875200,5.481875244140625,-0.6342936754226685,-0.2260209619998932,0.25733932852745056
1768418181203877000,5.491877197265625,-0.7734616994857788,-0.3802992105484009,0.3542717397212982
1768418181213878300,5.501878173828125,-0.7165661454200745,-0.41478317975997925,0.2935863137245178
1768418181223880000,5.5118798828125,-0.5680310130119324,-0.2692456841468811,0.018551822751760483
1768418181233881000,5.521881103515625,-0.37368351221084595,-0.05299749970436096,-0.3310371935367584
1768418181243883000,5.531883056640625,-0.15208004415035248,0.22380663454532623,-0.5936345458030701
1768418181253885000,5.541885009765625,0.06564589589834213,0.5437383055686951,-0.7133092880249023
1768418181263886300,5.55188623046875,0.2588436007499695,0.8530535101890564,-0.7172880172729492
1768418181273888000,5.561887939453125,0.4245992600917816,1.0398005247116089,-0.6618654727935791
1768418181283889200,5.57188916015625,0.5147467851638794,1.0432977676391602,-0.5694961547851562
1768418181293891000,5.58189111328125,0.4608052372932434,0.9450845122337341,-0.452301949262619
1768418181303893000,5.59189306640625,0.31835103034973145,0.7405949831008911,-0.33179470896720886
1768418181313894100,5.60189404296875,0.1267179548740387,0.475474089384079,-0.1785932034254074
1768418181323896000,5.61189599609375,-0.052981093525886536,0.25043436884880066,0.00864501390606165
1768418181333897200,5.621897216796875,-0.12999624013900757,0.10013432800769806,0.1807938814163208
1768418181343899100,5.631899169921875,-0.09410586208105087,0.016012076288461685,0.2792871296405792
1768418181353901000,5.641901123046875,0.02271023578941822,-0.014738909900188446,0.2916007936000824
1768418181363902200,5.651902099609375,0.15088684856891632,-0.008630702272057533,0.2153758406639099
1768418181373904000,5.66190380859375,0.2497583031654358,-0.0031994511373341084,0.08830256760120392
1768418181383906000,5.671906005859375,0.2998081147670746,-0.008602089248597622,-0.05345454812049866
1768418181393907000,5.681906982421875,0.31045809388160706,-0.052628934383392334,-0.18014565110206604
1768418181403908600,5.69190869140625,0.31682661175727844,-0.09897538274526596,-0.2737557590007782
1768418181413910000,5.701909912109375,0.3306414783000946,-0.12885338068008423,-0.31743451952934265
1768418181423912000,5.711911865234375,0.34024137258529663,-0.14434851706027985,-0.30706846714019775
1768418181433913900,5.721913818359375,0.3482116758823395,-0.16065585613250732,-0.24194537103176117
1768418181443915000,5.7319150390625,0.3430900275707245,-0.17297351360321045,-0.11769323796033859
1768418181453916700,5.741916748046875,0.3358864486217499,-0.1612473428249359,0.01699506677687168
1768418181463917800,5.751917724609375,0.34098348021507263,-0.11731690168380737,0.12277822196483612
1768418181473919700,5.761919677734375,0.3411177396774292,-0.06329081952571869,0.1975259929895401
1768418181483921700,5.771921630859375,0.33478981256484985,-0.01671905629336834,0.23942522704601288
1768418181493923000,5.781923095703125,0.32134586572647095,0.014561319723725319,0.25584331154823303
1768418181503924700,5.7919248046875,0.2857434153556824,0.014585554599761963,0.24223586916923523
1768418181513926000,5.80192578125,0.2364424169063568,-0.00904074590653181,0.20714446902275085
1768418181523927800,5.811927734375,0.1894080489873886,-0.05194799602031708,0.1849859058856964
1768418181533929700,5.8219296875,0.1629963368177414,-0.06087803095579147,0.18234582245349884
1768418181543931000,5.831930908203125,0.14109928905963898,-0.0812794417142868,0.15669798851013184
1768418181553932800,5.841932861328125,0.11725206673145294,-0.11971242725849152,0.12649905681610107
1768418181563934700,5.851934814453125,0.0849338099360466,-0.17127682268619537,0.10898983478546143
1768418181573935900,5.861935791015625,0.041459836065769196,-0.23151566088199615,0.10284218937158585
1768418181583937800,5.871937744140625,-0.003698053304105997,-0.29215505719184875,0.09680480509996414
1768418181593939000,5.88193896484375,-0.04886263236403465,-0.35249990224838257,0.08886240422725677
1768418181603940900,5.89194091796875,-0.09382930397987366,-0.3851318955421448,0.08899183571338654
1768418181613942800,5.90194287109375,-0.13510271906852722,-0.3930031955242157,0.0862387865781784
1768418181623943700,5.911943603515625,-0.18349075317382812,-0.3872758150100708,0.06951120495796204
1768418181633945900,5.92194580078125,-0.23367013037204742,-0.38597655296325684,0.03920844942331314
1768418181643947000,5.931947021484375,-0.275114506483078,-0.38101670145988464,-0.0028234198689460754
1768418181653948700,5.94194873046875,-0.2993723452091217,-0.3771626353263855,-0.04537639766931534
1768418181663950800,5.951950927734375,-0.3028043806552887,-0.3847214877605438,-0.08258155733346939
1768418181673951700,5.96195166015625,-0.30283620953559875,-0.4045468866825104,-0.09961287677288055
1768418181683953700,5.97195361328125,-0.31760451197624207,-0.40801486372947693,-0.09283486753702164
1768418181693955000,5.981955078125,-0.3487309515476227,-0.37446433305740356,-0.06763806939125061
1768418181703956700,5.991956787109375,-0.40133291482925415,-0.3458966016769409,-0.021690286695957184
1768418181713958700,6.001958740234375,-0.41274571418762207,-0.4456707537174225,0.05665655806660652
1768418181723959800,6.011959716796875,-0.3425423800945282,-0.5613028407096863,0.1591004580259323
1768418181733961700,6.021961669921875,-0.23534590005874634,-0.539056658744812,0.23715238273143768
1768418181743963000,6.031962890625,-0.11304347962141037,-0.4557405114173889,0.21697717905044556
1768418181753964800,6.04196484375,0.0033885897137224674,-0.3843710124492645,0.1205768883228302
1768418181763966700,6.051966796875,0.06556428968906403,-0.35895952582359314,0.03972196206450462
1768418181773967600,6.061967529296875,0.08685147017240524,-0.4021133780479431,-0.009906042367219925
1768418181783969800,6.0719697265625,0.09045149385929108,-0.4581117331981659,-0.041328735649585724
1768418181793971000,6.081970947265625,0.12956400215625763,-0.44693100452423096,-0.04910143464803696
1768418181803972900,6.091972900390625,0.21064943075180054,-0.407300740480423,-0.039418842643499374
1768418181813974800,6.101974853515625,0.2980319857597351,-0.3257185220718384,0.001020193099975586
1768418181823975700,6.1119755859375,0.3508661389350891,-0.2272767722606659,0.040306635200977325
1768418181833977900,6.121977783203125,0.33037257194519043,-0.14559176564216614,0.04745109751820564
1768418181843979000,6.13197900390625,0.22276735305786133,-0.03047274611890316,0.003213572548702359
1768418181853980700,6.141980712890625,0.1335490494966507,0.24258115887641907,-0.009308877401053905
1768418181863982800,6.15198291015625,0.17768889665603638,0.6047059297561646,0.05240235850214958
1768418181873983700,6.161983642578125,0.278883159160614,0.6148533821105957,0.03778906166553497
1768418181883985700,6.171985595703125,0.33830589056015015,0.41266971826553345,-0.03852749243378639
1768418181893986800,6.18198681640625,0.268383264541626,0.2102348655462265,-0.05445665866136551
1768418181903988700,6.19198876953125,0.12657314538955688,-0.026767536997795105,-0.026664752513170242
1768418181913990700,6.20199072265625,-0.006131914909929037,-0.2738763988018036,0.01023094728589058
1768418181923991800,6.21199169921875,-0.08769740164279938,-0.4332278072834015,0.12063808739185333
1768418181933993700,6.22199365234375,-0.14412525296211243,-0.48240309953689575,0.3195658326148987
1768418181943995000,6.231994873046875,-0.15453343093395233,-0.5111369490623474,0.48105883598327637
1768418181953996800,6.241996826171875,-0.12423150986433029,-0.5410625338554382,0.5042128562927246
1768418181963998700,6.251998779296875,-0.07200106233358383,-0.467782199382782,0.4470050036907196
1768418181973999600,6.26199951171875,-0.007049876730889082,-0.3070204555988312,0.4282721281051636
1768418181984001800,6.272001708984375,0.04548044130206108,-0.155569389462471,0.4367023706436157
1768418181994003000,6.2820029296875,0.0755925104022026,-0.06056786701083183,0.3848099112510681
1768418182004004900,6.2920048828125,0.07610197365283966,-0.004748541861772537,0.25005823373794556
1768418182014006800,6.3020068359375,0.0693565383553505,0.05106933042407036,0.10116798430681229
1768418182024007700,6.312007568359375,0.05162947252392769,0.11296598613262177,0.0020121028646826744
1768418182034009900,6.322009765625,0.013580003753304482,0.17773577570915222,-0.04232516139745712
1768418182044010800,6.3320107421875,-0.03580938279628754,0.23746488988399506,-0.05236980319023132
1768418182054012700,6.3420126953125,-0.08550837635993958,0.28563904762268066,-0.04000355675816536
1768418182064014800,6.352014892578125,-0.13355153799057007,0.3220098316669464,-0.011509064584970474
1768418182074015700,6.362015625,-0.17513801157474518,0.3441929221153259,0.016207249835133553
1768418182084017700,6.372017578125,-0.21641381084918976,0.3558325171470642,0.027479344978928566
1768418182094018800,6.382018798828125,-0.21446308493614197,0.38019102811813354,0.04303095117211342
1768418182104020700,6.392020751953125,-0.19193114340305328,0.41061097383499146,0.0589289590716362
1768418182114022700,6.402022705078125,-0.18020762503147125,0.43364202976226807,0.05979790538549423
1768418182124023800,6.41202392578125,-0.14516335725784302,0.44062137603759766,0.06927715986967087
1768418182134025700,6.422025634765625,-0.13598468899726868,0.4309353530406952,0.0811949297785759
1768418182144027000,6.43202685546875,-0.1151190921664238,0.3780210018157959,0.08444292098283768
1768418182154028800,6.44202880859375,-0.08154331147670746,0.312805712223053,0.08557900786399841
1768418182164030700,6.45203076171875,-0.041810281574726105,0.2644858658313751,0.1093868687748909
1768418182174031600,6.462031494140625,-0.009197627194225788,0.22347797453403473,0.15099214017391205
1768418182184033800,6.47203369140625,0.009903362952172756,0.1891855150461197,0.19936366379261017
1768418182194034700,6.48203466796875,0.0244181826710701,0.16296814382076263,0.25591304898262024
1768418182204036900,6.492036865234375,0.04541075602173805,0.164748877286911,0.3021646738052368
1768418182214038800,6.502038818359375,0.06176256760954857,0.17196017503738403,0.32721489667892456
1768418182224039700,6.512039794921875,0.07079621404409409,0.17899000644683838,0.3324141204357147
1768418182234041900,6.522041748046875,0.08307311683893204,0.19946011900901794,0.323204904794693
1768418182244042800,6.532042724609375,0.1045321598649025,0.21440517902374268,0.30912694334983826
1768418182254044700,6.542044677734375,0.126860111951828,0.22633667290210724,0.28726211190223694
1768418182264046800,6.552046875,0.1474272459745407,0.23418839275836945,0.25669655203819275
1768418182274047700,6.5620478515625,0.16233855485916138,0.23274150490760803,0.2158106416463852
1768418182284049700,6.572049560546875,0.17165051400661469,0.2383480966091156,0.17167435586452484
1768418182294050800,6.58205078125,0.16560673713684082,0.25007960200309753,0.13968020677566528
1768418182304052700,6.592052734375,0.15656441450119019,0.27527183294296265,0.11792077869176865
1768418182314055000,6.602054931640625,0.14124351739883423,0.31131505966186523,0.10497967898845673
1768418182324055800,6.612055908203125,0.13075457513332367,0.34199270606040955,0.08831708878278732
1768418182334057700,6.6220576171875,0.11804462969303131,0.36632415652275085,0.07205982506275177
1768418182344059000,6.632058837890625,0.08950766921043396,0.37764066457748413,0.06243707239627838
1768418182354060800,6.642060791015625,0.07684247940778732,0.40731093287467957,0.06630105525255203
1768418182364062700,6.652062744140625,0.06867785006761551,0.4635797441005707,0.07378403842449188
1768418182374063600,6.662063720703125,0.06542133539915085,0.4928699731826782,0.0922061875462532
1768418182384065800,6.672065673828125,0.06697650998830795,0.5195775628089905,0.12101706862449646
1768418182394066700,6.682066650390625,0.09642254561185837,0.5641770362854004,0.14978480339050293
1768418182404068400,6.692068359375,0.1700054407119751,0.5488561391830444,0.1382444053888321
1768418182414069500,6.702069580078125,0.2354331910610199,0.547615110874176,0.052864257246255875
1768418182424071400,6.712071533203125,0.25728923082351685,0.5590102076530457,-0.09312357753515244
1768418182434073300,6.7220732421875,0.19902397692203522,0.5372281670570374,-0.2663961350917816
1768418182444074500,6.732074462890625,0.0801956057548523,0.5390748381614685,-0.4319441020488739
1768418182454076400,6.742076416015625,-0.09006913006305695,0.5558757185935974,-0.5710740089416504
1768418182464077600,6.75207763671875,-0.2769812345504761,0.5791027545928955,-0.6727508306503296
1768418182474079500,6.76207958984375,-0.4303708076477051,0.610436737537384,-0.7002303600311279
1768418182484081400,6.772081298828125,-0.5260637402534485,0.6003656983375549,-0.6152890920639038
1768418182494082600,6.78208251953125,-0.5972673892974854,0.48896822333335876,-0.38128164410591125
1768418182504084200,6.792084228515625,-0.6872204542160034,0.30107688903808594,-0.07934390008449554
1768418182514085600,6.802085693359375,-0.8146448731422424,0.020249247550964355,0.13293638825416565
1768418182524087600,6.812087646484375,-0.9341747164726257,-0.2584633231163025,0.23434743285179138
1768418182534089200,6.822089111328125,-0.9690825343132019,-0.40052732825279236,0.34364449977874756
1768418182544090600,6.832090576171875,-0.8817899823188782,-0.5294517278671265,0.4179176688194275
1768418182554092300,6.84209228515625,-0.6488688588142395,-0.5641873478889465,0.40508177876472473
1768418182564093400,6.852093505859375,-0.3735906481742859,-0.4451427161693573,0.25971925258636475
1768418182574095400,6.862095458984375,-0.13863545656204224,-0.22815512120723724,-0.0417458638548851
1768418182584097300,6.87209716796875,0.0815616250038147,0.07161454856395721,-0.36047646403312683
1768418182594098400,6.882098388671875,0.25218528509140015,0.40074580907821655,-0.6200866103172302
1768418182604100400,6.892100341796875,0.3415607213973999,0.6105088591575623,-0.8284672498703003
1768418182614101500,6.9021015625,0.35113731026649475,0.5530464053153992,-0.9355025291442871
1768418182624103400,6.912103515625,0.2406182736158371,0.4217163622379303,-0.8561736345291138
1768418182634104600,6.9221044921875,0.06878629326820374,0.293337881565094,-0.5764899253845215
1768418182644106500,6.9321064453125,-0.06486337631940842,0.14460594952106476,-0.19559744000434875
1768418182654108400,6.9421083984375,-0.13201232254505157,0.013930979184806347,0.16283109784126282
1768418182664109600,6.952109619140625,-0.15119214355945587,-0.117638498544693,0.4492442309856415
1768418182674111500,6.962111572265625,-0.13205945491790771,-0.30435672402381897,0.6548338532447815
1768418182684112600,6.972112548828125,-0.06359156966209412,-0.46968385577201843,0.7469040155410767
1768418182694114600,6.982114501953125,0.06734167784452438,-0.5901975035667419,0.7073715329170227
1768418182704116200,6.9921162109375,0.2086619734764099,-0.6667385101318359,0.5563414096832275
1768418182714117600,7.00211767578125,0.29609328508377075,-0.6980863213539124,0.33721256256103516
1768418182724119600,7.01211962890625,0.31867149472236633,-0.7053702473640442,0.0953015461564064
1768418182734120400,7.022120361328125,0.32212185859680176,-0.710538923740387,-0.11399521678686142
1768418182744122600,7.03212255859375,0.31246668100357056,-0.7086926102638245,-0.2560617923736572
1768418182754123500,7.04212353515625,0.31053242087364197,-0.6820479035377502,-0.3132856488227844
1768418182764125400,7.05212548828125,0.31856733560562134,-0.64764004945755,-0.29610732197761536
1768418182774127400,7.06212744140625,0.32478129863739014,-0.5672293901443481,-0.2310553640127182
1768418182784128500,7.07212841796875,0.32573962211608887,-0.4708557426929474,-0.14170315861701965
1768418182794130400,7.08213037109375,0.32900333404541016,-0.37483760714530945,-0.03544754907488823
1768418182804131600,7.092131591796875,0.32820120453834534,-0.27353227138519287,0.06323225051164627
1768418182814133500,7.102133544921875,0.3174830377101898,-0.20227035880088806,0.12901632487773895
1768418182824135400,7.112135498046875,0.30159687995910645,-0.15603575110435486,0.14980770647525787
1768418182834136600,7.122136474609375,0.2742536962032318,-0.12027882039546967,0.1390211135149002
1768418182844138500,7.132138427734375,0.2377711832523346,-0.10698771476745605,0.11921842396259308
1768418182854139400,7.142139404296875,0.18483899533748627,-0.11770959198474884,0.10359605401754379
1768418182864141600,7.1521416015625,0.13156478106975555,-0.13723817467689514,0.09076625853776932
1768418182874142500,7.162142578125,0.09104825556278229,-0.15417693555355072,0.08791134506464005
1768418182884144600,7.17214453125,0.06409446150064468,-0.16865111887454987,0.08778362721204758
1768418182894146600,7.182146484375,0.04934161156415939,-0.2082238346338272,0.0855947732925415
1768418182904147500,7.1921474609375,0.029477981850504875,-0.24830874800682068,0.08205710351467133
1768418182914149600,7.202149658203125,-0.006469632498919964,-0.27032509446144104,0.08183925598859787
1768418182924150500,7.212150634765625,-0.041581280529499054,-0.27717605233192444,0.07749102264642715
1768418182934152400,7.22215234375,-0.06830929964780807,-0.29138320684432983,0.06176452338695526
1768418182944154600,7.232154541015625,-0.09908665716648102,-0.31366828083992004,0.04004298150539398
1768418182954155500,7.242155517578125,-0.14314419031143188,-0.3413064181804657,0.031903546303510666
1768418182964157400,7.252157470703125,-0.20395773649215698,-0.363027423620224,0.03961632400751114
1768418182974158600,7.26215869140625,-0.259854257106781,-0.364719033241272,0.05764069780707359
1768418182984160500,7.272160400390625,-0.28866031765937805,-0.3419351577758789,0.0707317367196083
1768418182994161400,7.282161376953125,-0.27701056003570557,-0.3036225736141205,0.0748022198677063
1768418183004163600,7.29216357421875,-0.2454221099615097,-0.2439383715391159,0.06354690343141556
1768418183014165500,7.30216552734375,-0.2381894886493683,-0.16837091743946075,0.03903570398688316
1768418183024166400,7.31216650390625,-0.28765690326690674,-0.04507827013731003,0.0239598136395216
1768418183034168600,7.32216845703125,-0.349331259727478,-0.08560346066951752,0.01544167473912239
1768418183044169500,7.33216943359375,-0.34506940841674805,-0.2901456952095032,0.06191277131438255
1768418183054171400,7.34217138671875,-0.2875344455242157,-0.3789811432361603,0.1938195824623108
1768418183064173600,7.352173583984375,-0.23861084878444672,-0.3906218409538269,0.2732454240322113
1768418183074174500,7.362174560546875,-0.17330427467823029,-0.3443264961242676,0.23577262461185455
1768418183084176600,7.3721767578125,-0.08094001561403275,-0.2786847651004791,0.16216826438903809
1768418183094177500,7.382177490234375,0.011279300786554813,-0.29530009627342224,0.11607299745082855
1768418183104179500,7.392179443359375,0.10529341548681259,-0.39763256907463074,0.056282371282577515
1768418183114180400,7.402180419921875,0.18302415311336517,-0.5046722888946533,-0.020549112930893898
1768418183124182500,7.4121826171875,0.25680118799209595,-0.5553283095359802,-0.07563553750514984
1768418183134184400,7.422184326171875,0.3428513705730438,-0.5172450542449951,-0.09992711991071701
1768418183144185600,7.432185546875,0.42189905047416687,-0.41142940521240234,-0.13453036546707153
1768418183154187500,7.4421875,0.43214452266693115,-0.2760200798511505,-0.190807044506073
1768418183164188400,7.4521884765625,0.33417022228240967,-0.060826707631349564,-0.2588497996330261
1768418183174190600,7.462190673828125,0.22362452745437622,0.290530264377594,-0.23442569375038147
1768418183184191500,7.47219140625,0.2555054724216461,0.49633365869522095,-0.17229487001895905
1768418183194193400,7.482193359375,0.3205292224884033,0.43283721804618835,-0.2005603164434433
1768418183204195600,7.492195556640625,0.2889255881309509,0.2365787774324417,-0.2425796389579773
1768418183214196500,7.502196533203125,0.21043211221694946,-0.005615756846964359,-0.20265592634677887
1768418183224198400,7.512198486328125,0.12948529422283173,-0.30191323161125183,-0.08180098235607147
1768418183234199600,7.522199462890625,0.0855330303311348,-0.5163088440895081,0.1229550912976265
1768418183244201500,7.532201416015625,0.0726827085018158,-0.6107755899429321,0.34980911016464233
1768418183254203400,7.542203369140625,0.0988626480102539,-0.6664282083511353,0.5261210203170776
1768418183264204500,7.55220458984375,0.12581828236579895,-0.644596517086029,0.5882665514945984
1768418183274206500,7.56220654296875,0.10684565454721451,-0.4900525212287903,0.5201322436332703
1768418183284207400,7.572207275390625,0.09562063962221146,-0.22690221667289734,0.46934303641319275
1768418183294209500,7.58220947265625,0.10513744503259659,0.023504160344600677,0.44878584146499634
1768418183304210400,7.59221044921875,0.113839291036129,0.1846725046634674,0.3617672622203827
1768418183314212400,7.60221240234375,0.07595529407262802,0.287063866853714,0.1632421761751175
1768418183324214500,7.612214599609375,0.027718285098671913,0.37601879239082336,-0.0407407321035862
1768418183334215400,7.62221533203125,-0.019019393250346184,0.4620639383792877,-0.15373413264751434
1768418183344217600,7.632217529296875,-0.08580256998538971,0.5153042674064636,-0.1746923178434372
1768418183354218500,7.642218505859375,-0.15536753833293915,0.5341817736625671,-0.14217539131641388
1768418183364220400,7.652220458984375,-0.20185594260692596,0.5414569973945618,-0.08900751173496246
1768418183374221300,7.66222119140625,-0.24258649349212646,0.5655800700187683,-0.01834595948457718
1768418183384223500,7.672223388671875,-0.2829248607158661,0.5957145094871521,0.05780446529388428
1768418183394225400,7.682225341796875,-0.3116748631000519,0.618258535861969,0.1348865032196045
1768418183404226600,7.6922265625,-0.320736825466156,0.6106410622596741,0.20394094288349152
1768418183414228200,7.702228271484375,-0.30759721994400024,0.6114750504493713,0.2738185226917267
1768418183424229400,7.7122294921875,-0.2726221978664398,0.6167952418327332,0.31837135553359985
1768418183434231300,7.722231201171875,-0.2354959398508072,0.5909005999565125,0.3323943614959717
1768418183444232200,7.732232177734375,-0.2038581222295761,0.567764937877655,0.3400360345840454
1768418183454234400,7.742234375,-0.17402279376983643,0.5055597424507141,0.34626543521881104
1768418183464236300,7.752236328125,-0.14398740231990814,0.3956790566444397,0.3367646336555481
1768418183474237200,7.7622373046875,-0.11310623586177826,0.2823053002357483,0.3057604730129242
1768418183484239400,7.7722392578125,-0.07041070610284805,0.20376867055892944,0.2752971053123474
1768418183494240300,7.782240234375,-0.034494515508413315,0.15272393822669983,0.27438032627105713
1768418183504242400,7.792242431640625,-0.004592960700392723,0.1176990494132042,0.27895501255989075
1768418183514243300,7.802243408203125,0.0353643074631691,0.08309393376111984,0.28197771310806274
1768418183524245200,7.812245361328125,0.06495656073093414,0.042964622378349304,0.2643220126628876
1768418183534247400,7.822247314453125,0.10205305367708206,0.028729518875479698,0.23467537760734558
1768418183544248300,7.832248291015625,0.15030954778194427,0.04202614724636078,0.20739209651947021
1768418183554250200,7.842250244140625,0.1846008002758026,0.0687432587146759,0.1705261468887329
1768418183564251400,7.85225146484375,0.19941410422325134,0.09789741784334183,0.14454621076583862
1768418183574253300,7.86225341796875,0.2089853435754776,0.12805864214897156,0.15146607160568237
1768418183584254200,7.872254150390625,0.2143809050321579,0.1507892608642578,0.18412521481513977
1768418183594256400,7.88225634765625,0.2157202959060669,0.18376712501049042,0.23868700861930847
1768418183604258300,7.89225830078125,0.2154931277036667,0.2341725081205368,0.2893446087837219
1768418183614259200,7.90225927734375,0.2218751162290573,0.27479639649391174,0.2997373044490814
1768418183624261400,7.912261474609375,0.22259080410003662,0.30416935682296753,0.2508726418018341
1768418183634262300,7.92226220703125,0.20465867221355438,0.34731683135032654,0.20237062871456146
1768418183644264200,7.93226416015625,0.17832829058170319,0.3872930407524109,0.19790267944335938
1768418183654265300,7.942265380859375,0.151312917470932,0.40294018387794495,0.2071148306131363
1768418183664267300,7.952267333984375,0.11764343827962875,0.40199142694473267,0.16495199501514435
1768418183674269200,7.962269287109375,0.10506799072027206,0.39302295446395874,0.08654134720563889
1768418183684270300,7.972270263671875,0.10159854590892792,0.36130490899086,0.015757625922560692
1768418183694272300,7.982272216796875,0.13113859295845032,0.3240334391593933,-0.03295345604419708
1768418183704273200,7.992273193359375,0.14781971275806427,0.28770026564598083,-0.1132681742310524
1768418183714275300,8.002275390625,0.10488556325435638,0.20849038660526276,-0.21857835352420807
1768418183724276200,8.012276123046876,0.016046004369854927,0.13358213007450104,-0.3007435202598572
1768418183734278100,8.022278076171874,-0.09897485375404358,0.09054945409297943,-0.34967535734176636
1768418183744280300,8.0322802734375,-0.2168678641319275,0.11301761865615845,-0.37220412492752075
1768418183754281200,8.04228125,-0.3165731728076935,0.21347098052501678,-0.3571205139160156
1768418183764283400,8.052283447265625,-0.36029449105262756,0.3034878373146057,-0.27804556488990784
1768418183774284300,8.0622841796875,-0.3721202611923218,0.2662288546562195,-0.16681227087974548
1768418183784286200,8.0722861328125,-0.42452189326286316,0.09524204581975937,-0.03058619052171707
1768418183794287000,8.082287109375,-0.5282424092292786,-0.10914997011423111,0.15623483061790466
1768418183804289300,8.092289306640625,-0.6301318407058716,-0.34626689553260803,0.3008396029472351
1768418183814291200,8.102291259765625,-0.7020734548568726,-0.5694970488548279,0.35540804266929626
1768418183824292400,8.112292236328125,-0.7354408502578735,-0.7343526482582092,0.35370054841041565
1768418183834294300,8.122294189453125,-0.7012442946434021,-0.8396031856536865,0.31116345524787903
1768418183844295200,8.132295166015625,-0.569232702255249,-0.8155676126480103,0.16320648789405823
1768418183854297300,8.14229736328125,-0.4046352803707123,-0.6121061444282532,-0.143903911113739
1768418183864298200,8.15229833984375,-0.2392364740371704,-0.2519327998161316,-0.45451876521110535
1768418183874300200,8.162300048828126,-0.07454544305801392,0.1071547269821167,-0.6791861653327942
1768418183884302300,8.17230224609375,0.07897939532995224,0.42760249972343445,-0.7920874357223511
1768418183894303200,8.18230322265625,0.20054486393928528,0.6567220687866211,-0.8100746273994446
1768418183904305200,8.19230517578125,0.24279263615608215,0.747862696647644,-0.7631879448890686
1768418183914306300,8.202306396484374,0.20162415504455566,0.7316579222679138,-0.6704369187355042
1768418183924308200,8.21230810546875,0.13459338247776031,0.6515059471130371,-0.5425138473510742
1768418183934309000,8.22230908203125,0.08897477388381958,0.5013209581375122,-0.3901214003562927
1768418183944311300,8.232311279296875,0.05257069692015648,0.3081456422805786,-0.2041397988796234
1768418183954313200,8.242313232421875,0.03622119873762131,0.11201083660125732,-0.011582414619624615
1768418183964314000,8.252314208984375,0.05258019641041756,-0.05976598337292671,0.1375998854637146
1768418183974316300,8.26231640625,0.10282795131206512,-0.16830462217330933,0.18491703271865845
1768418183984317200,8.272317138671875,0.15403121709823608,-0.22083812952041626,0.14997555315494537
1768418183994319000,8.282319091796875,0.1835465282201767,-0.2259572148323059,0.07525236159563065
1768418184004320300,8.2923203125,0.1760505884885788,-0.21322529017925262,-0.03904116898775101
1768418184014322200,8.302322265625,0.1527218371629715,-0.19705484807491302,-0.1637418121099472
1768418184024323300,8.3123232421875,0.15103578567504883,-0.2060432881116867,-0.268754243850708
1768418184034325200,8.3223251953125,0.16693900525569916,-0.2112516164779663,-0.32345566153526306
1768418184044327200,8.3323271484375,0.20005834102630615,-0.19515042006969452,-0.3200755715370178
1768418184054328300,8.342328369140626,0.23216117918491364,-0.1682950258255005,-0.2799007296562195
1768418184064330200,8.352330322265624,0.2544955015182495,-0.14267408847808838,-0.2303486168384552
1768418184074331400,8.362331298828124,0.26092827320098877,-0.13370607793331146,-0.17463721334934235
1768418184084333300,8.372333251953124,0.26659947633743286,-0.11726611107587814,-0.1100824698805809
1768418184094334500,8.38233447265625,0.26086482405662537,-0.09161440283060074,-0.041469916701316833
1768418184104336400,8.39233642578125,0.24236030876636505,-0.07716879993677139,0.02299954742193222
1768418184114337300,8.402337158203125,0.20144377648830414,-0.07711286842823029,0.07406166195869446
1768418184124339500,8.41233935546875,0.15465866029262543,-0.07765433937311172,0.10300111770629883
1768418184134341000,8.422341064453125,0.11735496670007706,-0.08723213523626328,0.10368049144744873
1768418184144342500,8.432342529296875,0.09085919708013535,-0.08576495200395584,0.08719850331544876
1768418184154344400,8.442344482421875,0.07112943381071091,-0.0761466771364212,0.061787690967321396
1768418184164345300,8.452345458984375,0.055624570697546005,-0.062217727303504944,0.03229542449116707
1768418184174347500,8.462347412109375,0.04336231201887131,-0.051874540746212006,0.0046555399894714355
1768418184184348400,8.472348388671875,0.031495120376348495,-0.0388101227581501,-0.01439588237553835
1768418184194350300,8.482350341796876,0.007832402363419533,-0.03435837849974632,-0.021641544997692108
1768418184204352300,8.492352294921876,-0.010496595874428749,-0.046318430453538895,-0.0075178989209234715
1768418184214353400,8.502353515625,-0.021679209545254707,-0.08913913369178772,0.01795630156993866
1768418184224355300,8.512355224609376,-0.03086957149207592,-0.16974839568138123,0.044066231697797775
1768418184234356500,8.5223564453125,-0.056998111307621,-0.2654517590999603,0.05596310645341873
1768418184244358400,8.5323583984375,-0.10738426446914673,-0.3591352701187134,0.048435792326927185
1768418184254359300,8.542359375,-0.1657857745885849,-0.44903478026390076,0.026677768677473068
1768418184264361500,8.552361572265625,-0.23574255406856537,-0.5333950519561768,0.005693544168025255
1768418184274362400,8.5623623046875,-0.3145633637905121,-0.5964581966400146,0.005146530922502279
1768418184284364300,8.5723642578125,-0.3969596326351166,-0.5979401469230652,0.023631645366549492
1768418184294366500,8.582366455078125,-0.44972988963127136,-0.5395018458366394,0.04527249187231064
1768418184304367400,8.592367431640625,-0.47187310457229614,-0.39647430181503296,0.051312416791915894
1768418184314369300,8.602369384765625,-0.47701752185821533,-0.3450622260570526,-0.011992515996098518
1768418184324370400,8.612370361328125,-0.4581490457057953,-0.5527829527854919,-0.1311841458082199
1768418184334372400,8.622372314453125,-0.4212498366832733,-0.6575572490692139,-0.18609832227230072
1768418184344373200,8.632373291015625,-0.35877901315689087,-0.5403416752815247,-0.2063409984111786
1768418184354375400,8.64237548828125,-0.2663123607635498,-0.31092825531959534,-0.24516038596630096
1768418184364376300,8.652376220703125,-0.14834150671958923,-0.18210050463676453,-0.22778326272964478
1768418184374378200,8.662378173828126,-0.05099957808852196,-0.27706947922706604,-0.178885355591774
1768418184384380400,8.67238037109375,0.02257983386516571,-0.4809397757053375,-0.14453350007534027
1768418184394381300,8.68238134765625,0.1420254409313202,-0.5647416114807129,-0.07394067943096161
1768418184404383500,8.692383544921874,0.33538544178009033,-0.49645930528640747,0.05996275693178177
1768418184414385200,8.70238525390625,0.4984681010246277,-0.3104601502418518,0.21107104420661926
1768418184424387300,8.71238720703125,0.5524309873580933,-0.03248978033661842,0.32995614409446716
1768418184434388200,8.72238818359375,0.5001159310340881,0.34323063492774963,0.3882869482040405
1768418184444390400,8.732390380859375,0.46062445640563965,0.7561290264129639,0.3299104571342468
1768418184454392300,8.742392333984375,0.42974862456321716,0.9352168440818787,0.17824353277683258
1768418184464393200,8.752393310546875,0.3928294777870178,0.912481963634491,0.022143937647342682
1768418184474395400,8.7623955078125,0.3324977457523346,0.7528164982795715,-0.1767638772726059
1768418184484396300,8.772396240234375,0.19404639303684235,0.44904404878616333,-0.31997084617614746
1768418184494398200,8.782398193359375,0.05909484997391701,0.00152894901111722,-0.33766400814056396
1768418184504399400,8.7923994140625,-0.02422306127846241,-0.4040851593017578,-0.24529196321964264
1768418184514401300,8.8024013671875,-0.03595641627907753,-0.6620330810546875,-0.06795739382505417
1768418184524402200,8.812402099609375,0.0057215215638279915,-0.8320788741111755,0.13056528568267822
1768418184534404400,8.822404296875,-0.007564928848296404,-0.8773819804191589,0.24743035435676575
1768418184544405200,8.8324052734375,-0.09840242564678192,-0.72464919090271,0.3029910922050476
1768418184554407200,8.8424072265625,-0.09469231218099594,-0.42565304040908813,0.425580233335495
1768418184564409300,8.852409423828124,0.018106935545802116,-0.14644113183021545,0.5622389912605286
1768418184574410200,8.86241015625,0.12021274119615555,0.012399030849337578,0.5400696396827698
1768418184584412200,8.872412109375,0.11600112915039062,0.08182106167078018,0.2891779839992523
1768418184594413300,8.882413330078125,0.04789930582046509,0.12989777326583862,-0.019616596400737762
1768418184604415200,8.892415283203125,-0.013391038402915001,0.16671763360500336,-0.22917304933071136
1768418184614416100,8.902416015625,-0.06265685707330704,0.24731874465942383,-0.30053749680519104
1768418184624418300,8.912418212890625,-0.08205754309892654,0.3358716368675232,-0.2758999466896057
1768418184634420200,8.922420166015625,-0.09550623595714569,0.41791778802871704,-0.2484382539987564
1768418184644421000,8.932421142578125,-0.12712165713310242,0.49859482049942017,-0.2498134970664978
1768418184654423300,8.94242333984375,-0.18295882642269135,0.594173014163971,-0.25591588020324707
1768418184664424200,8.952424072265625,-0.2393798679113388,0.6565066576004028,-0.24573063850402832
1768418184674426000,8.962426025390625,-0.2675366997718811,0.6906766295433044,-0.20764078199863434
1768418184684427300,8.97242724609375,-0.2715958058834076,0.720251202583313,-0.13696399331092834
1768418184694429200,8.98242919921875,-0.26501592993736267,0.7354677319526672,-0.05693812295794487
1768418184704430000,8.99243017578125,-0.25423553586006165,0.7144986391067505,0.005974515341222286
1768418184714432300,9.002432373046876,-0.23897427320480347,0.6516786813735962,0.036804601550102234
1768418184724434200,9.01243408203125,-0.2332683652639389,0.5640385150909424,0.04338880628347397
1768418184734435000,9.02243505859375,-0.21946333348751068,0.4602183699607849,0.05375968664884567
1768418184744437200,9.032437255859374,-0.2053065299987793,0.342162549495697,0.08189667761325836
1768418184754438100,9.042438232421874,-0.201762393116951,0.21944567561149597,0.1257413625717163
1768418184764440300,9.0524404296875,-0.18195751309394836,0.13316033780574799,0.18449239432811737
1768418184774441200,9.062441162109375,-0.13917089998722076,0.083621546626091,0.257984459400177
1768418184784443100,9.072443115234375,-0.10262912511825562,0.022188812494277954,0.311703622341156
1768418184794444000,9.082444091796875,-0.05404520034790039,-0.02216133289039135,0.3305627107620239
1768418184804446200,9.0924462890625,-0.02033958025276661,-0.04876040667295456,0.3388456702232361
1768418184814448000,9.1024482421875,0.0011286940425634384,-0.05510672181844711,0.3198125958442688
1768418184824449000,9.112448974609375,0.029678845778107643,-0.058483343571424484,0.29324406385421753
1768418184834451200,9.122451171875,0.05784863606095314,-0.061196476221084595,0.2529235780239105
1768418184844452000,9.1324521484375,0.08640971034765244,-0.06699444353580475,0.20672707259655
1768418184854454300,9.142454345703126,0.11365094780921936,-0.0718141570687294,0.15726551413536072
1768418184864455200,9.152455078125,0.12669724225997925,-0.08750071376562119,0.1027013435959816
1768418184874457000,9.16245703125,0.12461666017770767,-0.09881801158189774,0.03992699459195137
1768418184884458000,9.1724580078125,0.12060780078172684,-0.10074720531702042,-0.019375745207071304
1768418184894460200,9.182460205078126,0.11416372656822205,-0.09138499200344086,-0.06542171537876129
1768418184904462000,9.192462158203124,0.1049574464559555,-0.064176544547081,-0.08836884051561356
1768418184914463200,9.202463134765624,0.08468294143676758,-0.008024528622627258,-0.09152645617723465
1768418184924465200,9.212465087890624,0.05876343324780464,0.06519874930381775,-0.08480757474899292
1768418184934466000,9.222466064453124,0.03961104527115822,0.13607372343540192,-0.09362103790044785
1768418184944468200,9.23246826171875,0.03979559987783432,0.1796017587184906,-0.11063703894615173
1768418184954469000,9.24246923828125,0.062188733369112015,0.20312613248825073,-0.09546907246112823
1768418184964471000,9.252470947265625,0.12530378997325897,0.18269649147987366,-0.044556625187397
1768418184974472200,9.26247216796875,0.2266586422920227,0.17204809188842773,0.003938254900276661
1768418184984474000,9.27247412109375,0.284883588552475,0.18452313542366028,-0.026411928236484528
1768418184994475000,9.28247509765625,0.22849535942077637,0.1339043825864792,-0.12670966982841492
1768418185004477200,9.292477294921875,0.09068656712770462,0.08877986669540405,-0.24573828279972076
1768418185014479000,9.30247900390625,-0.06105182319879532,0.057562824338674545,-0.3752523362636566
1768418185024480000,9.31247998046875,-0.2011500746011734,0.08784456551074982,-0.5012137293815613
1768418185034482200,9.322482177734376,-0.31740981340408325,0.18588842451572418,-0.594240128993988
1768418185044483000,9.332483154296876,-0.3962143361568451,0.3016429543495178,-0.6117732524871826
1768418185054485000,9.342485107421876,-0.43256035447120667,0.3958709239959717,-0.5383152961730957
1768418185064486100,9.352486083984376,-0.4464012384414673,0.40249893069267273,-0.4343225359916687
1768418185074488000,9.362488037109374,-0.4952332377433777,0.38095447421073914,-0.29198136925697327
1768418185084489200,9.3724892578125,-0.5343051552772522,0.3299669623374939,-0.1355956345796585
1768418185094491100,9.3824912109375,-0.5270597338676453,0.1496717631816864,-0.1036081463098526
1768418185104493000,9.3924931640625,-0.512994647026062,-0.13924796879291534,-0.194898784160614
1768418185114494200,9.402494140625,-0.5714806318283081,-0.2761296331882477,-0.20352768898010254
1768418185124496100,9.41249609375,-0.6411692500114441,-0.24860934913158417,-0.12243765592575073
1768418185134497300,9.422497314453125,-0.6059601306915283,-0.18449056148529053,-0.16418802738189697
1768418185144499000,9.4324990234375,-0.47963663935661316,-0.15437009930610657,-0.4070274531841278
1768418185154500400,9.442500244140625,-0.3074571490287781,-0.0585319846868515,-0.6737840175628662
1768418185164502000,9.452501953125,-0.1589640974998474,0.17033235728740692,-0.7929179072380066
1768418185174503200,9.462503173828125,-0.04428412392735481,0.4288368821144104,-0.8066264986991882
1768418185184505300,9.47250537109375,0.03463652357459068,0.629635214805603,-0.776524543762207
1768418185194507000,9.482507080078125,0.09340370446443558,0.7777397632598877,-0.7031421661376953
1768418185204508200,9.492508056640625,0.139339417219162,0.8481162786483765,-0.6071443557739258
1768418185214510000,9.502510009765626,0.1762036830186844,0.8238000273704529,-0.4819504916667938
1768418185224511200,9.51251123046875,0.2055169641971588,0.6997129321098328,-0.32538801431655884
1768418185234513400,9.522513427734374,0.22234894335269928,0.4924907982349396,-0.14539507031440735
1768418185244514300,9.532514404296874,0.21697911620140076,0.25745889544487,0.03917315974831581
1768418185254516200,9.54251611328125,0.2096378356218338,0.022451434284448624,0.18385550379753113
1768418185264517000,9.55251708984375,0.21057073771953583,-0.15867388248443604,0.24249273538589478
1768418185274519300,9.562519287109374,0.23092670738697052,-0.30119383335113525,0.21523481607437134
1768418185284521200,9.572521240234375,0.27440547943115234,-0.39702263474464417,0.13452506065368652
1768418185294522400,9.5825224609375,0.2967889904975891,-0.44936054944992065,0.03180147707462311
1768418185304524300,9.592524169921875,0.2872532904148102,-0.4853323996067047,-0.06745453178882599
1768418185314525200,9.602525146484375,0.26647502183914185,-0.5133408308029175,-0.15297476947307587
1768418185324527400,9.61252734375,0.24949496984481812,-0.4958028793334961,-0.2040019929409027
1768418185334528300,9.6225283203125,0.24785932898521423,-0.46139824390411377,-0.20948128402233124
1768418185344530200,9.6325302734375,0.2436206340789795,-0.4106817841529846,-0.18724627792835236
1768418185354531300,9.64253125,0.2498406022787094,-0.3570783734321594,-0.13028927147388458
1768418185364533200,9.652533203125,0.2667442262172699,-0.2947870194911957,-0.03846347704529762
1768418185374535200,9.66253515625,0.28814107179641724,-0.218292698264122,0.049997713416814804
1768418185384536300,9.672536376953126,0.2995050549507141,-0.14286744594573975,0.1084759384393692
1768418185394538200,9.682538330078126,0.2885132431983948,-0.07756747305393219,0.12977518141269684
1768418185404539100,9.6925390625,0.26650089025497437,-0.03667277470231056,0.13024497032165527
1768418185414541000,9.702541015625,0.23478829860687256,0.004200473427772522,0.1297912299633026
1768418185424542200,9.712542236328124,0.20584186911582947,0.024725455790758133,0.1343790590763092
1768418185434544000,9.722544189453124,0.177472785115242,0.019560212269425392,0.15527735650539398
1768418185444545000,9.732544921875,0.16306188702583313,0.005174613557755947,0.17183449864387512
1768418185454547200,9.742547119140625,0.14416371285915375,-0.025092175230383873,0.18117406964302063
1768418185464549000,9.752549072265625,0.11635976284742355,-0.07414733618497849,0.16804549098014832
1768418185474550000,9.762550048828125,0.08879708498716354,-0.14643359184265137,0.1372542679309845
1768418185484552200,9.77255224609375,0.05861814320087433,-0.22281278669834137,0.09585198014974594
1768418185494553000,9.782552978515625,0.014378630556166172,-0.28408947587013245,0.07588128000497818
1768418185504555000,9.792554931640625,-0.03386876359581947,-0.32618170976638794,0.07393930852413177
1768418185514556200,9.80255615234375,-0.07243373245000839,-0.3656274080276489,0.08090826869010925
1768418185524558000,9.81255810546875,-0.1051267609000206,-0.3943662643432617,0.10088782757520676
1768418185534559000,9.82255908203125,-0.15237122774124146,-0.41416046023368835,0.1322915405035019
1768418185544561200,9.83256103515625,-0.21505455672740936,-0.4154190123081207,0.1428137570619583
1768418185554562000,9.84256201171875,-0.26524820923805237,-0.40631553530693054,0.13086654245853424
1768418185564564000,9.85256396484375,-0.2779065668582916,-0.3946739137172699,0.12050189077854156
1768418185574566100,9.862566162109376,-0.2684006989002228,-0.3343975245952606,0.1373533010482788
1768418185584567000,9.872567138671876,-0.2568013072013855,-0.22665758430957794,0.17011208832263947
1768418185594569200,9.8825693359375,-0.275290846824646,-0.0734587162733078,0.1820278763771057
1768418185604570000,9.892570068359374,-0.31880131363868713,0.05105847492814064,0.17804373800754547
1768418185614572000,9.902572021484374,-0.3211837708950043,-0.0728786513209343,0.18577595055103302
1768418185624573000,9.912572998046874,-0.2664467394351959,-0.2319214791059494,0.21599112451076508
1768418185634575000,9.9225751953125,-0.21529939770698547,-0.25594931840896606,0.23354321718215942
1768418185644577000,9.932576904296875,-0.1783429980278015,-0.26821061968803406,0.16451306641101837
1768418185654578200,9.942578125,-0.11010802537202835,-0.26573067903518677,0.05979117751121521
1768418185664580000,9.952580078125,-0.029853280633687973,-0.2474054992198944,0.041552916169166565
1768418185674581000,9.9625810546875,0.012502966448664665,-0.29215165972709656,0.055442098528146744
1768418185684583200,9.972583251953125,0.019569190219044685,-0.40113264322280884,0.03753747045993805
1768418185694584000,9.982583984375,0.01996014267206192,-0.525301456451416,-0.011016752570867538
1768418185704586000,9.9925859375,0.059675272554159164,-0.6038552522659302,-0.028428345918655396
1768418185714587100,10.002587158203125,0.1262092888355255,-0.6073578596115112,0.02345828339457512
1768418185724589000,10.012589111328126,0.18467842042446136,-0.5520416498184204,0.12057768553495407
1768418185734591000,10.022591064453126,0.22160261869430542,-0.4661930501461029,0.20857304334640503
1768418185744592100,10.032592041015626,0.22018694877624512,-0.3409236967563629,0.23762793838977814
1768418185754594000,10.042593994140624,0.17619206011295319,-0.18653813004493713,0.19981132447719574
1768418185764595000,10.052594970703124,0.10445049405097961,-0.031092872843146324,0.1257900893688202
1768418185774597000,10.06259716796875,0.02885027602314949,0.1789000928401947,0.06419587135314941
1768418185784598000,10.072597900390624,-0.0012564919888973236,0.3973115086555481,-0.013849666342139244
1768418185794600000,10.082599853515624,0.07127736508846283,0.44305241107940674,-0.13349004089832306
1768418185804601000,10.09260107421875,0.14774471521377563,0.4044266939163208,-0.25408411026000977
1768418185814603000,10.10260302734375,0.16838450729846954,0.286649227142334,-0.30877548456192017
1768418185824605000,10.11260498046875,0.16642415523529053,-0.0410679392516613,-0.30775415897369385
1768418185834606000,10.122606201171875,0.17935696244239807,-0.3829640746116638,-0.2772250771522522
1768418185844608000,10.13260791015625,0.20383195579051971,-0.6001965403556824,-0.14933472871780396
1768418185854609000,10.14260888671875,0.22891205549240112,-0.7395462989807129,0.06785836070775986
1768418185864611000,10.152611083984375,0.23129905760288239,-0.8216161727905273,0.2741076946258545
1768418185874612000,10.162612060546875,0.2104351669549942,-0.8845503926277161,0.392015278339386
1768418185884614000,10.17261376953125,0.17730411887168884,-0.870661199092865,0.4311765134334564
1768418185894615300,10.182615234375,0.18828684091567993,-0.7331398725509644,0.48107731342315674
1768418185904617000,10.192616943359376,0.23987585306167603,-0.5586759448051453,0.5012937188148499
1768418185914619100,10.202619140625,0.2700420022010803,-0.36887162923812866,0.41158226132392883
1768418185924620000,10.2126201171875,0.2522238492965698,-0.2195388823747635,0.2263290286064148
1768418185934622000,10.2226220703125,0.2108871042728424,-0.06959166377782822,0.04031256586313248
1768418185944623000,10.232623046875,0.14774222671985626,0.0887519046664238,-0.0712355300784111
1768418185954625000,10.242625,0.06957359611988068,0.20844489336013794,-0.12339280545711517
1768418185964626200,10.252626220703124,-0.013526089489459991,0.2850070595741272,-0.15301568806171417
1768418185974628000,10.262628173828125,-0.09814261645078659,0.3488903045654297,-0.18338757753372192
1768418185984629200,10.272629150390625,-0.16860505938529968,0.40109118819236755,-0.21961723268032074
1768418185994631200,10.282631103515625,-0.23148277401924133,0.4709412455558777,-0.23693867027759552
1768418186004633000,10.292633056640625,-0.2865214943885803,0.5359117984771729,-0.22675581276416779
1768418186014634200,10.30263427734375,-0.31826743483543396,0.599846601486206,-0.2100929319858551
1768418186024636000,10.312635986328125,-0.32462722063064575,0.6527419686317444,-0.19757936894893646
1768418186034637300,10.32263720703125,-0.3038497567176819,0.6860322952270508,-0.1766676902770996
1768418186044639200,10.33263916015625,-0.2675861120223999,0.69645094871521,-0.1393555849790573
1768418186054640000,10.34264013671875,-0.22542721033096313,0.6802563071250916,-0.0871451199054718
1768418186064642300,10.352642333984376,-0.19242967665195465,0.6243457198143005,-0.018815454095602036
1768418186074643200,10.362643310546876,-0.18688923120498657,0.556546688079834,0.0672597736120224
1768418186084645000,10.37264501953125,-0.19040103256702423,0.46662819385528564,0.14540237188339233
1768418186094647300,10.382647216796874,-0.18355856835842133,0.3741576671600342,0.20310215651988983
1768418186104648200,10.392648193359374,-0.17414559423923492,0.278560608625412,0.2540239989757538
1768418186114650000,10.402650146484374,-0.17748892307281494,0.20554231107234955,0.2986319363117218
1768418186124651300,10.4126513671875,-0.18118026852607727,0.14938592910766602,0.315956711769104
1768418186134653200,10.422653076171875,-0.18316033482551575,0.1262177675962448,0.2996981143951416
1768418186144654000,10.432654052734375,-0.172288715839386,0.12185937166213989,0.26988962292671204
1768418186154656300,10.44265625,-0.1394551396369934,0.13975635170936584,0.25869449973106384
1768418186164657200,10.4526572265625,-0.09622934460639954,0.16001218557357788,0.25298357009887695
1768418186174659000,10.4626591796875,-0.06128760054707527,0.16765013337135315,0.23596437275409698
1768418186184661200,10.4726611328125,-0.03073306754231453,0.16553062200546265,0.21466411650180817
1768418186194662100,10.482662109375,0.007223367691040039,0.16770057380199432,0.18945355713367462
1768418186204664000,10.4926640625,0.04398111626505852,0.17534150183200836,0.17045153677463531
1768418186214665200,10.502665283203125,0.0774565190076828,0.17413988709449768,0.15202432870864868
1768418186224667100,10.512667236328125,0.09848510473966599,0.1679064929485321,0.13367860019207
1768418186234668000,10.52266796875,0.1095695048570633,0.16937577724456787,0.12345601618289948
1768418186244670200,10.532670166015626,0.11797287315130234,0.17106439173221588,0.11784752458333969
1768418186254671000,10.542671142578126,0.11936011165380478,0.17552758753299713,0.11443547904491425
1768418186264673000,10.552673095703126,0.12031511962413788,0.18601565062999725,0.11080559343099594
1768418186274674200,10.562674072265626,0.11858081072568893,0.2071060985326767,0.09845122694969177
1768418186284676000,10.572676025390624,0.12159071862697601,0.23629887402057648,0.08986972272396088
1768418186294678300,10.58267822265625,0.11726941168308258,0.24945449829101562,0.0819893628358841
1768418186304679200,10.59267919921875,0.11497820913791656,0.248683899641037,0.0702766552567482
1768418186314681000,10.60268115234375,0.1304815411567688,0.23592576384544373,0.04638810455799103
1768418186324682000,10.612681884765625,0.20302364230155945,0.24042224884033203,0.03411625698208809
1768418186334684200,10.62268408203125,0.3121383488178253,0.28909340500831604,-0.006999460980296135
1768418186344685000,10.63268505859375,0.3596757650375366,0.32645168900489807,-0.11890708655118942
1768418186354687200,10.642687255859375,0.3001057207584381,0.3602921962738037,-0.26691123843193054
1768418186364688100,10.652688232421875,0.1720697283744812,0.43188461661338806,-0.40425124764442444
1768418186374690000,10.66268994140625,0.03566400334239006,0.5065664649009705,-0.5180451273918152
1768418186384692200,10.672692138671875,-0.10199665278196335,0.5833919644355774,-0.6092767715454102
1768418186394693000,10.682693115234375,-0.25047168135643005,0.6805879473686218,-0.665666401386261
1768418186404695000,10.692695068359376,-0.3634493052959442,0.7576208710670471,-0.6763955354690552
1768418186414695700,10.70269580078125,-0.3816312551498413,0.8244507908821106,-0.6492518186569214
1768418186424697900,10.71269775390625,-0.3842081129550934,0.9109851717948914,-0.5998775959014893
1768418186434698800,10.72269873046875,-0.41624629497528076,0.9728480577468872,-0.48513302206993103
1768418186444701000,10.732700927734374,-0.424812376499176,0.9794971942901611,-0.29426053166389465
1768418186454701800,10.742701904296876,-0.35313162207603455,0.9222657084465027,-0.13582758605480194
1768418186464703700,10.752703857421874,-0.265791118144989,0.7815775871276855,-0.09816570580005646
1768418186474704600,10.76270458984375,-0.23057034611701965,0.4999963939189911,-0.14707051217556
1768418186484706800,10.772706787109374,-0.29693204164505005,0.16595184803009033,-0.19247740507125854
1768418186494708700,10.782708740234375,-0.47385409474372864,-0.07950078696012497,-0.20874665677547455
1768418186504710000,10.7927099609375,-0.6534712910652161,-0.19656886160373688,-0.24547968804836273
1768418186514711800,10.8027119140625,-0.791401207447052,-0.20862659811973572,-0.3321770429611206
1768418186524712700,10.812712646484375,-0.7634745836257935,-0.21400058269500732,-0.4574551582336426
1768418186534715000,10.82271484375,-0.6497864127159119,-0.11698481440544128,-0.5562989115715027
1768418186544715800,10.8327158203125,-0.5090576410293579,0.11880189180374146,-0.6319181323051453
1768418186554717700,10.8427177734375,-0.33497530221939087,0.37656766176223755,-0.709129273891449
1768418186564718800,10.85271875,-0.11844324320554733,0.6447043418884277,-0.7398969531059265
1768418186574720800,10.862720703125,0.08183179050683975,0.8461005687713623,-0.7051576375961304
1768418186584722700,10.87272265625,0.22237947583198547,0.9336778521537781,-0.6107791066169739
1768418186594723800,10.882723876953126,0.2982260286808014,0.9143177270889282,-0.4432718753814697
1768418186604725800,10.892725830078126,0.31086671352386475,0.7582998275756836,-0.229776069521904
1768418186614726700,10.9027265625,0.2644539475440979,0.4975508153438568,-0.003293931484222412
1768418186624728800,10.912728759765624,0.1947420984506607,0.20516131818294525,0.2253636121749878
1768418186634730000,10.92272998046875,0.13988550007343292,-0.07475954294204712,0.4267745018005371
1768418186644731600,10.932731689453124,0.14396026730537415,-0.31458041071891785,0.549586832523346
1768418186654733000,10.942733154296874,0.20283955335617065,-0.4833015203475952,0.568265974521637
1768418186664734700,10.952734619140625,0.3134843111038208,-0.5849668383598328,0.4903830587863922
1768418186674735900,10.96273583984375,0.4172445237636566,-0.6317721605300903,0.35401880741119385
1768418186684738000,10.972738037109375,0.4548720717430115,-0.6454877257347107,0.20093394815921783
1768418186694739700,10.98273974609375,0.44151121377944946,-0.6645979881286621,0.07833961397409439
1768418186704740900,10.992740966796875,0.38012558221817017,-0.6763308048248291,0.006368960253894329
1768418186714742800,11.00274267578125,0.3337050974369049,-0.6598839163780212,-0.044543489813804626
1768418186724744000,11.012743896484375,0.3197802007198334,-0.6170421838760376,-0.08368423581123352
1768418186734745900,11.022745849609375,0.3216317892074585,-0.5639909505844116,-0.12068787217140198
1768418186744747000,11.0327470703125,0.3344576358795166,-0.47780823707580566,-0.12952077388763428
1768418186754749000,11.0427490234375,0.3377003073692322,-0.39566782116889954,-0.08405554294586182
1768418186764749800,11.052749755859375,0.3378896415233612,-0.3403363823890686,-0.0005760961212217808
1768418186774752000,11.062751953125,0.33680853247642517,-0.29113370180130005,0.10241001844406128
1768418186784754000,11.07275390625,0.34144988656044006,-0.2469494789838791,0.19393540918827057
1768418186794754800,11.0827548828125,0.3454577624797821,-0.2040031999349594,0.24912746250629425
1768418186804757000,11.092757080078124,0.3191918134689331,-0.14971840381622314,0.2714703381061554
1768418186814758000,11.1027578125,0.27133384346961975,-0.12206494063138962,0.26245665550231934
1768418186824760000,11.112760009765625,0.21509160101413727,-0.09909676760435104,0.22070229053497314
1768418186834761000,11.122760986328124,0.15354353189468384,-0.08008528500795364,0.16441494226455688
1768418186844763000,11.132762939453125,0.10892253369092941,-0.05274739861488342,0.12628354132175446
1768418186854763800,11.142763671875,0.07083223015069962,-0.03105321153998375,0.109290711581707
1768418186864766000,11.152765869140625,0.04144717752933502,-0.03520561382174492,0.11521757394075394
1768418186874766800,11.162766845703125,0.008600132539868355,-0.04804472252726555,0.1338917464017868
1768418186884769000,11.17276904296875,-0.0237926933914423,-0.06484100967645645,0.16146264970302582
1768418186894771000,11.18277099609375,-0.057387109845876694,-0.09252502769231796,0.1778179407119751
1768418186904771800,11.192771728515625,-0.09032487869262695,-0.14222055673599243,0.1786504089832306
1768418186914774000,11.20277392578125,-0.12791194021701813,-0.1877579540014267,0.16679295897483826
1768418186924775000,11.21277490234375,-0.16939572989940643,-0.23045746982097626,0.1477992981672287
1768418186934776800,11.22277685546875,-0.1974768489599228,-0.26024213433265686,0.12959474325180054
1768418186944778000,11.232778076171876,-0.2049456387758255,-0.28136730194091797,0.12118310481309891
1768418186954780000,11.24277978515625,-0.1839442104101181,-0.2979941964149475,0.12918031215667725
1768418186964780800,11.25278076171875,-0.15626448392868042,-0.29601168632507324,0.1406071037054062
1768418186974783000,11.262782958984374,-0.13150134682655334,-0.28165963292121887,0.15273834764957428
1768418186984785000,11.272784912109374,-0.12186853587627411,-0.2673312723636627,0.16839759051799774
1768418186994785800,11.282785888671874,-0.12988466024398804,-0.2425156682729721,0.178724005818367
1768418187004788000,11.2927880859375,-0.16015000641345978,-0.19553270936012268,0.17975643277168274
1768418187014788900,11.302788818359375,-0.18411579728126526,-0.18757891654968262,0.1673775315284729
1768418187024790800,11.312790771484375,-0.19140297174453735,-0.26310795545578003,0.13832885026931763
1768418187034792000,11.3227919921875,-0.18121717870235443,-0.3359459638595581,0.11566214263439178
1768418187044793900,11.3327939453125,-0.15681542456150055,-0.3624073266983032,0.10163336247205734
1768418187054794800,11.342794677734375,-0.11230308562517166,-0.38047635555267334,0.08284183591604233
1768418187064797000,11.352796875,-0.06085415929555893,-0.39163854718208313,0.06850594282150269
1768418187074797800,11.3627978515625,-0.013888782821595669,-0.4071269631385803,0.05864027142524719
1768418187084799700,11.3727998046875,0.010227295570075512,-0.4442239999771118,0.06392128765583038
1768418187094802000,11.382802001953126,0.001431406824849546,-0.516230046749115,0.05694194510579109
1768418187104802800,11.392802734375,0.002296874299645424,-0.6021190285682678,0.030744511634111404
1768418187114804700,11.4028046875,0.017515242099761963,-0.6837723255157471,0.0005029863677918911
1768418187124806000,11.412805908203126,0.03660522401332855,-0.7237201929092407,0.0009747769217938185
1768418187134807800,11.422807861328126,0.06268582493066788,-0.7177699208259583,0.03566298261284828
1768418187144808700,11.43280859375,0.1022646352648735,-0.6527401208877563,0.09943391382694244
1768418187154811000,11.442810791015624,0.1421678364276886,-0.5356526374816895,0.18243426084518433
1768418187164811800,11.452811767578124,0.16704416275024414,-0.37230947613716125,0.24846547842025757
1768418187174813700,11.462813720703124,0.17609663307666779,-0.1969262659549713,0.24347062408924103
1768418187184815900,11.47281591796875,0.17343799769878387,-0.02016480639576912,0.15901486575603485
1768418187194816800,11.482816650390625,0.1610424816608429,0.232511505484581,0.05218097195029259
1768418187204819000,11.49281884765625,0.16970661282539368,0.5409855842590332,-0.05885541811585426
1768418187214819800,11.50281982421875,0.19991910457611084,0.7316473722457886,-0.18243834376335144
1768418187224821800,11.51282177734375,0.17754003405570984,0.7367302775382996,-0.3305460512638092
1768418187234822700,11.52282275390625,0.11698649078607559,0.5832518935203552,-0.44544559717178345
1768418187244824800,11.532824951171875,0.07535424828529358,0.27529120445251465,-0.5108346343040466
1768418187254825700,11.54282568359375,0.050892312079668045,-0.08000404387712479,-0.519257664680481
1768418187264827600,11.55282763671875,0.04454999417066574,-0.3186866343021393,-0.3891561031341553
1768418187274829800,11.562829833984376,0.06031700596213341,-0.49373000860214233,-0.10653457790613174
1768418187284830700,11.572830810546876,0.07360351085662842,-0.6329704523086548,0.24260477721691132
1768418187294833000,11.5828330078125,0.08442097902297974,-0.6885445713996887,0.522104799747467
1768418187304833800,11.592833740234376,0.10002443939447403,-0.6700798273086548,0.6642835140228271
1768418187314835700,11.602835693359374,0.15368790924549103,-0.5526086091995239,0.719041109085083
1768418187324836600,11.612836669921874,0.2155885547399521,-0.38067179918289185,0.7405743598937988
1768418187334838800,11.6228388671875,0.25477495789527893,-0.2565552294254303,0.6511009335517883
1768418187344840000,11.63283984375,0.2520846128463745,-0.17874540388584137,0.4026789367198944
1768418187354841900,11.642841796875,0.2322337031364441,-0.11722845584154129,0.10676902532577515
1768418187364843800,11.65284375,0.21716873347759247,-0.016374550759792328,-0.09060795605182648
1768418187374844700,11.6628447265625,0.18680809438228607,0.09912799298763275,-0.17283210158348083
1768418187384846800,11.672846923828125,0.14049279689788818,0.15784615278244019,-0.19389238953590393
1768418187394847700,11.68284765625,0.09216181188821793,0.1738276183605194,-0.20904777944087982
1768418187404849700,11.692849609375,0.02250204049050808,0.18855969607830048,-0.23189397156238556
1768418187414850300,11.702850341796875,-0.06338921934366226,0.2337443232536316,-0.24397911131381989
1768418187424852500,11.7128525390625,-0.14649975299835205,0.2887626886367798,-0.21878211200237274
1768418187434853400,11.722853271484375,-0.2173267900943756,0.334360808134079,-0.15396849811077118
1768418187444855600,11.73285546875,-0.27234143018722534,0.3684621751308441,-0.06984096765518188
1768418187454857500,11.742857421875,-0.2826361358165741,0.42410892248153687,-0.001745270099490881
1768418187464858400,11.7528583984375,-0.2670310437679291,0.4897018074989319,0.0304500050842762
1768418187474860500,11.762860595703126,-0.24593479931354523,0.529438316822052,0.04894406348466873
1768418187484861400,11.772861328125,-0.22833183407783508,0.5348128080368042,0.06688524037599564
1768418187494863400,11.78286328125,-0.20405232906341553,0.49877065420150757,0.08767281472682953
1768418187504864500,11.792864501953124,-0.17803265154361725,0.44490331411361694,0.13063552975654602
1768418187514866400,11.802866455078124,-0.16389872133731842,0.36801013350486755,0.20498380064964294
1768418187524867300,11.812867431640624,-0.14148534834384918,0.31329190731048584,0.2997629642486572
1768418187534869500,11.822869384765625,-0.1262800395488739,0.26472461223602295,0.37637969851493835
1768418187544871400,11.832871337890625,-0.1160735934972763,0.2218400090932846,0.41787540912628174
1768418187554872300,11.842872314453125,-0.10516209155321121,0.1992952972650528,0.42830753326416016
1768418187564874500,11.85287451171875,-0.0938202440738678,0.19790051877498627,0.4180184304714203
1768418187574875400,11.86287548828125,-0.07457411289215088,0.21198305487632751,0.38534969091415405
1768418187584877300,11.872877197265625,-0.04615141078829765,0.2362614870071411,0.3447685241699219
1768418187594878500,11.88287841796875,-0.013995871879160404,0.26684069633483887,0.3026021718978882
1768418187604880400,11.89288037109375,0.011132029816508293,0.2877298593521118,0.25425708293914795
1768418187614882300,11.90288232421875,0.02362678200006485,0.28700441122055054,0.20399099588394165
1768418187624883500,11.912883544921876,0.024596497416496277,0.2616967260837555,0.15830014646053314
1768418187634885400,11.922885498046876,0.021718420088291168,0.22362416982650757,0.11798495054244995
1768418187644886300,11.93288623046875,0.02491794154047966,0.18764005601406097,0.07566438615322113
1768418187654888400,11.942888427734376,0.02619844861328602,0.16640496253967285,0.03725816309452057
1768418187664889300,11.952889404296876,0.02367696724832058,0.15725673735141754,0.013832195661962032
1768418187674891300,11.962891357421874,0.028029371052980423,0.158269003033638,0.007060043513774872
1768418187684892400,11.972892333984374,0.030141791328787804,0.16619430482387543,0.0020027004648
1768418187694894300,11.982894287109374,0.027072735130786896,0.18054735660552979,-0.00600015465170145
1768418187704896500,11.992896484375,0.027111615985631943,0.1954088658094406,-0.0135483518242836
1768418187714897400,12.0028974609375,0.026143498718738556,0.21806880831718445,-0.011593437753617764
1768418187724899300,12.0128994140625,0.025437496602535248,0.24200129508972168,0.005584217142313719
1768418187734900200,12.022900146484375,0.026140864938497543,0.25446653366088867,0.027319177985191345
1768418187744902400,12.03290234375,0.028611449524760246,0.2658706605434418,0.044447775930166245
1768418187754903300,12.0429033203125,0.04910527169704437,0.29090651869773865,0.07293560355901718
1768418187764905500,12.052905517578125,0.09063034504652023,0.3010387718677521,0.10530073940753937
1768418187774906400,12.06290625,0.13730135560035706,0.283462792634964,0.11182460933923721
1768418187784908300,12.072908203125,0.17500212788581848,0.27287378907203674,0.05743247643113136
1768418187794910500,12.082910400390626,0.15912842750549316,0.268221914768219,-0.06982026994228363
1768418187804911400,12.092911376953126,0.07973265647888184,0.24947300553321838,-0.19881366193294525
1768418187814913300,12.102913330078126,-0.024890124797821045,0.2539718747138977,-0.28261464834213257
1768418187824914400,12.11291455078125,-0.13056649267673492,0.28401392698287964,-0.34537631273269653
1768418187834916400,12.122916259765624,-0.22662007808685303,0.30525022745132446,-0.4197598695755005
1768418187844917200,12.132917236328124,-0.31876999139785767,0.3504160940647125,-0.49855029582977295
1768418187854919400,12.14291943359375,-0.38561272621154785,0.4106007218360901,-0.5436596870422363
1768418187864921300,12.15292138671875,-0.426584929227829,0.48203417658805847,-0.5441734194755554
1768418187874922200,12.162922119140624,-0.4333169162273407,0.5187340378761292,-0.49915358424186707
1768418187884924400,12.17292431640625,-0.4436390697956085,0.4845629930496216,-0.4124666154384613
1768418187894925300,12.18292529296875,-0.4859946370124817,0.420511394739151,-0.29239895939826965
1768418187904927200,12.19292724609375,-0.49856218695640564,0.35825443267822266,-0.19813968241214752
1768418187914928400,12.202928466796875,-0.4901285171508789,0.17376847565174103,-0.18849211931228638
1768418187924930300,12.212930419921875,-0.5409855246543884,-0.13845734298229218,-0.21766971051692963
1768418187934932200,12.22293212890625,-0.6511180400848389,-0.38569721579551697,-0.14945755898952484
1768418187944933400,12.232933349609375,-0.7808594703674316,-0.486348420381546,-0.009353825822472572
1768418187954935300,12.242935302734375,-0.7887075543403625,-0.5309342741966248,0.043039076030254364
1768418187964936200,12.252936279296875,-0.6024454236030579,-0.4971206486225128,-0.05887453258037567
1768418187974938400,12.2629384765625,-0.39706167578697205,-0.302389532327652,-0.2254887968301773
1768418187984939300,12.272939208984376,-0.23738279938697815,-0.053072161972522736,-0.42871665954589844
1768418187994941200,12.282941162109376,-0.12685149908065796,0.23636284470558167,-0.5881950259208679
1768418188004942300,12.2929423828125,-0.01821109466254711,0.5686405301094055,-0.697772741317749
1768418188014944300,12.3029443359375,0.12206079810857773,0.8568893671035767,-0.7759676575660706
1768418188024946400,12.312946533203124,0.27270758152008057,1.0661048889160156,-0.7885758280754089
1768418188034947300,12.322947265625,0.35910746455192566,1.1304874420166016,-0.7228572964668274
1768418188044949200,12.33294921875,0.3411656320095062,1.0567383766174316,-0.5958459377288818
