time,seconds_elapsed,z,y,x
1768418175759234800,0.04723486328125,-0.1014520525932312,-0.05807342380285263,0.14507809281349182
1768418175769237000,0.057237060546875,-0.08871974796056747,-0.0592619925737381,0.1569717675447464
1768418175779239000,0.067239013671875,-0.07548170536756516,-0.04098232090473175,0.1592375934123993
1768418175789239800,0.07723974609375,-0.06329242140054703,-0.039331160485744476,0.14091265201568604
1768418175799242000,0.087241943359375,-0.05613011494278908,-0.049183789640665054,0.12448041141033173
1768418175809243000,0.097242919921875,-0.05845212563872337,-0.06503625959157944,0.10382599383592606
1768418175819244800,0.107244873046875,-0.0652218833565712,-0.07282467186450958,0.09987839311361313
1768418175829247000,0.1172470703125,-0.06139704957604408,-0.07754112780094147,0.11233213543891907
1768418175839248000,0.127247802734375,-0.05066024884581566,-0.06893645972013474,0.118585504591465
1768418175849250000,0.13725,-0.04024888575077057,-0.053827013820409775,0.11690318584442139
1768418175859252000,0.147251953125,-0.031928904354572296,-0.03996818885207176,0.11502671986818314
1768418175869252900,0.1572529296875,-0.026500582695007324,-0.02009621262550354,0.11986861377954483
1768418175879255000,0.167255126953125,-0.023915985599160194,-0.007736749015748501,0.1329127699136734
1768418175889257000,0.177257080078125,-0.024206269532442093,0.0017624800093472004,0.14703817665576935
1768418175899257900,0.1872578125,-0.018677547574043274,0.016211725771427155,0.1558188945055008
1768418175909260000,0.197260009765625,-0.016290556639432907,0.038306642323732376,0.16122616827487946
1768418175919261000,0.207260986328125,-0.016288425773382187,0.053455501794815063,0.15939125418663025
1768418175929262800,0.217262939453125,-0.024478711187839508,0.05559854581952095,0.15376906096935272
1768418175939265000,0.22726513671875,-0.0289421696215868,0.0506618469953537,0.15289047360420227
1768418175949266000,0.237265869140625,-0.034443728625774384,0.05420757830142975,0.15754754841327667
1768418175959267800,0.247267822265625,-0.0367196649312973,0.06058025732636452,0.16323046386241913
1768418175969270000,0.25727001953125,-0.02219345234334469,0.06321784853935242,0.16643212735652924
1768418175979271000,0.26727099609375,-0.00561154680326581,0.06744269281625748,0.1591973751783371
1768418175989273000,0.277273193359375,0.000019707391402334906,0.06638914346694946,0.13236282765865326
1768418175999274000,0.28727392578125,-0.017051421105861664,0.06114964187145233,0.09686103463172913
1768418176009276000,0.29727587890625,-0.05313219502568245,0.03656892850995064,0.06801047921180725
1768418176019278000,0.307278076171875,-0.08804304152727127,0.011983426287770271,0.06728582829236984
1768418176029279000,0.317279052734375,-0.11366771161556244,-0.010093114338815212,0.07177059352397919
1768418176039281000,0.327281005859375,-0.12409904599189758,-0.02912619337439537,0.07807855308055878
1768418176049283000,0.337282958984375,-0.1275678128004074,-0.0554206483066082,0.07762368768453598
1768418176059284000,0.347283935546875,-0.1345524787902832,-0.08027726411819458,0.07509421557188034
1768418176069286000,0.357285888671875,-0.13393409550189972,-0.10738291591405869,0.06793989986181259
1768418176079287000,0.367287109375,-0.1356251984834671,-0.1303180605173111,0.0707913488149643
1768418176089289000,0.3772890625,-0.13173432648181915,-0.1423395723104477,0.07867643237113953
1768418176099291100,0.387291015625,-0.1274743378162384,-0.14974075555801392,0.07957152277231216
1768418176109292000,0.3972919921875,-0.14248843491077423,-0.16035079956054688,0.08113506436347961
1768418176119294000,0.4072939453125,-0.1267440915107727,-0.1600903421640396,0.0962599590420723
1768418176129296100,0.417296142578125,-0.11300511658191681,-0.16579589247703552,0.1107451543211937
1768418176139297000,0.427297119140625,-0.09944962710142136,-0.15226170420646667,0.10257617384195328
1768418176149299000,0.437298828125,-0.10394956916570663,-0.11888830363750458,0.09486658871173859
1768418176159301000,0.447301025390625,-0.10760262608528137,-0.1021207720041275,0.08943107724189758
1768418176169302000,0.457302001953125,-0.08378331363201141,-0.11277715116739273,0.08318303525447845
1768418176179304000,0.467303955078125,-0.08185971528291702,-0.09437870234251022,0.07442735880613327
1768418176189305000,0.47730517578125,-0.0910193920135498,-0.09248679131269455,0.06414143741130829
1768418176199307000,0.48730712890625,-0.098301000893116,-0.1098141148686409,0.06263701617717743
1768418176209309000,0.497308837890625,-0.09644558280706406,-0.11941001564264297,0.08276758342981339
1768418176219310000,0.50731005859375,-0.08248022943735123,-0.11659159511327744,0.11626961827278137
1768418176229312000,0.51731201171875,-0.0635499507188797,-0.10367686301469803,0.14054113626480103
1768418176239314200,0.527314208984375,-0.050874099135398865,-0.08574126660823822,0.15280339121818542
1768418176249315000,0.537315185546875,-0.05637086555361748,-0.08576071262359619,0.1522262841463089
1768418176259317000,0.54731689453125,-0.06947175413370132,-0.0944410189986229,0.14195260405540466
1768418176269318000,0.55731787109375,-0.09316536039113998,-0.10042381286621094,0.12950658798217773
1768418176279320000,0.567320068359375,-0.1185452863574028,-0.10667877644300461,0.1258402168750763
1768418176289322000,0.577322021484375,-0.183170884847641,-0.1254655122756958,0.12218689173460007
1768418176299323100,0.5873232421875,-0.1695229858160019,-0.15073198080062866,0.11919110268354416
1768418176309325000,0.597324951171875,-0.1839224249124527,-0.16352447867393494,0.13871154189109802
1768418176319327000,0.607326904296875,-0.19708110392093658,-0.18444733321666718,0.16872510313987732
1768418176329328000,0.617328125,-0.19693623483181,-0.17705680429935455,0.1934000849723816
1768418176339330000,0.627330078125,-0.20130382478237152,-0.17128227651119232,0.2236032634973526
1768418176349332000,0.63733203125,-0.19772052764892578,-0.15519145131111145,0.23203083872795105
1768418176359333000,0.6473330078125,-0.18009519577026367,-0.12023639678955078,0.2223430573940277
1768418176369335000,0.6573349609375,-0.15588147938251495,-0.07387848198413849,0.1982174813747406
1768418176379336000,0.6673359375,-0.13052286207675934,-0.02105654962360859,0.17560404539108276
1768418176389338000,0.677338134765625,-0.10578688234090805,0.023007314652204514,0.16677460074424744
1768418176399340000,0.687340087890625,-0.10216178745031357,0.06318323314189911,0.16236308217048645
1768418176409341200,0.697341064453125,-0.10382306575775146,0.09486419707536697,0.1649269014596939
1768418176419343000,0.707343017578125,-0.1056305542588234,0.12052934616804123,0.17713376879692078
1768418176429345000,0.717344970703125,-0.10687771439552307,0.13958293199539185,0.18650223314762115
1768418176439346200,0.72734619140625,-0.10488167405128479,0.1598581075668335,0.1919902116060257
1768418176449348000,0.73734814453125,-0.10622497648000717,0.18259990215301514,0.19526509940624237
1768418176459350000,0.74735009765625,-0.09543224424123764,0.20885388553142548,0.20083217322826385
1768418176469351200,0.75735107421875,-0.08117234706878662,0.24019795656204224,0.21037347614765167
1768418176479353000,0.76735302734375,-0.06844083964824677,0.28014829754829407,0.22223307192325592
1768418176489354200,0.777354248046875,-0.04403457045555115,0.3173435926437378,0.23174534738063812
1768418176499356000,0.78735595703125,-0.012369051575660706,0.3525593876838684,0.2343837469816208
1768418176509358000,0.797358154296875,0.021791581064462662,0.3775874972343445,0.2298411875963211
1768418176519359200,0.807359130859375,0.04709480702877045,0.38773149251937866,0.22365359961986542
1768418176529361000,0.81736083984375,0.008285360410809517,0.3974916934967041,0.19915731251239777
1768418176539363000,0.827363037109375,-0.05586140230298042,0.34938037395477295,0.17796653509140015
1768418176549364000,0.837364013671875,-0.08600758761167526,0.2764531672000885,0.17361360788345337
1768418176559366000,0.847365966796875,-0.07993105053901672,0.24951928853988647,0.1530076563358307
1768418176569368000,0.8573681640625,-0.08166716247797012,0.2246171236038208,0.1214289590716362
1768418176579369000,0.867368896484375,-0.09138210862874985,0.14997164905071259,0.1463249921798706
1768418176589371100,0.87737109375,-0.04136208817362785,0.16161100566387177,0.16988889873027802
1768418176599372000,0.8873720703125,0.006145243998616934,0.170728862285614,0.18024992942810059
1768418176609374000,0.8973740234375,0.02894642949104309,0.14219895005226135,0.18088535964488983
1768418176619376000,0.907376220703125,0.04675924777984619,0.11524563282728195,0.18099482357501984
1768418176629377000,0.917376953125,0.06818357855081558,0.10469099134206772,0.17586717009544373
1768418176639379000,0.92737890625,0.09036185592412949,0.10734350234270096,0.16163577139377594
1768418176649381000,0.937381103515625,0.11632021516561508,0.12633930146694183,0.1463761180639267
1768418176659382000,0.947382080078125,0.1366473287343979,0.15196050703525543,0.13248853385448456
1768418176669384000,0.957384033203125,0.14884327352046967,0.170654296875,0.1262841671705246
1768418176679386000,0.96738623046875,0.15262629091739655,0.19522036612033844,0.11824781447649002
1768418176689387000,0.977386962890625,0.15373177826404572,0.21593256294727325,0.11647787690162659
1768418176699389000,0.987388916015625,0.15147367119789124,0.23824238777160645,0.12383566051721573
1768418176709390000,0.99739013671875,0.15399275720119476,0.2642502784729004,0.12848792970180511
1768418176719392000,1.00739208984375,0.16805638372898102,0.3065471351146698,0.12231818586587906
1768418176729394200,1.017394287109375,0.20444367825984955,0.373585045337677,0.10233702510595322
1768418176739395000,1.02739501953125,0.27565526962280273,0.45220449566841125,0.048169393092393875
1768418176749397000,1.03739697265625,0.3467006981372833,0.5045198798179626,0.007633684668689966
1768418176759399200,1.047399169921875,0.3779640793800354,0.5003525614738464,0.017796840518712997
1768418176769400000,1.057400146484375,0.37208861112594604,0.4911308288574219,0.04560796543955803
1768418176779402000,1.067402099609375,0.3252180516719818,0.5066503882408142,0.02196095883846283
1768418176789404200,1.077404052734375,0.2500644326210022,0.528319776058197,-0.05895945802330971
1768418176799405000,1.087405029296875,0.14865046739578247,0.5765642523765564,-0.15752758085727692
1768418176809407000,1.097406982421875,-0.05740523710846901,0.608494758605957,-0.16238544881343842
1768418176819408100,1.107408203125,-0.03455584496259689,0.7416378855705261,-0.19401873648166656
1768418176829410000,1.11741015625,-0.019580092281103134,0.864188551902771,-0.2130153328180313
1768418176839412200,1.127412109375,0.10338364541530609,1.0022908449172974,-0.25529009103775024
1768418176849413000,1.1374130859375,0.1572181135416031,1.0549098253250122,-0.2493610978126526
1768418176859415000,1.1474150390625,0.17043031752109528,1.0098272562026978,-0.1700417697429657
1768418176869417200,1.157417236328125,0.21884793043136597,0.8391034603118896,-0.0567903108894825
1768418176879418000,1.167418212890625,0.2791493535041809,0.6169146299362183,0.08551543205976486
1768418176889420000,1.177419921875,-0.01104492787271738,0.255421906709671,0.26171043515205383
1768418176899422200,1.187422119140625,-0.1708577573299408,0.09912152588367462,0.36904221773147583
1768418176909423000,1.197423095703125,-0.3017326891422272,0.00009454221435589716,0.33104023337364197
1768418176919425000,1.207425048828125,-0.43083634972572327,-0.11382696777582169,0.27341794967651367
1768418176929427200,1.21742724609375,-0.41913947463035583,-0.12196079641580582,0.1359700858592987
1768418176939428000,1.227427978515625,-0.24735067784786224,-0.057681139558553696,-0.05740204080939293
1768418176949430000,1.237429931640625,-0.1188555434346199,0.08113905787467957,-0.21245020627975464
1768418176959431200,1.24743115234375,-0.07546093314886093,0.2464875429868698,-0.2939613163471222
1768418176969433000,1.25743310546875,0.03614974766969681,0.45812922716140747,-0.3591115474700928
1768418176979435300,1.267435302734375,0.15663062036037445,0.6570553779602051,-0.40666308999061584
1768418176989436200,1.277436279296875,0.28192436695098877,0.840348482131958,-0.4445308446884155
1768418176999438000,1.28743798828125,0.3907312750816345,0.9796741604804993,-0.4721643328666687
1768418177009440300,1.297440185546875,0.45048967003822327,1.012208104133606,-0.49468934535980225
1768418177019441200,1.307441162109375,0.4631093144416809,0.9653567671775818,-0.4729350507259369
1768418177029443000,1.317443115234375,0.4219837188720703,0.8090534210205078,-0.36523017287254333
1768418177039445200,1.3274453125,0.1636379361152649,0.5438566207885742,-0.14918123185634613
1768418177049446100,1.337446044921875,0.20987893640995026,0.34585806727409363,-0.018911905586719513
1768418177059448000,1.347447998046875,0.286917507648468,0.3172765076160431,-0.027063574641942978
1768418177069450200,1.3574501953125,0.13434475660324097,0.1178978756070137,0.09265883266925812
1768418177079451100,1.367451171875,-0.09374779462814331,0.25863873958587646,0.4027165472507477
1768418177089453000,1.377453125,-0.11369860172271729,0.18001823127269745,0.5745314359664917
1768418177099454200,1.3874541015625,-0.03369325026869774,-0.02389388158917427,0.5541548132896423
1768418177109456100,1.3974560546875,0.044566668570041656,-0.07635042816400528,0.39075738191604614
1768418177119458300,1.407458251953125,0.14820703864097595,-0.1134067177772522,0.1816430240869522
1768418177129459200,1.417459228515625,0.23776249587535858,-0.09762243181467056,0.0010484865633770823
1768418177139461000,1.427461181640625,0.2160758376121521,0.001770469476468861,-0.06663335859775543
1768418177149463300,1.43746337890625,0.19628535211086273,-0.0028788771014660597,-0.09007956087589264
1768418177159464200,1.447464111328125,0.17291505634784698,-0.08976317197084427,-0.10507076233625412
1768418177169466000,1.457466064453125,0.1415826976299286,-0.20602533221244812,-0.10072261840105057
1768418177179468000,1.467468017578125,0.1302781105041504,-0.32408085465431213,-0.07612166553735733
1768418177189469200,1.47746923828125,0.1390947699546814,-0.38383713364601135,-0.044855087995529175
1768418177199471000,1.48747119140625,0.1553400605916977,-0.3749086260795593,0.007736749015748501
1768418177209473000,1.49747314453125,0.17139571905136108,-0.33035528659820557,0.06931089609861374
1768418177219474200,1.50747412109375,0.20187373459339142,-0.279109388589859,0.11100934445858002
1768418177229476000,1.51747607421875,0.23024918138980865,-0.2231670320034027,0.11392736434936523
1768418177239477200,1.527477294921875,0.26160603761672974,-0.18403294682502747,0.09715397655963898
1768418177249479200,1.537479248046875,0.2867918312549591,-0.1389717310667038,0.058336276561021805
1768418177259481000,1.547481201171875,0.29805833101272583,-0.1152176707983017,-0.026567962020635605
1768418177269482200,1.557482177734375,0.24816825985908508,-0.11892638355493546,-0.10357992351055145
1768418177279484200,1.567484130859375,0.17785122990608215,-0.15176236629486084,-0.13864363729953766
1768418177289486000,1.577486083984375,0.11883370578289032,-0.19214920699596405,-0.12387747317552567
1768418177299487200,1.5874873046875,0.08251911401748657,-0.23896890878677368,-0.08726725727319717
1768418177309489000,1.597489013671875,0.07923410087823868,-0.3025425672531128,-0.028414597734808922
1768418177319491000,1.607490966796875,0.091827392578125,-0.3706510365009308,0.06394436210393906
1768418177329492000,1.617491943359375,0.09234191477298737,-0.4649021625518799,0.16928942501544952
1768418177339494000,1.627493896484375,0.020124442875385284,-0.5226168632507324,0.3013361394405365
1768418177349496000,1.63749609375,-0.20967093110084534,-0.47475293278694153,0.5546578764915466
1768418177359497000,1.6474970703125,-0.24660073220729828,-0.6104074120521545,0.636378824710846
1768418177369499100,1.6574990234375,-0.31529244780540466,-0.6059482097625732,0.6241022348403931
1768418177379501000,1.6675009765625,-0.3563450574874878,-0.5852256417274475,0.5322953462600708
1768418177389502000,1.677501953125,-0.39209774136543274,-0.5859236717224121,0.3908287286758423
1768418177399504000,1.68750390625,-0.41985586285591125,-0.6384065747261047,0.23314297199249268
1768418177409504800,1.6975048828125,-0.44997915625572205,-0.7102085947990417,0.08997489511966705
1768418177419506700,1.707506591796875,-0.4904003441333771,-0.7785341143608093,0.010722951963543892
1768418177429508900,1.7175087890625,-0.5541290044784546,-0.8239719271659851,0.052085038274526596
1768418177439509800,1.727509765625,-0.589073896408081,-0.8692438006401062,0.17200691998004913
1768418177449511700,1.73751171875,-0.5353214740753174,-0.9247406125068665,0.33725473284721375
1768418177459513900,1.747513916015625,-0.4213954508304596,-0.9600107073783875,0.5569207668304443
1768418177469514800,1.7575146484375,-0.29752010107040405,-0.8913624286651611,0.7680918574333191
1768418177479516700,1.7675166015625,-0.10341347008943558,-0.6609827280044556,0.8719421029090881
1768418177489518800,1.777518798828125,0.12379411607980728,-0.3307054936885834,0.7488750219345093
1768418177499519700,1.787519775390625,0.3602343499660492,-0.0037699707318097353,0.47572073340415955
1768418177509522000,1.79752197265625,0.4560205340385437,0.23720109462738037,0.23018766939640045
1768418177519523800,1.80752392578125,0.36242133378982544,0.28809890151023865,0.0955081433057785
1768418177529524700,1.817524658203125,0.25377607345581055,0.1336427479982376,0.016866065561771393
1768418177539527000,1.82752685546875,0.127335324883461,-0.0655563697218895,0.014407169073820114
1768418177549528800,1.83752880859375,0.02070154994726181,-0.1829485148191452,0.09758461266756058
1768418177559529700,1.84752978515625,-0.003908189013600349,-0.20900115370750427,0.20957612991333008
1768418177569532000,1.857531982421875,0.028843898326158524,-0.1980867236852646,0.28172117471694946
1768418177579532800,1.86753271484375,0.08172842115163803,-0.1987844705581665,0.2761056125164032
1768418177589534700,1.87753466796875,0.07630542665719986,-0.16582971811294556,0.2539302706718445
1768418177599537000,1.887536865234375,-0.06342371553182602,-0.12486577033996582,0.20226095616817474
1768418177609537800,1.897537841796875,-0.09874814748764038,-0.1417992115020752,0.18594536185264587
1768418177619539700,1.907539794921875,-0.08103679865598679,-0.0967601016163826,0.1649322211742401
1768418177629542000,1.9175419921875,-0.04790733754634857,-0.07131572812795639,0.1272548884153366
1768418177639542800,1.927542724609375,-0.015454323962330818,-0.050098855048418045,0.07472297549247742
1768418177649545000,1.937544921875,0.0022397185675799847,-0.04783223569393158,0.018681276589632034
1768418177659547000,1.947546875,0.0029379993211477995,-0.06464530527591705,-0.02364940382540226
1768418177669547800,1.9575478515625,-0.004836300387978554,-0.08194892853498459,-0.049853309988975525
1768418177679550000,1.967550048828125,-0.013366139493882656,-0.0943073257803917,-0.06759928166866302
1768418177689552000,1.9775517578125,-0.01967490091919899,-0.10450723767280579,-0.0753091350197792
1768418177699552800,1.987552734375,-0.019283948466181755,-0.09819793701171875,-0.07479727268218994
1768418177709555000,1.997554931640625,-0.009183377958834171,-0.06461947411298752,-0.07719438523054123
1768418177719556900,2.007556884765625,0.008272843435406685,-0.01745382510125637,-0.084989994764328
1768418177729557800,2.017557861328125,0.021888254210352898,0.011227620765566826,-0.10456076264381409
1768418177739560000,2.027559814453125,0.02582067809998989,0.025775138288736343,-0.1265539526939392
1768418177749560800,2.037560791015625,0.01619015447795391,0.03232545033097267,-0.1438290774822235
1768418177759562800,2.047562744140625,-0.004710865672677755,0.03514546900987625,-0.14883102476596832
1768418177769565000,2.05756494140625,-0.02309999242424965,0.04139085114002228,-0.14914047718048096
1768418177779565800,2.06756591796875,-0.03677985072135925,0.05362487956881523,-0.14230787754058838
1768418177789568000,2.077568115234375,-0.03759850934147835,0.07147977501153946,-0.12562716007232666
1768418177799570000,2.08756982421875,-0.025016669183969498,0.09151739627122879,-0.10815709829330444
1768418177809570800,2.09757080078125,-0.0067971860989928246,0.10326433926820755,-0.10168641060590744
1768418177819573000,2.107572998046875,0.01002200786024332,0.10812300443649292,-0.0962463766336441
1768418177829575000,2.117574951171875,0.018667960539460182,0.10651738941669464,-0.09175841510295868
1768418177839575800,2.127575927734375,0.018375013023614883,0.0977257639169693,-0.09662933647632599
1768418177849578000,2.137577880859375,0.020061591640114784,0.08596950024366379,-0.10855923593044281
1768418177859580000,2.147579833984375,0.022551381960511208,0.0716845691204071,-0.12184601277112961
1768418177869580800,2.157580810546875,0.025532525032758713,0.06348097324371338,-0.12683944404125214
1768418177879583000,2.1675830078125,0.034160368144512177,0.060858290642499924,-0.1278218775987625
1768418177889585000,2.1775849609375,0.04361538961529732,0.05987904593348503,-0.1269177347421646
1768418177899586000,2.1875859375,0.05721535161137581,0.06525862962007523,-0.11767975986003876
1768418177909588000,2.197587890625,0.06548979133367538,0.06929678469896317,-0.10687451809644699
1768418177919588900,2.2075888671875,0.07432030141353607,0.07411763817071915,-0.10885298252105713
1768418177929591000,2.217591064453125,0.08437346667051315,0.08307810872793198,-0.11622993648052216
1768418177939593000,2.227593017578125,0.09051977843046188,0.08465656638145447,-0.13693015277385712
1768418177949593900,2.23759375,0.09354805946350098,0.0885343924164772,-0.15334002673625946
1768418177959596000,2.247595947265625,0.0972575768828392,0.08927714824676514,-0.16142404079437256
1768418177969597700,2.25759765625,0.09889568388462067,0.0872877687215805,-0.16579243540763855
1768418177979598800,2.267598876953125,0.09623438864946365,0.09013681858778,-0.1668100208044052
1768418177989601000,2.27760107421875,0.09284977614879608,0.0922234058380127,-0.16572478413581848
1768418177999602700,2.287602783203125,0.08241551369428635,0.09298160672187805,-0.16687606275081635
1768418178009603800,2.297603759765625,0.06966616213321686,0.08816155046224594,-0.16971340775489807
1768418178019605800,2.307605712890625,0.05411596596240997,0.08994507044553757,-0.17666904628276825
1768418178029607700,2.317607666015625,0.037876542657613754,0.0835215225815773,-0.18835952877998352
1768418178039608800,2.32760888671875,0.015868712216615677,0.08101841807365417,-0.2064778059720993
1768418178049610800,2.33761083984375,0.0010351707460358739,0.08425948768854141,-0.23088301718235016
1768418178059612700,2.34761279296875,-0.0033246902748942375,0.08802759647369385,-0.2663555145263672
1768418178069613800,2.35761376953125,0.0046727824956178665,0.0963427796959877,-0.3040504455566406
1768418178079615700,2.36761572265625,0.01715714856982231,0.09095946699380875,-0.33626750111579895
1768418178089617000,2.377616943359375,0.021085843443870544,0.08541742712259293,-0.3492746353149414
1768418178099618800,2.387618896484375,0.019875969737768173,0.08258941769599915,-0.3417845070362091
1768418178109620700,2.397620849609375,0.02178678847849369,0.07917418330907822,-0.33995649218559265
1768418178119621600,2.40762158203125,0.031619444489479065,0.09286975115537643,-0.35646969079971313
1768418178129623800,2.417623779296875,0.04802585020661354,0.11138910800218582,-0.39553987979888916
1768418178139625700,2.427625732421875,0.06338483095169067,0.12881949543952942,-0.4479628801345825
1768418178149626600,2.437626708984375,0.06603094935417175,0.16274257004261017,-0.5084030628204346
1768418178159628800,2.44762890625,0.059058260172605515,0.2147626280784607,-0.5684357285499573
1768418178169630700,2.457630615234375,0.034628551453351974,0.2762443721294403,-0.6215362548828125
1768418178179631900,2.4676318359375,-0.002180329989641905,0.3195367157459259,-0.6715038418769836
1768418178189633800,2.4776337890625,-0.056605223566293716,0.3567024767398834,-0.702197790145874
1768418178199635700,2.4876357421875,-0.12024172395467758,0.3952735662460327,-0.7040260434150696
1768418178209636900,2.497636962890625,-0.17980918288230896,0.43443506956100464,-0.6796892881393433
1768418178219638800,2.507638671875,-0.22654499113559723,0.46135616302490234,-0.638017475605011
1768418178229641000,2.517640869140625,-0.25756895542144775,0.48905810713768005,-0.5860413908958435
1768418178239641900,2.527641845703125,-0.2761562168598175,0.5037893652915955,-0.5482849478721619
1768418178249643800,2.537643798828125,-0.2827320992946625,0.5105753540992737,-0.5300012826919556
1768418178259644700,2.547644775390625,-0.27247360348701477,0.5283573269844055,-0.5070980787277222
1768418178269646800,2.557646728515625,-0.24793604016304016,0.5354498624801636,-0.47300058603286743
1768418178279648800,2.567648681640625,-0.21490804851055145,0.5386272668838501,-0.4514625370502472
1768418178289650000,2.57764990234375,-0.17838385701179504,0.5319677591323853,-0.4317636489868164
1768418178299651800,2.58765185546875,-0.14546212553977966,0.5035704970359802,-0.4169008135795593
1768418178309653800,2.59765380859375,-0.11638093739748001,0.4667096436023712,-0.3969886302947998
1768418178319655000,2.607655029296875,-0.09424341470003128,0.4407683312892914,-0.3699604868888855
1768418178329656800,2.61765673828125,-0.07956566661596298,0.41683557629585266,-0.3369932174682617
1768418178339658800,2.62765869140625,-0.0674152597784996,0.4008464813232422,-0.30927130579948425
1768418178349660000,2.637659912109375,-0.05733253061771393,0.36223945021629333,-0.2934121787548065
1768418178359661800,2.647661865234375,-0.05950300768017769,0.3115437626838684,-0.2863478660583496
1768418178369664000,2.6576640625,-0.05711015686392784,0.2726954519748688,-0.2646436393260956
1768418178379665000,2.667664794921875,-0.04189392179250717,0.22879882156848907,-0.23414379358291626
1768418178389666800,2.677666748046875,-0.017227722331881523,0.1704747974872589,-0.20142312347888947
1768418178399668000,2.68766796875,0.01672145538032055,0.11531780660152435,-0.15464656054973602
1768418178409670000,2.697669921875,0.05435724928975105,0.06351825594902039,-0.09862484037876129
1768418178419672000,2.707672119140625,0.08244507759809494,0.003093261504545808,-0.06484957039356232
1768418178429673000,2.7176728515625,0.09892524778842926,-0.03964994102716446,-0.06513665616512299
1768418178439675000,2.7276748046875,0.10786734521389008,-0.06860249489545822,-0.049732137471437454
1768418178449677000,2.737677001953125,0.11363521963357925,-0.10311466455459595,-0.005041896365582943
1768418178459678000,2.747677978515625,0.12098048627376556,-0.14756575226783752,0.04721811041235924
1768418178469679900,2.757679931640625,0.12529373168945312,-0.1808488816022873,0.07775285094976425
1768418178479682000,2.76768212890625,0.13443370163440704,-0.20136959850788116,0.08242297172546387
1768418178489683000,2.777682861328125,0.147494375705719,-0.18968737125396729,0.08057872951030731
1768418178499685000,2.78768505859375,0.16749738156795502,-0.1678079068660736,0.07732914388179779
1768418178509687000,2.79768701171875,0.1800222247838974,-0.14994555711746216,0.07440952211618423
1768418178519688000,2.80768798828125,0.17681445181369781,-0.13918665051460266,0.0639004185795784
1768418178529690000,2.817690185546875,0.16330742835998535,-0.12641413509845734,0.05890645831823349
1768418178539692000,2.827692138671875,0.13999678194522858,-0.1033245250582695,0.07475759088993073
1768418178549693000,2.83769287109375,0.12072242051362991,-0.07563244551420212,0.09938863664865494
1768418178559695000,2.847695068359375,0.1077088862657547,-0.0451967716217041,0.13077212870121002
1768418178569696000,2.857696044921875,0.09180795401334763,-0.02208692580461502,0.15763862431049347
1768418178579698000,2.867697998046875,0.07801410555839539,-0.002267415402457118,0.18012289702892303
1768418178589700000,2.8777001953125,0.0633866935968399,0.018270883709192276,0.1982710063457489
1768418178599701000,2.887700927734375,0.04751292243599892,0.03357846662402153,0.21644841134548187
1768418178609703000,2.897702880859375,0.025001224130392075,0.03214195743203163,0.2258397936820984
1768418178619705000,2.907705078125,0.002965429797768593,0.02262914553284645,0.23502503335475922
1768418178629706000,2.9177060546875,-0.01683623716235161,0.018433336168527603,0.24373996257781982
1768418178639708200,2.927708251953125,-0.02581082470715046,0.013550163246691227,0.2590315639972687
1768418178649709800,2.937709716796875,-0.03562377393245697,-0.006946056615561247,0.278357595205307
1768418178659711000,2.9477109375,-0.050520699471235275,-0.03164714202284813,0.2967509925365448
1768418178669713000,2.957712890625,-0.06318748742341995,-0.051113516092300415,0.31804242730140686
1768418178679714800,2.96771484375,-0.0749962106347084,-0.06156349554657936,0.3330743610858917
1768418178689716000,2.977716064453125,-0.08465496450662613,-0.07177644968032837,0.34353873133659363
1768418178699718000,2.9877177734375,-0.09144149720668793,-0.0925096943974495,0.3515806794166565
1768418178709719800,2.9977197265625,-0.10184620320796967,-0.11695165187120438,0.35783031582832336
1768418178719721000,3.007720947265625,-0.11000320315361023,-0.13520176708698273,0.3547370433807373
1768418178729723000,3.017722900390625,-0.1127326712012291,-0.16508802771568298,0.34160366654396057
1768418178739724000,3.02772412109375,-0.11948378384113312,-0.21814005076885223,0.32926684617996216
1768418178749725700,3.0377255859375,-0.12559254467487335,-0.27702173590660095,0.3430497646331787
1768418178759727900,3.047727783203125,-0.12256266921758652,-0.31388601660728455,0.3916098475456238
1768418178769729000,3.05772900390625,-0.10714509338140488,-0.307199090719223,0.4672020673751831
1768418178779731000,3.06773095703125,-0.07202545553445816,-0.2905524671077728,0.5434145331382751
1768418178789732900,3.07773291015625,-0.03110412321984768,-0.2629624009132385,0.5749205350875854
1768418178799733800,3.087733642578125,0.021991318091750145,-0.22417877614498138,0.523316502571106
1768418178809736000,3.09773583984375,0.07557199150323868,-0.1710423231124878,0.3900098204612732
1768418178819737900,3.10773779296875,0.1247941330075264,-0.08482647687196732,0.20008355379104614
1768418178829738800,3.11773876953125,0.1958555281162262,0.08957968652248383,0.024751951918005943
1768418178839741000,3.127740966796875,0.271414190530777,0.3187350928783417,-0.13689979910850525
1768418178849742800,3.137742919921875,0.28334009647369385,0.469295859336853,-0.282657265663147
1768418178859743700,3.14774365234375,0.2049238532781601,0.48586365580558777,-0.30112361907958984
1768418178869746000,3.157745849609375,0.11205410212278366,0.37724101543426514,-0.2203185260295868
1768418178879746800,3.167746826171875,0.026583673432469368,0.22413083910942078,-0.1528169810771942
1768418178889748700,3.177748779296875,-0.035828039050102234,0.06521575152873993,-0.09554889053106308
1768418178899751000,3.1877509765625,-0.07511472702026367,-0.05831417441368103,-0.011633220128715038
1768418178909751800,3.197751708984375,-0.11152306199073792,-0.15931855142116547,0.08740734308958054
1768418178919754000,3.20775390625,-0.164007306098938,-0.24286191165447235,0.19421128928661346
1768418178929756000,3.217755859375,-0.23165692389011383,-0.2810276746749878,0.2895926535129547
1768418178939756800,3.2277568359375,-0.2701502740383148,-0.3102326989173889,0.31038716435432434
1768418178949759000,3.237759033203125,-0.2723415195941925,-0.34699469804763794,0.25220587849617004
1768418178959761000,3.247760986328125,-0.2770529091358185,-0.3680152893066406,0.20880913734436035
1768418178969761800,3.25776171875,-0.2780561149120331,-0.42490655183792114,0.19467760622501373
1768418178979764000,3.267763916015625,-0.2821888029575348,-0.5330820083618164,0.18189284205436707
1768418178989766000,3.277765869140625,-0.2885068953037262,-0.6447678208351135,0.16224323213100433
1768418178999766800,3.287766845703125,-0.28954100608825684,-0.7384111881256104,0.1479969173669815
1768418179009769000,3.29776904296875,-0.27974164485931396,-0.7977988719940186,0.16168956458568573
1768418179019769900,3.307769775390625,-0.2478417605161667,-0.8143576383590698,0.20682507753372192
1768418179029772000,3.31777197265625,-0.19602037966251373,-0.8023819327354431,0.24563053250312805
1768418179039774000,3.32777392578125,-0.14672499895095825,-0.7673110365867615,0.24464383721351624
1768418179049774800,3.33777490234375,-0.10661539435386658,-0.7043445706367493,0.21232850849628448
1768418179059777000,3.347777099609375,-0.08277051150798798,-0.6103978753089905,0.16138596832752228
1768418179069779000,3.357779052734375,-0.07871531695127487,-0.48978036642074585,0.10980132967233658
1768418179079779800,3.36777978515625,-0.09158024936914444,-0.36429139971733093,0.05982418358325958
1768418179089782000,3.377781982421875,-0.11848163604736328,-0.24973739683628082,0.008622250519692898
1768418179099784000,3.387783935546875,-0.15076367557048798,-0.1482003927230835,-0.048046354204416275
1768418179109784800,3.397784912109375,-0.189015731215477,-0.0664682388305664,-0.09457630664110184
1768418179119787000,3.407787109375,-0.2327972948551178,0.0007693872321397066,-0.13490961492061615
1768418179129789000,3.417788818359375,-0.26982003450393677,0.06454170495271683,-0.164210245013237
1768418179139789800,3.427789794921875,-0.2935969829559326,0.12183801829814911,-0.18990495800971985
1768418179149792000,3.4377919921875,-0.3031092882156372,0.16614876687526703,-0.20864029228687286
1768418179159794000,3.4477939453125,-0.30240699648857117,0.1772831678390503,-0.22508504986763
1768418179169795000,3.457795166015625,-0.29418662190437317,0.16182751953601837,-0.223704993724823
1768418179179797000,3.467796875,-0.2812782824039459,0.1248340755701065,-0.20385725796222687
1768418179189798000,3.4777978515625,-0.253705769777298,0.06498832255601883,-0.1682976633310318
1768418179199800000,3.487800048828125,-0.21011275053024292,0.014399179257452488,-0.11977273970842361
1768418179209802000,3.497802001953125,-0.15695126354694366,-0.03748106211423874,-0.057485129684209824
1768418179219803000,3.507802978515625,-0.1104159876704216,-0.09652706980705261,0.011085674166679382
1768418179229805000,3.51780517578125,-0.07809693366289139,-0.16279050707817078,0.07620236277580261
1768418179239807000,3.527806884765625,-0.06179572269320488,-0.24742816388607025,0.13023044168949127
1768418179249808000,3.537807861328125,-0.05643051862716675,-0.3247871398925781,0.17372678220272064
1768418179259810000,3.54781005859375,-0.052203282713890076,-0.3715956509113312,0.20003774762153625
1768418179269812000,3.55781201171875,-0.03502190113067627,-0.38851311802864075,0.20704159140586853
1768418179279812900,3.567812744140625,-0.013773336075246334,-0.3699956238269806,0.18638798594474792
1768418179289815000,3.57781494140625,0.00848749466240406,-0.3322999179363251,0.13356710970401764
1768418179299816000,3.58781591796875,0.01525671686977148,-0.2829800248146057,0.04593127220869064
1768418179309818000,3.597818115234375,0.020989172160625458,-0.24065335094928741,-0.04687483236193657
1768418179319820000,3.607820068359375,0.03526824340224266,-0.1915619820356369,-0.12139380723237991
1768418179329821000,3.617821044921875,0.04548386111855507,-0.14840757846832275,-0.17250598967075348
1768418179339823000,3.627822998046875,0.044982653111219406,-0.10281506180763245,-0.19433751702308655
1768418179349825000,3.637824951171875,0.04416852816939354,-0.06420428305864334,-0.19632184505462646
1768418179359826000,3.647825927734375,0.042268626391887665,-0.030542196705937386,-0.1928488165140152
1768418179369828000,3.657828125,0.03759504482150078,-0.0028658276423811913,-0.18761064112186432
1768418179379829800,3.667829833984375,0.04260924458503723,0.02443876303732395,-0.18613232672214508
1768418179389831000,3.677830810546875,0.058455053716897964,0.059173308312892914,-0.19237370789051056
1768418179399832300,3.687832275390625,0.07754459232091904,0.09502238780260086,-0.20506659150123596
1768418179409834500,3.69783447265625,0.10062967240810394,0.14815005660057068,-0.2035565823316574
1768418179419835400,3.70783544921875,0.12517096102237701,0.20024147629737854,-0.18293200433254242
1768418179429837300,3.71783740234375,0.14216406643390656,0.2432645857334137,-0.15732677280902863
1768418179439838500,3.72783837890625,0.1497008055448532,0.2709486782550812,-0.12678749859333038
1768418179449840400,3.73784033203125,0.14451803267002106,0.2789511978626251,-0.08919113129377365
1768418179459842300,3.74784228515625,0.1384955644607544,0.29339566826820374,-0.046007703989744186
1768418179469843500,3.757843505859375,0.17163753509521484,0.4034481346607208,0.007173224352300167
1768418179479845400,3.767845458984375,0.1961442083120346,0.4421369433403015,0.046313170343637466
1768418179489847300,3.777847412109375,0.17730340361595154,0.416139155626297,0.045571744441986084
1768418179499848400,3.787848388671875,0.16853389143943787,0.38706570863723755,0.018094049766659737
1768418179509850400,3.797850341796875,0.18242201209068298,0.37643569707870483,-0.008409463800489902
1768418179519852300,3.807852294921875,0.2020692080259323,0.36521631479263306,-0.03549700602889061
1768418179529853400,3.817853515625,0.19046714901924133,0.37988340854644775,-0.07115913182497025
1768418179539855400,3.82785546875,0.13143472373485565,0.3455113172531128,-0.11354200541973114
1768418179549857300,3.837857177734375,0.047870852053165436,0.36230042576789856,-0.16374285519123077
1768418179559858400,3.8478583984375,-0.04187953844666481,0.4213983714580536,-0.234239399433136
1768418179569860000,3.857860107421875,-0.1306578814983368,0.5107753872871399,-0.3213615119457245
1768418179579861500,3.867861572265625,-0.1944728046655655,0.6198728680610657,-0.4013751149177551
1768418179589863400,3.877863525390625,-0.22941933572292328,0.7203126549720764,-0.46212634444236755
1768418179599865000,3.887864990234375,-0.24387390911579132,0.7905375361442566,-0.5037837624549866
1768418179609866500,3.897866455078125,-0.25412362813949585,0.841394305229187,-0.5469504594802856
1768418179619868200,3.9078681640625,-0.27562838792800903,0.9427153468132019,-0.5668847560882568
1768418179629870300,3.917870361328125,-0.238163560628891,1.0448627471923828,-0.5166098475456238
1768418179639871200,3.927871337890625,-0.15801626443862915,1.0830734968185425,-0.3733581304550171
1768418179649873200,3.937873046875,-0.05806463584303856,1.0321296453475952,-0.16785530745983124
1768418179659875300,3.947875244140625,0.03117096796631813,0.8910545706748962,0.04928632453083992
1768418179669876200,3.957876220703125,0.04802771285176277,0.6713773012161255,0.1846609264612198
1768418179679878100,3.967878173828125,-0.04117939621210098,0.3590220808982849,0.1971183866262436
1768418179689880300,3.97788037109375,-0.2509249150753021,0.01420636661350727,0.13515542447566986
1768418179699881200,3.987881103515625,-0.5147861242294312,-0.2664535343647003,0.06498326361179352
1768418179709883100,3.997883056640625,-0.7730637192726135,-0.41467416286468506,0.011349060572683811
1768418179719884300,4.00788427734375,-0.8947539329528809,-0.44471248984336853,-0.08524858206510544
1768418179729886200,4.01788623046875,-0.8192317485809326,-0.37249448895454407,-0.3023824989795685
1768418179739888000,4.02788818359375,-0.6731909513473511,-0.21270667016506195,-0.5281980633735657
1768418179749889300,4.03788916015625,-0.498964786529541,0.06787678599357605,-0.7026103138923645
1768418179759891200,4.04789111328125,-0.2822601795196533,0.3890489637851715,-0.7919474244117737
1768418179769893400,4.057893310546875,-0.07611580938100815,0.6779473423957825,-0.8211644291877747
1768418179779894300,4.067894287109375,0.09282048791646957,0.9045751690864563,-0.8311816453933716
1768418179789896200,4.077896240234375,0.24191436171531677,1.023112177848816,-0.769744336605072
1768418179799898400,4.0878984375,0.34217146039009094,0.986939013004303,-0.6011529564857483
1768418179809899300,4.097899169921875,0.30657804012298584,0.8494091033935547,-0.32458633184432983
1768418179819901200,4.107901123046875,0.31132325530052185,0.7365422248840332,-0.07102171331644058
1768418179829902300,4.11790234375,0.47339552640914917,0.6739403605461121,0.07649663835763931
1768418179839904300,4.127904296875,0.2707529366016388,0.30275294184684753,0.26438796520233154
1768418179849906200,4.13790625,-0.06977002322673798,-0.12035170942544937,0.470944881439209
1768418179859907300,4.1479072265625,-0.2437431514263153,-0.37854012846946716,0.49563291668891907
1768418179869909200,4.1579091796875,-0.27685555815696716,-0.477298378944397,0.3097013831138611
1768418179879911400,4.167911376953125,-0.14027908444404602,-0.43384039402008057,-0.013677729293704033
1768418179889912300,4.177912353515625,0.12192723900079727,-0.3775275945663452,-0.2694602310657501
1768418179899914200,4.187914306640625,0.2811187505722046,-0.34950047731399536,-0.42382878065109253
1768418179909916400,4.19791650390625,0.2973563075065613,-0.38791391253471375,-0.5304479002952576
1768418179919917300,4.207917236328125,0.27099183201789856,-0.47680091857910156,-0.5901176333427429
1768418179929919200,4.217919189453125,0.25522857904434204,-0.5228565335273743,-0.5859913229942322
1768418179939920100,4.227920166015625,0.27049699425697327,-0.5162343382835388,-0.5219202041625977
1768418179949922300,4.23792236328125,0.3201769292354584,-0.4906221926212311,-0.416439026594162
1768418179959924200,4.24792431640625,0.3622964322566986,-0.4392082691192627,-0.27879995107650757
1768418179969925400,4.25792529296875,0.3850233256816864,-0.3887788951396942,-0.12182896584272385
1768418179979927300,4.26792724609375,0.39574599266052246,-0.3526749610900879,0.028487566858530045
1768418179989929200,4.27792919921875,0.38720470666885376,-0.302641898393631,0.15321725606918335
1768418179999930400,4.287930419921875,0.3603470027446747,-0.23185187578201294,0.23812468349933624
1768418180009932300,4.297932373046875,0.32060572504997253,-0.14765097200870514,0.2659541964530945
1768418180019933200,4.30793310546875,0.24860554933547974,-0.09572385996580124,0.24796906113624573
1768418180029935400,4.317935302734375,0.1508273333311081,-0.06394622474908829,0.19337452948093414
1768418180039937300,4.327937255859375,0.042999930679798126,-0.05348559468984604,0.12139620631933212
1768418180049938200,4.337938232421875,0.01320874597877264,-0.038896799087524414,0.061341654509305954
1768418180059940400,4.3479404296875,0.02876506932079792,0.005802761763334274,0.027296602725982666
1768418180069942300,4.3579423828125,0.050999268889427185,0.05408693850040436,0.006862965878099203
1768418180079943400,4.367943359375,0.06731566041707993,0.11816525459289551,-0.014160560443997383
1768418180089945300,4.3779453125,0.14629516005516052,0.18711955845355988,-0.028231371194124222
1768418180099947300,4.387947265625,0.15603646636009216,0.20827651023864746,-0.012824452482163906
1768418180109948400,4.397948486328125,0.0593743771314621,0.09686210006475449,-0.00395772373303771
1768418180119950300,4.407950439453125,-0.032754749059677124,-0.017423996701836586,-0.007470699492841959
1768418180129951200,4.417951171875,-0.09769885987043381,-0.08966703712940216,0.004563326481729746
1768418180139953400,4.427953369140625,-0.14690741896629333,-0.1566130518913269,0.019994480535387993
1768418180149955300,4.437955322265625,-0.17627489566802979,-0.23273977637290955,0.029438050463795662
1768418180159956200,4.447956298828125,-0.16614502668380737,-0.2687414586544037,0.020238958299160004
1768418180169958400,4.45795849609375,-0.18445426225662231,-0.30642464756965637,-0.011390872299671173
1768418180179960300,4.467960205078125,-0.22696709632873535,-0.3486708998680115,-0.04290139302611351
1768418180189961200,4.477961181640625,-0.23077276349067688,-0.3732564151287079,-0.04772331193089485
1768418180199963400,4.48796337890625,-0.1954382061958313,-0.40100494027137756,-0.0264249499887228
1768418180209965300,4.49796533203125,-0.15363164246082306,-0.42930102348327637,0.010617757216095924
1768418180219966500,4.507966552734375,-0.12305109202861786,-0.45434167981147766,0.06393317878246307
1768418180229968400,4.517968505859375,-0.12630680203437805,-0.5048277378082275,0.11623206734657288
1768418180239969300,4.52796923828125,-0.15817871689796448,-0.5094584226608276,0.16187278926372528
1768418180249971500,4.537971435546875,-0.251048743724823,-0.5377603769302368,0.2064754068851471
1768418180259973400,4.547973388671875,-0.307014524936676,-0.6091136932373047,0.22040027379989624
1768418180269974300,4.557974365234375,-0.2528490424156189,-0.5821068286895752,0.24163579940795898
1768418180279976400,4.5679765625,-0.13431279361248016,-0.43938881158828735,0.2705340087413788
1768418180289978400,4.577978271484375,0.029325131326913834,-0.4155181050300598,0.31672602891921997
1768418180299979300,4.587979248046875,0.08860976248979568,-0.3417389690876007,0.3717842102050781
1768418180309981400,4.5979814453125,0.08217183500528336,-0.39383038878440857,0.381543904542923
1768418180319982300,4.607982421875,0.030585872009396553,-0.47769439220428467,0.32245874404907227
1768418180329984300,4.617984375,-0.028017519041895866,-0.5765373706817627,0.24306803941726685
1768418180339986400,4.627986328125,-0.06866934150457382,-0.6296617984771729,0.18785139918327332
1768418180349987300,4.6379873046875,-0.08683156967163086,-0.6096401810646057,0.17303995788097382
1768418180359989500,4.647989501953125,-0.07511845231056213,-0.6194943785667419,0.2183147519826889
1768418180369991400,4.657991455078125,-0.04139910638332367,-0.5811718106269836,0.2970186173915863
1768418180379992300,4.667992431640625,0.029618877917528152,-0.5425362586975098,0.36504852771759033
1768418180389994500,4.677994384765625,0.090481698513031,-0.5121809840202332,0.4395422041416168
1768418180399997000,4.687996826171875,0.13124777376651764,-0.50030118227005,0.4903483986854553
1768418180409998000,4.697998046875,0.16066370904445648,-0.5062285661697388,0.4965945780277252
1768418180420000000,4.708,0.16855545341968536,-0.4844340682029724,0.4363861083984375
1768418180430001000,4.7180009765625,0.17256112396717072,-0.3244273364543915,0.31866025924682617
1768418180440003000,4.728003173828125,0.23743999004364014,-0.08708296716213226,0.19008472561836243
1768418180450005000,4.7380048828125,0.30805930495262146,0.06775560975074768,0.16828781366348267
1768418180460006000,4.748005859375,0.27625900506973267,0.11666776239871979,0.23113521933555603
1768418180470008000,4.758008056640625,0.26163798570632935,0.07968417555093765,0.24682442843914032
1768418180480010000,4.768010009765625,0.20409613847732544,-0.07311442494392395,0.1909523755311966
1768418180490011100,4.77801123046875,0.08490929752588272,-0.26333123445510864,0.15687909722328186
1768418180500013000,4.788012939453125,-0.018575815483927727,-0.42164790630340576,0.1977868527173996
1768418180510014000,4.798013916015625,-0.09714891761541367,-0.5414222478866577,0.2928560972213745
1768418180520016100,4.80801611328125,-0.1627359241247177,-0.6680899262428284,0.39243489503860474
1768418180530018000,4.81801806640625,-0.19583581387996674,-0.725046694278717,0.44426798820495605
1768418180540019000,4.82801904296875,-0.20970582962036133,-0.7628211975097656,0.43947458267211914
1768418180550021000,4.838021240234375,-0.1973104029893875,-0.7183163166046143,0.42944324016571045
1768418180560023000,4.84802294921875,-0.1312674731016159,-0.5696362853050232,0.406613826751709
1768418180570024000,4.85802392578125,-0.036194756627082825,-0.41351380944252014,0.35347098112106323
1768418180580026000,4.868026123046875,0.042101114988327026,-0.3073580861091614,0.25442856550216675
1768418180590028000,4.878028076171875,0.09010512381792068,-0.21972490847110748,0.1296922117471695
1768418180600029000,4.88802880859375,0.10560312122106552,-0.12767113745212555,0.03021356277167797
1768418180610031000,4.898031005859375,0.08394603431224823,-0.053756438195705414,-0.017298296093940735
1768418180620032000,4.908031982421875,0.02701031230390072,-0.01558268815279007,-0.02924603596329689
1768418180630034200,4.9180341796875,-0.051048003137111664,-0.047333426773548126,-0.025048894807696342
1768418180640036000,4.9280361328125,-0.16994670033454895,-0.1136554554104805,-0.01726687140762806
1768418180650037000,4.938037109375,-0.29008933901786804,-0.16281741857528687,-0.009207346476614475
1768418180660039200,4.9480390625,-0.3652501404285431,-0.17884723842144012,-0.0004159857635386288
1768418180670041000,4.958041015625,-0.374371737241745,-0.16362328827381134,-0.015143533237278461
1768418180680042000,4.9680419921875,-0.3577754497528076,-0.14219655096530914,-0.05332447588443756
1768418180690044200,4.978044189453125,-0.3200078308582306,-0.13137932121753693,-0.10895631462335587
1768418180700045000,4.988045166015625,-0.2627149820327759,-0.10933847725391388,-0.15754728019237518
1768418180710047000,4.998046875,-0.2185368686914444,-0.10072581470012665,-0.18393175303936005
1768418180720049200,5.008049072265625,-0.179751917719841,-0.12269929051399231,-0.18600556254386902
1768418180730050000,5.018050048828125,-0.14571112394332886,-0.16940714418888092,-0.16859780251979828
1768418180740052000,5.028052001953125,-0.12321753799915314,-0.21786175668239594,-0.14234621822834015
1768418180750054100,5.03805419921875,-0.10967536270618439,-0.2514761686325073,-0.09944403171539307
1768418180760055000,5.048054931640625,-0.10594693571329117,-0.28752952814102173,-0.035419244319200516
1768418180770057200,5.05805712890625,-0.09120101481676102,-0.3272492289543152,0.04867113381624222
1768418180780058000,5.06805810546875,-0.06755560636520386,-0.34140685200691223,0.12481250613927841
1768418180790060000,5.07806005859375,-0.02486060932278633,-0.3228220045566559,0.1798427402973175
1768418180800062200,5.088062255859375,0.014093981124460697,-0.28183406591415405,0.2056807279586792
1768418180810063000,5.09806298828125,0.04249419644474983,-0.24481773376464844,0.2166833132505417
1768418180820065000,5.10806494140625,0.0644700676202774,-0.2055978924036026,0.2008122056722641
1768418180830067200,5.118067138671875,0.08341659605503082,-0.16462916135787964,0.16293245553970337
1768418180840068000,5.128068115234375,0.09528843313455582,-0.11869628727436066,0.11128311604261398
1768418180850070000,5.138070068359375,0.10550671815872192,-0.05422275885939598,0.06648901104927063
1768418180860071200,5.1480712890625,0.11105062067508698,0.013651896268129349,0.03172757104039192
1768418180870073000,5.158072998046875,0.10598795115947723,0.08070789277553558,0.00938977301120758
1768418180880075300,5.1680751953125,0.09270596504211426,0.1456594616174698,-0.005489840172231197
1768418180890076200,5.178076171875,0.08739083260297775,0.22231775522232056,-0.005875199567526579
1768418180900078000,5.188078125,0.09435392916202545,0.3147675395011902,0.00279072648845613
1768418180910080300,5.198080322265625,0.10999307781457901,0.4035724997520447,0.022912239655852318
1768418180920081200,5.2080810546875,0.12640294432640076,0.46098387241363525,0.050941210240125656
1768418180930083000,5.2180830078125,0.14730024337768555,0.515620231628418,0.06929465383291245
1768418180940084000,5.228083984375,0.1588250696659088,0.5515153408050537,0.08599826693534851
1768418180950086100,5.238086181640625,0.16735197603702545,0.5481880307197571,0.09385272860527039
1768418180960088000,5.248088134765625,0.18276555836200714,0.5336942672729492,0.09765066206455231
1768418180970089200,5.258089111328125,0.18717920780181885,0.5107429027557373,0.11377210170030594
1768418180980091100,5.268091064453125,0.19872668385505676,0.4761612117290497,0.12971246242523193
1768418180990093000,5.278093017578125,0.21968096494674683,0.4514622688293457,0.1292237639427185
1768418181000094200,5.28809423828125,0.24171702563762665,0.40791264176368713,0.12455977499485016
1768418181010096000,5.29809619140625,0.2854548990726471,0.39709702134132385,0.12102255970239639
1768418181020097000,5.308096923828125,0.33934929966926575,0.4139162302017212,0.09763707965612411
1768418181030099200,5.31809912109375,0.3591184914112091,0.4391118586063385,0.03365543112158775
1768418181040101000,5.32810107421875,0.32033219933509827,0.4642832577228546,-0.06536196172237396
1768418181050102000,5.33810205078125,0.22019228339195251,0.49713119864463806,-0.16811363399028778
1768418181060104200,5.348104248046875,0.07521911710500717,0.5312135219573975,-0.24527713656425476
1768418181070105000,5.35810498046875,-0.0862525999546051,0.5490537881851196,-0.29080572724342346
1768418181080107300,5.368107177734375,-0.22500941157341003,0.6001164317131042,-0.3107847571372986
1768418181090109200,5.378109130859375,-0.290203332901001,0.6861456036567688,-0.33705899119377136
1768418181100110000,5.388110107421875,-0.305404394865036,0.7801043391227722,-0.39009371399879456
1768418181110112300,5.3981123046875,-0.2998162806034088,0.8466516733169556,-0.4588557183742523
1768418181120114200,5.4081142578125,-0.3013997972011566,0.8832498788833618,-0.4690886437892914
1768418181130115000,5.418114990234375,-0.2842538356781006,0.9048752784729004,-0.3732694685459137
1768418181140117200,5.4281171875,-0.250227689743042,0.8780689835548401,-0.15148167312145233
1768418181150118100,5.4381181640625,-0.2008122056722641,0.7976151704788208,0.13416792452335358
1768418181160120000,5.4481201171875,-0.18454933166503906,0.6429941654205322,0.32105258107185364
1768418181170122200,5.458122314453125,-0.2340007722377777,0.35113832354545593,0.29049229621887207
1768418181180123100,5.468123046875,-0.36895912885665894,0.042640671133995056,0.19943268597126007
1768418181190125000,5.478125,-0.5597413182258606,-0.16266535222530365,0.21901251375675201
1768418181200127200,5.488127197265625,-0.7450312972068787,-0.3202155530452728,0.3237338662147522
1768418181210128100,5.498128173828125,-0.7573100924491882,-0.42450815439224243,0.3399498462677002
1768418181220130300,5.50813037109375,-0.6289113163948059,-0.3323928713798523,0.138487309217453
1768418181230131200,5.518131103515625,-0.45422422885894775,-0.13802950084209442,-0.20857131481170654
1768418181240133000,5.528133056640625,-0.2367827147245407,0.11763688176870346,-0.5139605402946472
1768418181250135300,5.53813525390625,-0.013857225887477398,0.4215083420276642,-0.6890436410903931
1768418181260136200,5.54813623046875,0.18723008036613464,0.7482712864875793,-0.7300446033477783
1768418181270138000,5.55813818359375,0.3662400543689728,0.994113564491272,-0.6906048059463501
1768418181280139300,5.56813916015625,0.49619725346565247,1.0638548135757446,-0.6126394271850586
1768418181290141200,5.57814111328125,0.4933053255081177,0.9952318072319031,-0.5016961097717285
1768418181300143000,5.58814306640625,0.37862905859947205,0.8341673016548157,-0.38203445076942444
1768418181310144300,5.598144287109375,0.20176401734352112,0.5786463022232056,-0.24463717639446259
1768418181320146200,5.608146240234375,0.0055031562224030495,0.3289121091365814,-0.06704854220151901
1768418181330147000,5.61814697265625,-0.11634791642427444,0.15292562544345856,0.11754607409238815
1768418181340149200,5.628149169921875,-0.12222311645746231,0.04295465722680092,0.24677330255508423
1768418181350151200,5.638151123046875,-0.029256688430905342,-0.003620301140472293,0.2931240200996399
1768418181360152000,5.648152099609375,0.10430829226970673,-0.01025556679815054,0.2494223415851593
1768418181370154200,5.658154296875,0.21576957404613495,0.0002657834847923368,0.13637302815914154
1768418181380156200,5.66815625,0.284933477640152,-0.0006223807577043772,-0.0037942056078463793
1768418181390157000,5.678156982421875,0.30631598830223083,-0.027404725551605225,-0.14037787914276123
1768418181400159000,5.688158935546875,0.3116023540496826,-0.0778319463133812,-0.24921035766601562
1768418181410159900,5.698159912109375,0.3250041902065277,-0.1170019879937172,-0.31140580773353577
1768418181420162000,5.708162109375,0.3374747037887573,-0.1360185593366623,-0.321505606174469
1768418181430164000,5.7181640625,0.34428921341896057,-0.15039323270320892,-0.27848783135414124
1768418181440164900,5.728164794921875,0.34435924887657166,-0.16704145073890686,-0.17151182889938354
1768418181450167000,5.7381669921875,0.3345516324043274,-0.16633304953575134,-0.0383969247341156
1768418181460168000,5.74816796875,0.3361620306968689,-0.13304300606250763,0.08318144083023071
1768418181470169900,5.758169921875,0.3421117961406708,-0.07868495583534241,0.168375164270401
1768418181480172000,5.768172119140625,0.336563378572464,-0.027177825570106506,0.22267834842205048
1768418181490173000,5.7781728515625,0.32609421014785767,0.006578274071216583,0.24822817742824554
1768418181500174800,5.7881748046875,0.29935821890830994,0.01908048428595066,0.24853897094726562
1768418181510176000,5.798176025390625,0.2538250684738159,0.0057106162421405315,0.21556851267814636
1768418181520178000,5.808177978515625,0.203586146235466,-0.0337611585855484,0.18684178590774536
1768418181530179800,5.818179931640625,0.1681639701128006,-0.05704118311405182,0.1802946776151657
1768418181540181000,5.828180908203125,0.15110376477241516,-0.06482187658548355,0.16374897956848145
1768418181550183000,5.838182861328125,0.12493740767240524,-0.10009091347455978,0.13209572434425354
1768418181560184800,5.848184814453125,0.09863816201686859,-0.1467801183462143,0.10880318284034729
1768418181570186000,5.85818603515625,0.056419868022203445,-0.20521652698516846,0.10103926807641983
1768418181580188000,5.86818798828125,0.010905378498136997,-0.2652292847633362,0.09468016773462296
1768418181590188800,5.878188720703125,-0.034146517515182495,-0.3304716646671295,0.08792772144079208
1768418181600191000,5.88819091796875,-0.08041707426309586,-0.37160685658454895,0.0858462005853653
1768418181610193000,5.89819287109375,-0.12058660387992859,-0.3891136646270752,0.08387519419193268
1768418181620194000,5.908194091796875,-0.16494154930114746,-0.38605955243110657,0.07209416478872299
1768418181630196000,5.918196044921875,-0.21515145897865295,-0.3830549716949463,0.04518985003232956
1768418181640196900,5.92819677734375,-0.2627655863761902,-0.37885862588882446,0.009843842126429081
1768418181650199000,5.938198974609375,-0.29511207342147827,-0.37415122985839844,-0.03317419812083244
1768418181660201000,5.948200927734375,-0.30543795228004456,-0.3773542046546936,-0.0740388035774231
1768418181670201900,5.958201904296875,-0.30295267701148987,-0.39239946007728577,-0.09870340675115585
1768418181680204000,5.9682041015625,-0.31150755286216736,-0.40622448921203613,-0.10272771120071411
1768418181690205000,5.978204833984375,-0.3365199565887451,-0.3866334557533264,-0.08371993154287338
1768418181700206800,5.988206787109375,-0.3827891945838928,-0.34271714091300964,-0.04734541103243828
1768418181710208800,5.998208740234375,-0.41936689615249634,-0.3899797201156616,0.019459452480077744
1768418181720210000,6.0082099609375,-0.3774556815624237,-0.5281376242637634,0.1154823899269104
1768418181730211800,6.0182119140625,-0.28013738989830017,-0.5567042827606201,0.21142490208148956
1768418181740213000,6.028212890625,-0.16064533591270447,-0.48603567481040955,0.23382341861724854
1768418181750215000,6.03821484375,-0.03696281090378761,-0.4039272367954254,0.15645645558834076
1768418181760216800,6.048216796875,0.04833344370126724,-0.35982954502105713,0.06181223317980766
1768418181770218000,6.058218017578125,0.07944022864103317,-0.3744625449180603,0.003510046284645796
1768418181780220000,6.068219970703125,0.08620945364236832,-0.43955525755882263,-0.037213150411844254
1768418181790220800,6.078220703125,0.11021971702575684,-0.452115535736084,-0.053228866308927536
1768418181800223000,6.088222900390625,0.17531722784042358,-0.4219552278518677,-0.050644002854824066
1768418181810225000,6.098224853515625,0.26606816053390503,-0.35799941420555115,-0.021107416599988937
1768418181820226000,6.10822607421875,0.33528345823287964,-0.2610531747341156,0.024341026321053505
1768418181830228000,6.11822802734375,0.34644263982772827,-0.17060315608978271,0.04712836444377899
1768418181840228900,6.128228759765625,0.2732115685939789,-0.08405096083879471,0.0196077898144722
1768418181850231000,6.13823095703125,0.14797109365463257,0.12510518729686737,-0.02202221192419529
1768418181860232700,6.148232666015625,0.14929787814617157,0.4905683696269989,0.02719460241496563
1768418181870233900,6.15823388671875,0.23693664371967316,0.6603361368179321,0.05071883648633957
1768418181880236000,6.168236083984375,0.3279975950717926,0.49820685386657715,-0.016040751710534096
1768418181890237000,6.17823681640625,0.30663636326789856,0.28869864344596863,-0.06368230283260345
1768418181900238800,6.18823876953125,0.1811133325099945,0.07172105461359024,-0.04066700115799904
1768418181910240800,6.19824072265625,0.03857535496354103,-0.18307234346866608,-0.010725081898272038
1768418181920242000,6.208241943359375,-0.06339015811681747,-0.3845815062522888,0.06185484677553177
1768418181930243800,6.218243896484375,-0.1246710941195488,-0.4693712294101715,0.2358386218547821
1768418181940245000,6.228244873046875,-0.15842106938362122,-0.4910717308521271,0.42965763807296753
1768418181950247000,6.238246826171875,-0.1391775906085968,-0.5337978601455688,0.5076498985290527
1768418181960248800,6.248248779296875,-0.09730285406112671,-0.5079109072685242,0.4612685441970825
1768418181970250000,6.25825,-0.03274942561984062,-0.3672927916049957,0.4241134524345398
1768418181980252000,6.268251953125,0.02828543446958065,-0.20548178255558014,0.4316675066947937
1768418181990252800,6.278252685546875,0.06677822768688202,-0.08600971847772598,0.4128842353820801
1768418182000255000,6.2882548828125,0.07510247081518173,-0.02069436013698578,0.30341580510139465
1768418182010256600,6.298256591796875,0.07058148831129074,0.03337766230106354,0.14858680963516235
1768418182020258000,6.308258056640625,0.05867103487253189,0.0923919826745987,0.027722440659999847
1768418182030260000,6.318260009765625,0.028492094948887825,0.15731292963027954,-0.036985449492931366
1768418182040260900,6.3282607421875,-0.01907755434513092,0.219480961561203,-0.05643318220973015
1768418182050263000,6.338262939453125,-0.06824137270450592,0.2731473743915558,-0.04970204085111618
1768418182060264700,6.3482646484375,-0.11640064418315887,0.31062471866607666,-0.027722440659999847
1768418182070265900,6.358265869140625,-0.16393327713012695,0.3462953567504883,0.0029292108956724405
1768418182080268000,6.36826806640625,-0.20264045894145966,0.35075029730796814,0.020386498421430588
1768418182090269000,6.37826904296875,-0.22378702461719513,0.3738739788532257,0.032287098467350006
1768418182100270800,6.388270751953125,-0.19973601400852203,0.40311524271965027,0.04928232729434967
1768418182110272800,6.398272705078125,-0.18883302807807922,0.4302312731742859,0.05519534647464752
1768418182120274000,6.40827392578125,-0.15666604042053223,0.44123226404190063,0.06100210174918175
1768418182130275800,6.41827587890625,-0.14065484702587128,0.44141602516174316,0.07476717978715897
1768418182140277000,6.428277099609375,-0.12574701011180878,0.4100666046142578,0.08069165050983429
1768418182150279000,6.43827880859375,-0.09780672192573547,0.3393879234790802,0.07857497036457062
1768418182160280800,6.44828076171875,-0.057317350059747696,0.2873968780040741,0.09292194992303848
1768418182170282000,6.458281982421875,-0.020611269399523735,0.24138599634170532,0.1308954358100891
1768418182180284000,6.468283935546875,0.0037643781397491693,0.20778489112854004,0.1763944774866104
1768418182190284800,6.478284912109375,0.014693458564579487,0.17410415410995483,0.2289373129606247
1768418182200287000,6.488286865234375,0.03644242882728577,0.16307280957698822,0.28294435143470764
1768418182210288600,6.49828857421875,0.05546405911445618,0.1724063903093338,0.3171699643135071
1768418182220290000,6.5082900390625,0.06635771691799164,0.17794150114059448,0.3283235430717468
1768418182230292000,6.5182919921875,0.07746363431215286,0.19436681270599365,0.3235546350479126
1768418182240292900,6.52829296875,0.09423781931400299,0.21279215812683105,0.310821533203125
1768418182250295000,6.538294921875,0.11421072483062744,0.22650450468063354,0.2933237552642822
1768418182260296700,6.548296630859375,0.13821673393249512,0.23684263229370117,0.26589664816856384
1768418182270297900,6.5582978515625,0.15469104051589966,0.23626819252967834,0.227851003408432
1768418182280299800,6.5682998046875,0.1665024310350418,0.23752760887145996,0.18284891545772552
1768418182290301000,6.578301025390625,0.16779246926307678,0.24711550772190094,0.14670422673225403
1768418182300302800,6.588302734375,0.159240260720253,0.26771771907806396,0.12052348256111145
1768418182310304800,6.5983046875,0.14486584067344666,0.3009422719478607,0.10646039992570877
1768418182320306000,6.608305908203125,0.13457778096199036,0.33583179116249084,0.09052164107561111
1768418182330307800,6.618307861328125,0.12128115445375443,0.3610665798187256,0.07416796684265137
1768418182340309000,6.62830908203125,0.09993458539247513,0.3801169693470001,0.05993763729929924
1768418182350311000,6.638310791015625,0.07759705930948257,0.39423438906669617,0.06083059310913086
1768418182360312800,6.648312744140625,0.0687500387430191,0.4485034942626953,0.06608927249908447
1768418182370314000,6.65831396484375,0.06384635716676712,0.4888612926006317,0.07843488454818726
1768418182380316000,6.66831591796875,0.06592415273189545,0.5078964829444885,0.1037604808807373
1768418182390317000,6.678317138671875,0.07748067378997803,0.5577524900436401,0.13799382746219635
1768418182400319000,6.688319091796875,0.1379200518131256,0.563366711139679,0.14659184217453003
1768418182410319400,6.6983193359375,0.21165259182453156,0.5457016825675964,0.08860230445861816
1768418182420321500,6.708321533203125,0.25764644145965576,0.5617431998252869,-0.038536474108695984
1768418182430323500,6.718323486328125,0.2262381911277771,0.5507150888442993,-0.20446206629276276
1768418182440324600,6.72832470703125,0.12882961332798004,0.5380306839942932,-0.37633103132247925
1768418182450326500,6.738326416015625,-0.02225710265338421,0.5533971190452576,-0.5277175903320312
1768418182460327400,6.748327392578125,-0.21009917557239532,0.5748574137687683,-0.6451672911643982
1768418182470329600,6.75832958984375,-0.3813769221305847,0.6033790707588196,-0.7044260501861572
1768418182480331500,6.76833154296875,-0.49599429965019226,0.6198890805244446,-0.6655415296554565
1768418182490332400,6.77833251953125,-0.5716778635978699,0.5453570485115051,-0.48859286308288574
1768418182500334600,6.78833447265625,-0.6512118577957153,0.3877285420894623,-0.19392021000385284
1768418182510335500,6.79833544921875,-0.7635045647621155,0.14088335633277893,0.06703575700521469
1768418182520337400,6.80833740234375,-0.8967912793159485,-0.16523076593875885,0.19471116364002228
1768418182530339600,6.818339599609375,-0.9711243510246277,-0.3522493839263916,0.2977432608604431
1768418182540340500,6.828340576171875,-0.9332517981529236,-0.4760642647743225,0.3947758078575134
1768418182550342400,6.83834228515625,-0.7504960894584656,-0.5691606402397156,0.4170885682106018
1768418182560343600,6.848343505859375,-0.4765220880508423,-0.4986460208892822,0.33066606521606445
1768418182570345500,6.858345458984375,-0.22505681216716766,-0.31777822971343994,0.0792737826704979
1768418182580347600,6.86834765625,-0.0008623315370641649,-0.04325426369905472,-0.2519014775753021
1768418182590348500,6.8783486328125,0.19568215310573578,0.2791847586631775,-0.5322676301002502
1768418182600350500,6.8883505859375,0.3150186538696289,0.5681222677230835,-0.7623913884162903
1768418182610351400,6.898351318359375,0.3591237962245941,0.602527916431427,-0.9168480634689331
1768418182620353500,6.908353515625,0.29452458024024963,0.4716833829879761,-0.9151548147201538
1768418182630354400,6.9183544921875,0.13232368230819702,0.3488248288631439,-0.7050052881240845
1768418182640356600,6.928356689453125,-0.023020630702376366,0.2021014392375946,-0.34556618332862854
1768418182650358500,6.938358642578125,-0.1144738495349884,0.06396433711051941,0.03357686847448349
1768418182660359400,6.948359375,-0.1495141237974167,-0.06028304621577263,0.34465697407722473
1768418182670361600,6.958361572265625,-0.14528235793113708,-0.22921641170978546,0.5846701264381409
1768418182680362500,6.968362548828125,-0.09880700707435608,-0.40973371267318726,0.7244261503219604
1768418182690364400,6.978364501953125,0.0107695572078228,-0.5486588478088379,0.7346601486206055
1768418182700366600,6.98836669921875,0.15605910122394562,-0.6372451782226562,0.619340181350708
1768418182710367500,6.998367431640625,0.27059608697891235,-0.6887962222099304,0.42181622982025146
1768418182720369400,7.008369384765625,0.3119989037513733,-0.6997128129005432,0.18179616332054138
1768418182730370600,7.01837060546875,0.3206413984298706,-0.703763484954834,-0.046188801527023315
1768418182740372500,7.02837255859375,0.3157254755496979,-0.7067901492118835,-0.21805669367313385
1768418182750373400,7.038373291015625,0.30576497316360474,-0.6928709149360657,-0.3046882748603821
1768418182760375600,7.04837548828125,0.31451985239982605,-0.6585797667503357,-0.31269797682762146
1768418182770377500,7.05837744140625,0.3215271532535553,-0.5987004637718201,-0.2644058167934418
1768418182780378400,7.06837841796875,0.3245304226875305,-0.5026447772979736,-0.1817476898431778
1768418182790380500,7.078380615234375,0.32785937190055847,-0.4070678949356079,-0.08154252916574478
1768418182800381400,7.08838134765625,0.3284258246421814,-0.30458465218544006,0.02490268647670746
1768418182810383400,7.09838330078125,0.321177214384079,-0.22126688063144684,0.10616665333509445
1768418182820385500,7.108385498046875,0.3054746985435486,-0.16612106561660767,0.14227432012557983
1768418182830386400,7.118386474609375,0.28440243005752563,-0.13207601010799408,0.1444178968667984
1768418182840388600,7.128388671875,0.25127536058425903,-0.10266619175672531,0.12399198859930038
1768418182850389500,7.138389404296875,0.2058945745229721,-0.10962050408124924,0.10651925206184387
1768418182860391400,7.148391357421875,0.1480208933353424,-0.12457948178052902,0.09023375809192657
1768418182870392300,7.158392333984375,0.10356979817152023,-0.14525572955608368,0.0849979817867279
1768418182880394500,7.16839453125,0.07008374482393265,-0.15845701098442078,0.08391886949539185
1768418182890396400,7.178396484375,0.05482596531510353,-0.1863778680562973,0.08390342444181442
1768418182900397600,7.1883974609375,0.03532923012971878,-0.22875727713108063,0.07940854132175446
1768418182910399500,7.1983994140625,0.005536978133022785,-0.26222681999206543,0.07882104814052582
1768418182920400400,7.208400390625,-0.03093660995364189,-0.27170315384864807,0.07767508924007416
1768418182930402600,7.218402587890625,-0.06013710796833038,-0.2787189781665802,0.06517953425645828
1768418182940404500,7.228404541015625,-0.08724728971719742,-0.3005449175834656,0.04375919699668884
1768418182950405400,7.2384052734375,-0.12513715028762817,-0.32689690589904785,0.028629779815673828
1768418182960407600,7.248407470703125,-0.17984379827976227,-0.353563129901886,0.03123461827635765
1768418182970408400,7.258408447265625,-0.24173006415367126,-0.36417636275291443,0.04496774077415466
1768418182980410400,7.268410400390625,-0.2850293517112732,-0.3481747508049011,0.06358243525028229
1768418182990411500,7.27841162109375,-0.2860266864299774,-0.3167654275894165,0.070430226624012
1768418183000413400,7.288413330078125,-0.2579686939716339,-0.2612640857696533,0.06463811546564102
1768418183010415400,7.298415283203125,-0.23632144927978516,-0.20048703253269196,0.04474563151597977
1768418183020416500,7.30841650390625,-0.26506307721138,-0.08379077166318893,0.02388882078230381
1768418183030418400,7.31841845703125,-0.3328160345554352,-0.03634762018918991,0.013252155855298042
1768418183040419300,7.32841943359375,-0.35829848051071167,-0.2136417031288147,0.028775189071893692
1768418183050421500,7.33842138671875,-0.30966198444366455,-0.3570191264152527,0.13715039193630219
1768418183060423400,7.34842333984375,-0.25932344794273376,-0.38882896304130554,0.2545667588710785
1768418183070424300,7.35842431640625,-0.2011171281337738,-0.3628104329109192,0.25519660115242004
1768418183080426500,7.368426513671875,-0.12082282453775406,-0.29741570353507996,0.18420179188251495
1768418183090427400,7.378427490234375,-0.024267256259918213,-0.2749881446361542,0.1251952052116394
1768418183100429600,7.3884296875,0.06917667388916016,-0.3515084981918335,0.07852676510810852
1768418183110430500,7.398430419921875,0.1539517492055893,-0.4635325074195862,0.003704989794641733
1768418183120432400,7.408432373046875,0.22550874948501587,-0.5400334000587463,-0.06436221301555634
1768418183130434600,7.4184345703125,0.3088390529155731,-0.5377635955810547,-0.09787356853485107
1768418183140435500,7.428435546875,0.3966948986053467,-0.45382022857666016,-0.12332326918840408
1768418183150437400,7.438437255859375,0.43899813294410706,-0.3266090154647827,-0.1698921024799347
1768418183160438500,7.4484384765625,0.379639208316803,-0.15292988717556,-0.24112792313098907
1768418183170440400,7.4584404296875,0.24796107411384583,0.1594298779964447,-0.26346254348754883
1768418183180441300,7.46844140625,0.227273628115654,0.4579334855079651,-0.18942639231681824
1768418183190443500,7.478443603515625,0.3024402856826782,0.4843083620071411,-0.18519489467144012
1768418183200445400,7.488445556640625,0.30775994062423706,0.32303130626678467,-0.2358817756175995
1768418183210446300,7.4984462890625,0.2419590950012207,0.09577925503253937,-0.2350684404373169
1768418183220448500,7.508448486328125,0.15334747731685638,-0.18389686942100525,-0.14062368869781494
1768418183230449400,7.518449462890625,0.0960724726319313,-0.45030537247657776,0.03425490856170654
1768418183240451300,7.528451416015625,0.07222332805395126,-0.5799816250801086,0.26314881443977356
1768418183250453500,7.53845361328125,0.08296971768140793,-0.6453859210014343,0.465262234210968
1768418183260454400,7.548454345703125,0.12115439027547836,-0.66371750831604,0.579653799533844
1768418183270456300,7.558456298828125,0.11403921991586685,-0.5586528778076172,0.5490719079971313
1768418183280457500,7.56845751953125,0.09518590569496155,-0.33046579360961914,0.4734048545360565
1768418183290459400,7.57845947265625,0.09966134279966354,-0.05582917854189873,0.453385591506958
1768418183300460300,7.588460205078125,0.11118990182876587,0.13914909958839417,0.40345266461372375
1768418183310462500,7.59846240234375,0.09579310566186905,0.2560770511627197,0.24244485795497894
1768418183320464400,7.60846435546875,0.0416845977306366,0.3482522666454315,0.02490481734275818
1768418183330465300,7.61846533203125,-0.0006452839006669819,0.4350912868976593,-0.12923681735992432
1768418183340467500,7.628467529296875,-0.05973497033119202,0.5025150775909424,-0.17952261865139008
1768418183350468400,7.63846826171875,-0.1344829797744751,0.5346159934997559,-0.16076704859733582
1768418183360470500,7.648470458984375,-0.18926259875297546,0.5397825241088867,-0.11555402725934982
1768418183370471400,7.658471435546875,-0.2297772765159607,0.560236930847168,-0.05109966918826103
1768418183380473300,7.668473388671875,-0.2688325345516205,0.5882613658905029,0.026149312034249306
1768418183390475500,7.6784755859375,-0.30582863092422485,0.617084264755249,0.10264381766319275
1768418183400476400,7.688476318359375,-0.3204895853996277,0.6188490986824036,0.17489884793758392
1768418183410478300,7.698478271484375,-0.31566181778907776,0.6131440997123718,0.24325473606586456
1768418183420479200,7.708479248046875,-0.28941023349761963,0.6208121180534363,0.3018360137939453
1768418183430481200,7.718481201171875,-0.2495773434638977,0.60505211353302,0.32489392161369324
1768418183440482300,7.728482421875,-0.2181997150182724,0.5826817750930786,0.3331422805786133
1768418183450484200,7.738484130859375,-0.1867120862007141,0.5371382832527161,0.3407061994075775
1768418183460486400,7.748486328125,-0.15687111020088196,0.4471053183078766,0.3408779501914978
1768418183470487300,7.7584873046875,-0.12597577273845673,0.32611045241355896,0.3137422204017639
1768418183480489200,7.7684892578125,-0.09000153094530106,0.23118475079536438,0.28039276599884033
1768418183490490000,7.778489990234375,-0.047807469964027405,0.1737896353006363,0.2685757875442505
1768418183500492300,7.7884921875,-0.01798832230269909,0.13499855995178223,0.2736469805240631
1768418183510493200,7.7984931640625,0.0187209565192461,0.09987892955541611,0.27907052636146545
1768418183520495400,7.808495361328125,0.05282779410481453,0.06039143726229668,0.26751241087913513
1768418183530497300,7.818497314453125,0.08395268768072128,0.03429379314184189,0.24288241565227509
1768418183540498200,7.828498291015625,0.13069063425064087,0.03539660573005676,0.21496450901031494
1768418183550500400,7.838500244140625,0.17339788377285004,0.06196243688464165,0.18037483096122742
1768418183560501200,7.848501220703125,0.19223283231258392,0.08933866769075394,0.1459481567144394
1768418183570503200,7.858503173828125,0.20458856225013733,0.12073574215173721,0.14089453220367432
1768418183580504300,7.86850439453125,0.21143102645874023,0.14785923063755035,0.16534608602523804
1768418183590506200,7.87850634765625,0.21498234570026398,0.17321012914180756,0.21269388496875763
1768418183600508200,7.888508056640625,0.2122933566570282,0.21961811184883118,0.26742982864379883
1768418183610509300,7.89850927734375,0.21709635853767395,0.2640945017337799,0.30055877566337585
1768418183620511200,7.90851123046875,0.22153691947460175,0.29357674717903137,0.26907220482826233
1768418183630512000,7.91851220703125,0.21232157945632935,0.3353620171546936,0.21111942827701569
1768418183640514300,7.928514404296875,0.18840159475803375,0.37861496210098267,0.18999390304088593
1768418183650515200,7.93851513671875,0.1612677127122879,0.40355679392814636,0.20365644991397858
1768418183660517000,7.94851708984375,0.12869113683700562,0.40230217576026917,0.18333467841148376
1768418183670519300,7.958519287109375,0.10259082168340683,0.405711829662323,0.11223866045475006
1768418183680520200,7.968520263671875,0.09791591018438339,0.38007622957229614,0.03542882949113846
1768418183690522000,7.978522216796875,0.11792983114719391,0.33941081166267395,-0.018205901607871056
1768418183700523300,7.988523193359375,0.14550021290779114,0.3110518753528595,-0.08230526000261307
1768418183710525200,7.998525146484375,0.12464872002601624,0.2426704317331314,-0.18471312522888184
1768418183720526300,8.0085263671875,0.05149008706212044,0.1621233969926834,-0.2770044505596161
1768418183730528300,8.0185283203125,-0.055157795548439026,0.10577596724033356,-0.336712509393692
1768418183740530200,8.0285302734375,-0.1724948137998581,0.09896758943796158,-0.3704318702220917
1768418183750531000,8.038531005859374,-0.28540724515914917,0.17319469153881073,-0.3751398026943207
1768418183760533200,8.048533203125,-0.35214686393737793,0.28049689531326294,-0.31698673963546753
1768418183770534400,8.058534423828124,-0.37002092599868774,0.30394071340560913,-0.21196258068084717
1768418183780536300,8.068536376953125,-0.3990493714809418,0.17289720475673676,-0.09195415675640106
1768418183790537500,8.078537353515625,-0.4901369512081146,-0.027097398415207863,0.08018484711647034
1768418183800539100,8.0885390625,-0.5956548452377319,-0.2520679235458374,0.2539086937904358
1768418183810541300,8.098541259765625,-0.6807673573493958,-0.4853038489818573,0.33869656920433044
1768418183820542200,8.108542236328125,-0.7302739024162292,-0.6792852878570557,0.3544102907180786
1768418183830544100,8.118544189453125,-0.724753201007843,-0.8055553436279297,0.3314777910709381
1768418183840545500,8.128545654296875,-0.6293395757675171,-0.8413130640983582,0.23367427289485931
1768418183850547200,8.138547119140625,-0.46704867482185364,-0.705104410648346,-0.022714899852871895
1768418183860548400,8.14854833984375,-0.3040786683559418,-0.3928671181201935,-0.351323664188385
1768418183870550300,8.15855029296875,-0.13628141582012177,-0.0183478482067585,-0.61185222864151
1768418183880552200,8.16855224609375,0.021944180130958557,0.3175542652606964,-0.7659405469894409
1768418183890553300,8.17855322265625,0.1594109684228897,0.5912470817565918,-0.8184618353843689
1768418183900555300,8.18855517578125,0.23669855296611786,0.7322401404380798,-0.7900046110153198
1768418183910556400,8.198556396484374,0.22311431169509888,0.7510122060775757,-0.7143279910087585
1768418183920558300,8.208558349609374,0.15726658701896667,0.6923403739929199,-0.597362220287323
1768418183930559500,8.2185595703125,0.10344117134809494,0.5668016076087952,-0.4554423689842224
1768418183940561400,8.2285615234375,0.06148839369416237,0.3882388174533844,-0.2822098433971405
1768418183950563000,8.23856298828125,0.037046167999506,0.1880018562078476,-0.08522780984640121
1768418183960564500,8.248564453125,0.04117593169212341,0.0008857673965394497,0.08731439709663391
1768418183970566400,8.25856640625,0.07982558757066727,-0.13043896853923798,0.17563147842884064
1768418183980567300,8.2685673828125,0.13487686216831207,-0.20653453469276428,0.16639217734336853
1768418183990569500,8.278569580078125,0.17536675930023193,-0.2232424020767212,0.10386914014816284
1768418184000570400,8.2885703125,0.18120521306991577,-0.21350854635238647,0.00355931487865746
1768418184010572300,8.298572265625,0.15910230576992035,-0.1998092532157898,-0.1211320161819458
1768418184020573400,8.308573486328125,0.14591965079307556,-0.19408558309078217,-0.23831403255462646
1768418184030575400,8.318575439453125,0.1584828495979309,-0.2091987580060959,-0.31382235884666443
1768418184040577500,8.32857763671875,0.1851365715265274,-0.19729310274124146,-0.3308418393135071
1768418184050578400,8.338578369140626,0.22058138251304626,-0.17713004350662231,-0.3004857897758484
1768418184060580400,8.348580322265626,0.2449018955230713,-0.14579981565475464,-0.2533361315727234
1768418184070581200,8.358581298828126,0.25861504673957825,-0.13139237463474274,-0.20042045414447784
1768418184080583400,8.36858349609375,0.2637445628643036,-0.12114187330007553,-0.1390731930732727
1768418184090584300,8.378584228515624,0.26230326294898987,-0.09522265195846558,-0.07293040305376053
1768418184100586500,8.38858642578125,0.25113341212272644,-0.07661088556051254,-0.004486361052840948
1768418184110587400,8.39858740234375,0.21773791313171387,-0.07222572714090347,0.05276867374777794
1768418184120589300,8.40858935546875,0.1734657883644104,-0.07319485396146774,0.09228651970624924
1768418184130591500,8.418591552734375,0.12919819355010986,-0.07809480279684067,0.1008608341217041
1768418184140592400,8.42859228515625,0.09531427174806595,-0.08505044877529144,0.09058555960655212
1768418184150594300,8.43859423828125,0.07733819633722305,-0.07739651948213577,0.06710979342460632
1768418184160595500,8.448595458984375,0.059004995971918106,-0.06265512853860855,0.03879213705658913
1768418184170597400,8.458597412109375,0.04494297504425049,-0.05480679124593735,0.009764214046299458
1768418184180598300,8.468598388671875,0.036139361560344696,-0.03875991329550743,-0.013175723142921925
1768418184190600400,8.478600341796875,0.016679910942912102,-0.03224635496735573,-0.026326412335038185
1768418184200602400,8.488602294921876,-0.0070192934945225716,-0.03464559465646744,-0.018195515498518944
1768418184210603300,8.498603271484376,-0.01894412934780121,-0.06687969714403152,0.0027060380671173334
1768418184220605400,8.50860546875,-0.02835148014128208,-0.13249678909778595,0.031734492629766464
1768418184230606300,8.5186064453125,-0.04723569005727768,-0.2262488454580307,0.049496714025735855
1768418184240608300,8.528608154296874,-0.08902308344841003,-0.3215349018573761,0.04856061190366745
1768418184250609400,8.538609375,-0.1439899355173111,-0.4120413362979889,0.031144870445132256
1768418184260611300,8.548611328125,-0.20833057165145874,-0.5008020997047424,0.007730890065431595
1768418184270612200,8.5586123046875,-0.2840202748775482,-0.5733790993690491,-0.001663410454057157
1768418184280614400,8.568614501953125,-0.3689226508140564,-0.6000509262084961,0.012035890482366085
1768418184290616300,8.5786162109375,-0.4343802034854889,-0.566890299320221,0.03461150825023651
1768418184300617200,8.5886171875,-0.465565025806427,-0.4540465772151947,0.047619983553886414
1768418184310619400,8.598619384765625,-0.47699397802352905,-0.32718852162361145,0.018453575670719147
1768418184320620300,8.608620361328125,-0.46911928057670593,-0.46192342042922974,-0.09216401726007462
1768418184330622200,8.618622314453125,-0.43823274970054626,-0.6454296112060547,-0.17763949930667877
1768418184340623400,8.628623291015625,-0.38735198974609375,-0.601405680179596,-0.1997208297252655
1768418184350625300,8.638625244140625,-0.307087242603302,-0.39587488770484924,-0.23582877218723297
1768418184360626200,8.648626220703125,-0.1938656121492386,-0.20019274950027466,-0.2478974163532257
1768418184370628400,8.65862841796875,-0.08281445503234863,-0.21491336822509766,-0.20159970223903656
1768418184380630300,8.66863037109375,-0.006402505561709404,-0.40499410033226013,-0.1629021018743515
1768418184390631200,8.678631103515626,0.08606324344873428,-0.5482751131057739,-0.11230523884296417
1768418184400633300,8.68863330078125,0.25865766406059265,-0.5337914824485779,0.0021883193403482437
1768418184410635300,8.69863525390625,0.4456517696380615,-0.3913123607635498,0.1529381424188614
1768418184420637200,8.70863720703125,0.5451117753982544,-0.1432676762342453,0.2872285842895508
1768418184430638000,8.71863818359375,0.5268155932426453,0.19237743318080902,0.3697490096092224
1768418184440640300,8.72864013671875,0.4638952314853668,0.6188243627548218,0.36561232805252075
1768418184450642200,8.73864208984375,0.4411819279193878,0.9061951637268066,0.2337283343076706
1768418184460643300,8.748643310546875,0.4055514931678772,0.9411563277244568,0.08192230015993118
1768418184470645200,8.758645263671875,0.3612833619117737,0.8342658281326294,-0.10360069572925568
1768418184480646100,8.768646240234375,0.2510117292404175,0.5858549475669861,-0.2867835760116577
1768418184490648300,8.7786484375,0.10189973562955856,0.1812845766544342,-0.347886860370636
1768418184500649200,8.788649169921875,0.0006170544074848294,-0.2672458291053772,-0.29524657130241394
1768418184510651100,8.798651123046875,-0.043356530368328094,-0.5746763348579407,-0.14543895423412323
1768418184520652300,8.80865234375,-0.01044198777526617,-0.7723433375358582,0.05788566917181015
1768418184530654200,8.818654296875,0.008360194973647594,-0.8732771277427673,0.21112927794456482
1768418184540655000,8.828655029296876,-0.06796333938837051,-0.8045614361763,0.2753772437572479
1768418184550657300,8.8386572265625,-0.11604804545640945,-0.5387502908706665,0.36598384380340576
1768418184560659200,8.8486591796875,-0.030608242377638817,-0.23953349888324738,0.5168132781982422
1768418184570660000,8.85866015625,0.08805901557207108,-0.022855514660477638,0.5761067271232605
1768418184580662300,8.868662353515624,0.12903282046318054,0.0662171021103859,0.39659368991851807
1768418184590663200,8.8786630859375,0.073316290974617,0.11418569087982178,0.08537295460700989
1768418184600665000,8.8886650390625,0.007123423274606466,0.1553613543510437,-0.16969822347164154
1768418184610666200,8.898666259765625,-0.04856647178530693,0.2172154039144516,-0.293337881565094
1768418184620668200,8.908668212890625,-0.07702288031578064,0.3040879964828491,-0.29635897278785706
1768418184630670000,8.918670166015625,-0.09115707129240036,0.3891719877719879,-0.2601061463356018
1768418184640671200,8.928671142578125,-0.11432711035013199,0.4743713140487671,-0.25245460867881775
1768418184650673200,8.938673095703125,-0.16206960380077362,0.5586494207382202,-0.2576187551021576
1768418184660674000,8.948674072265625,-0.21931929886341095,0.6398090124130249,-0.25650689005851746
1768418184670676200,8.95867626953125,-0.2604353129863739,0.6811777353286743,-0.23016928136348724
1768418184680677000,8.968677001953125,-0.27326643466949463,0.7146126627922058,-0.17065615952014923
1768418184690679000,8.978678955078125,-0.2711055278778076,0.7347349524497986,-0.09100713580846786
1768418184700680200,8.98868017578125,-0.26139724254608154,0.7313767075538635,-0.01919473335146904
1768418184710682000,8.99868212890625,-0.2456936538219452,0.6816853284835815,0.02478444203734398
1768418184720684300,9.008684326171876,-0.23790177702903748,0.6013867855072021,0.03864752873778343
1768418184730685200,9.018685302734376,-0.22742170095443726,0.5052748918533325,0.04658454656600952
1768418184740687000,9.02868701171875,-0.21173222362995148,0.3930591344833374,0.06466181576251984
1768418184750688000,9.03868798828125,-0.20514489710330963,0.26601409912109375,0.10168109089136124
1768418184760690200,9.048690185546874,-0.194435253739357,0.163442462682724,0.15625032782554626
1768418184770691000,9.058691162109374,-0.1564609855413437,0.10661938786506653,0.22757749259471893
1768418184780693200,9.068693359375,-0.11674606055021286,0.04969565197825432,0.2902158498764038
1768418184790694100,9.078694091796875,-0.07623644918203354,-0.004278101958334446,0.3219652473926544
1768418184800696000,9.088696044921875,-0.03068147972226143,-0.03835271671414375,0.3352222144603729
1768418184810698200,9.0986982421875,-0.011203385889530182,-0.04989512264728546,0.3235170841217041
1768418184820699100,9.10869921875,0.01673796772956848,-0.05279077589511871,0.30027568340301514
1768418184830701000,9.118701171875,0.04538638889789581,-0.0554795041680336,0.26479119062423706
1768418184840702200,9.1287021484375,0.07481325417757034,-0.06091528385877609,0.21985407173633575
1768418184850704100,9.1387041015625,0.10273410379886627,-0.06650925427675247,0.17002739012241364
1768418184860705000,9.148705078125,0.12177383899688721,-0.07714857906103134,0.11993759125471115
1768418184870707200,9.158707275390626,0.12370223551988602,-0.09242207556962967,0.05828993767499924
1768418184880708000,9.1687080078125,0.12205959856510162,-0.09778621792793274,-0.0028913940768688917
1768418184890710000,9.1787099609375,0.11464029550552368,-0.0923248678445816,-0.053948454558849335
1768418184900712200,9.188712158203124,0.10951930284500122,-0.07393893599510193,-0.08702731132507324
1768418184910713000,9.198713134765624,0.09296189993619919,-0.029018601402640343,-0.09674012660980225
1768418184920715000,9.208715087890624,0.06635638326406479,0.03970187157392502,-0.08898047357797623
1768418184930716200,9.218716064453124,0.044496629387140274,0.11428742855787277,-0.09368254989385605
1768418184940718000,9.228718017578124,0.0362141951918602,0.16890938580036163,-0.11012464016675949
1768418184950719200,9.23871923828125,0.048702556639909744,0.20212434232234955,-0.11140162497758865
1768418184960721200,9.24872119140625,0.09522159397602081,0.19710321724414825,-0.06905017048120499
1768418184970722300,9.258722412109375,0.1874396651983261,0.17565518617630005,-0.014973889105021954
1768418184980724200,9.26872412109375,0.2726118266582489,0.1889837682247162,-0.007553523872047663
1768418184990725400,9.278725341796875,0.25973251461982727,0.1587800532579422,-0.09177945554256439
1768418185000727300,9.288727294921875,0.14404958486557007,0.10734909027814865,-0.20582959055900574
1768418185010729000,9.29872900390625,-0.004761199466884136,0.06838038563728333,-0.33037444949150085
1768418185020730400,9.30873046875,-0.15371419489383698,0.07273918390274048,-0.4611801207065582
1768418185030732000,9.31873193359375,-0.278360515832901,0.14754870533943176,-0.5706669688224792
1768418185040733200,9.328733154296875,-0.3755027949810028,0.2616236209869385,-0.6216446161270142
1768418185050735400,9.3387353515625,-0.4254849851131439,0.3730771839618683,-0.5780156850814819
1768418185060736300,9.348736328125,-0.44084689021110535,0.410831481218338,-0.47724565863609314
1768418185070738200,9.35873828125,-0.4750480055809021,0.39181971549987793,-0.3563096523284912
1768418185080739300,9.3687392578125,-0.5259058475494385,0.36045271158218384,-0.19141443073749542
1768418185090741200,9.3787412109375,-0.5352942943572998,0.24232368171215057,-0.09919662773609161
1768418185100743200,9.3887431640625,-0.5163110494613647,-0.0317629911005497,-0.1625012904405594
1768418185110744300,9.398744384765624,-0.5425394177436829,-0.24443024396896362,-0.2221134901046753
1768418185120746200,9.408746337890625,-0.6245996952056885,-0.26662635803222656,-0.15583273768424988
1768418185130747100,9.4187470703125,-0.6334307193756104,-0.1994103044271469,-0.12574461102485657
1768418185140749300,9.428749267578125,-0.5363656878471375,-0.161540687084198,-0.3040429651737213
1768418185150750200,9.438750244140625,-0.3724454641342163,-0.10691366344690323,-0.5909367799758911
1768418185160752400,9.44875244140625,-0.21309629082679749,0.07761756330728531,-0.768774688243866
1768418185170753300,9.458753173828125,-0.08307570964097977,0.3395804762840271,-0.8111490607261658
1768418185180755200,9.468755126953125,0.006925283931195736,0.5643270015716553,-0.7985483407974243
1768418185190757400,9.47875732421875,0.07065526396036148,0.7325413227081299,-0.7378825545310974
1768418185200758300,9.48875830078125,0.1228601410984993,0.8343862295150757,-0.6502139568328857
1768418185210760200,9.49876025390625,0.16330450773239136,0.8483709692955017,-0.5375468134880066
1768418185220761300,9.50876123046875,0.19366267323493958,0.7619569897651672,-0.3900468349456787
1768418185230763300,9.51876318359375,0.217352032661438,0.5803622007369995,-0.22005486488342285
1768418185240764200,9.52876416015625,0.2182399183511734,0.3502858281135559,-0.03304663300514221
1768418185250766300,9.538766357421874,0.20763015747070312,0.1120128184556961,0.1341032087802887
1768418185260767200,9.548767333984374,0.20768874883651733,-0.09229930490255356,0.22571700811386108
1768418185270769200,9.55876904296875,0.21700315177440643,-0.24653548002243042,0.2295738011598587
1768418185280771300,9.568771240234375,0.2575162351131439,-0.36441364884376526,0.16512051224708557
1768418185290772200,9.578772216796875,0.291063517332077,-0.43013566732406616,0.06649380922317505
1768418185300774100,9.588774169921875,0.29329684376716614,-0.46929290890693665,-0.03596891835331917
1768418185310775300,9.598775390625,0.27137771248817444,-0.5022170543670654,-0.1277742087841034
1768418185320777200,9.608777099609375,0.2547595798969269,-0.5046634078025818,-0.19228050112724304
1768418185330778000,9.618778076171875,0.24635066092014313,-0.4715867042541504,-0.21636585891246796
1768418185340780300,9.6287802734375,0.24529044330120087,-0.42770498991012573,-0.20275071263313293
1768418185350781200,9.63878125,0.2431250363588333,-0.3758718967437744,-0.1606602519750595
1768418185360783000,9.648783203125,0.2573718726634979,-0.31593266129493713,-0.07924102246761322
1768418185370785300,9.658785400390625,0.27921032905578613,-0.2444124072790146,0.015589079819619656
1768418185380786200,9.6687861328125,0.29446864128112793,-0.16670243442058563,0.08733117580413818
1768418185390788000,9.6787880859375,0.2913666069507599,-0.09522931277751923,0.12047182023525238
1768418185400789200,9.688789306640626,0.2729870676994324,-0.04599279165267944,0.1270628720521927
1768418185410791200,9.698791259765626,0.24546168744564056,-0.006302104331552982,0.12503887712955475
1768418185420792000,9.7087919921875,0.21312585473060608,0.024095483124256134,0.12781894207000732
1768418185430794000,9.7187939453125,0.18543750047683716,0.02700738236308098,0.14034885168075562
1768418185440795100,9.728795166015624,0.16694052517414093,0.013886520639061928,0.1633705496788025
1768418185450797000,9.738797119140624,0.15118472278118134,-0.007258179131895304,0.1770927608013153
1768418185460799000,9.748799072265625,0.12650440633296967,-0.04778110608458519,0.17180025577545166
1768418185470800100,9.758800048828125,0.09912551939487457,-0.1129172295331955,0.14725735783576965
1768418185480802000,9.768802001953125,0.0690765380859375,-0.1909092366695404,0.10628462582826614
1768418185490803000,9.778802978515625,0.028796760365366936,-0.2583910822868347,0.07435785233974457
1768418185500805000,9.78880517578125,-0.017373397946357727,-0.309332013130188,0.06714468449354172
1768418185510806000,9.798805908203125,-0.05949262157082558,-0.34866636991500854,0.0714036077260971
1768418185520808000,9.808807861328125,-0.09335338324308395,-0.38121527433395386,0.08884811401367188
1768418185530809000,9.81880908203125,-0.13304433226585388,-0.40566521883010864,0.11494842171669006
1768418185540811000,9.82881103515625,-0.19255267083644867,-0.41237372159957886,0.13776078820228577
1768418185550812000,9.83881201171875,-0.25038906931877136,-0.4084034860134125,0.1358334720134735
1768418185560814000,9.84881396484375,-0.27739912271499634,-0.3965721130371094,0.11788162589073181
1768418185570816000,9.85881591796875,-0.274435818195343,-0.35931476950645447,0.12210087478160858
1768418185580817000,9.86881689453125,-0.26110750436782837,-0.26744183897972107,0.15353283286094666
1768418185590819000,9.878819091796874,-0.26428598165512085,-0.13367976248264313,0.17876708507537842
1768418185600820000,9.888820068359376,-0.3047012984752655,0.029526732861995697,0.1753276139497757
1768418185610822100,9.898822265625,-0.32919785380363464,0.007525027729570866,0.17663149535655975
1768418185620823000,9.908822998046874,-0.2926070988178253,-0.1900532990694046,0.19840097427368164
1768418185630825000,9.918824951171874,-0.23280155658721924,-0.24732403457164764,0.23050138354301453
1768418185640827100,9.9288271484375,-0.19517189264297485,-0.26020416617393494,0.1967807114124298
1768418185650828000,9.938828125,-0.1408332884311676,-0.26948288083076477,0.09026571363210678
1768418185660830000,9.948829833984375,-0.059969328343868256,-0.24646250903606415,0.03320802003145218
1768418185670831000,9.9588310546875,0.0023177489638328552,-0.2642444372177124,0.04677363112568855
1768418185680833000,9.9688330078125,0.017106547951698303,-0.34889647364616394,0.047221839427948
1768418185690834000,9.978833984375,0.015690280124545097,-0.47894740104675293,0.002654106356203556
1768418185700836000,9.988836181640625,0.037640318274497986,-0.578682005405426,-0.033736392855644226
1768418185710837200,9.998837158203125,0.10012633353471756,-0.6097040772438049,-0.008583900518715382
1768418185720839000,10.0088388671875,0.16382887959480286,-0.5755642056465149,0.0771792083978653
1768418185730841000,10.018841064453126,0.21025016903877258,-0.49843722581863403,0.17581602931022644
1768418185740842000,10.028842041015626,0.2248312532901764,-0.38791897892951965,0.23040364682674408
1768418185750844000,10.038843994140626,0.19557136297225952,-0.2425822764635086,0.21463480591773987
1768418185760845300,10.04884521484375,0.12987516820430756,-0.0895724967122078,0.1499255746603012
1768418185770847000,10.058846923828124,0.05386509746313095,0.09083962440490723,0.0797014832496643
1768418185780848000,10.06884814453125,-0.0034381409641355276,0.3339596092700958,0.014769891276955605
1768418185790850000,10.07885009765625,0.03540299832820892,0.4494907259941101,-0.08802200108766556
1768418185800851200,10.088851318359374,0.12321114540100098,0.42500215768814087,-0.21559114754199982
1768418185810853000,10.09885302734375,0.1632256805896759,0.3535782992839813,-0.30371782183647156
1768418185820855000,10.10885498046875,0.1654731184244156,0.10641352832317352,-0.31532973051071167
1768418185830856200,10.118856201171875,0.16851231455802917,-0.26629719138145447,-0.2996405065059662
1768418185840857900,10.12885791015625,0.19228528439998627,-0.5236999988555908,-0.21627265214920044
1768418185850859300,10.138859375,0.2178654819726944,-0.6930581331253052,-0.020908210426568985
1768418185860861200,10.148861083984375,0.23044146597385406,-0.7943093776702881,0.2000073939561844
1768418185870862000,10.158862060546875,0.22104769945144653,-0.85841965675354,0.35687077045440674
1768418185880864300,10.1688642578125,0.18907645344734192,-0.8909925222396851,0.41731148958206177
1768418185890865200,10.178865234375,0.1766275018453598,-0.7859798073768616,0.4539493918418884
1768418185900867000,10.1888671875,0.21915578842163086,-0.62269127368927,0.5012561678886414
1768418185910869200,10.198869140625,0.2615298628807068,-0.43373334407806396,0.455138236284256
1768418185920870100,10.2088701171875,0.2611503601074219,-0.26869431138038635,0.29665830731391907
1768418185930872300,10.218872314453124,0.22540275752544403,-0.12360981851816177,0.09952925145626068
1768418185940873200,10.228873291015624,0.17275792360305786,0.03447888046503067,-0.0418718159198761
1768418185950875100,10.238875244140624,0.09835399687290192,0.1746343970298767,-0.11249139159917831
1768418185960876000,10.2488759765625,0.016387496143579483,0.2655041217803955,-0.14596013724803925
1768418185970878200,10.258878173828125,-0.06838411837816238,0.33032411336898804,-0.1769617199897766
1768418185980879000,10.268879150390624,-0.14391109347343445,0.38575035333633423,-0.2099098265171051
1768418185990881300,10.27888134765625,-0.20945042371749878,0.4449212849140167,-0.23972417414188385
1768418186000883200,10.28888330078125,-0.2692874073982239,0.5168591141700745,-0.23731321096420288
1768418186010884000,10.298884033203125,-0.31079354882240295,0.5831323862075806,-0.2196040004491806
1768418186020886300,10.30888623046875,-0.32645589113235474,0.6387733221054077,-0.20629777014255524
1768418186030887200,10.31888720703125,-0.31540003418922424,0.6802104711532593,-0.19122855365276337
1768418186040889000,10.32888916015625,-0.2841489017009735,0.7021442651748657,-0.15953613817691803
1768418186050890200,10.33889013671875,-0.24316099286079407,0.6931358575820923,-0.11298008263111115
1768418186060892200,10.34889208984375,-0.20245403051376343,0.6539725065231323,-0.05031536892056465
1768418186070893000,10.35889306640625,-0.18712595105171204,0.5865865349769592,0.029921147972345352
1768418186080895200,10.368895263671876,-0.18903996050357819,0.504643976688385,0.11456918716430664
1768418186090897200,10.378897216796876,-0.18849721550941467,0.41342484951019287,0.17755667865276337
1768418186100898000,10.38889794921875,-0.1764213740825653,0.31825122237205505,0.23090538382530212
1768418186110900200,10.398900146484374,-0.17713269591331482,0.23479732871055603,0.27868008613586426
1768418186120901000,10.408901123046874,-0.1811532825231552,0.17008517682552338,0.30979034304618835
1768418186130903000,10.418903076171874,-0.18453921377658844,0.1363714188337326,0.30412501096725464
1768418186140904200,10.428904296875,-0.1802922785282135,0.12412887066602707,0.275108277797699
1768418186150906000,10.438906005859375,-0.15632595121860504,0.13684839010238647,0.2574895918369293
1768418186160907000,10.448906982421875,-0.11325358599424362,0.158063143491745,0.250827431678772
1768418186170909200,10.4589091796875,-0.07633897662162781,0.1697797179222107,0.241597980260849
1768418186180911000,10.4689111328125,-0.04200950264930725,0.16863934695720673,0.21949347853660583
1768418186190912000,10.478912109375,-0.00860467366874218,0.1699831783771515,0.1956230252981186
1768418186200914200,10.4889140625,0.02743482030928135,0.1769995391368866,0.17227190732955933
1768418186210915000,10.4989150390625,0.06407405436038971,0.17949172854423523,0.15483911335468292
1768418186220917000,10.5089169921875,0.09120368212461472,0.17331665754318237,0.13574345409870148
1768418186230918100,10.518918212890625,0.10337219387292862,0.170969620347023,0.12161138653755188
1768418186240920000,10.528920166015626,0.11471060663461685,0.17432652413845062,0.11758388578891754
1768418186250921000,10.5389208984375,0.11650903522968292,0.1782725304365158,0.11009827256202698
1768418186260923100,10.548923095703126,0.12095171958208084,0.18341989815235138,0.10722765326499939
1768418186270924000,10.558924072265626,0.11717056483030319,0.20069928467273712,0.09902831166982651
1768418186280926000,10.568926025390626,0.120313361287117,0.22970803081989288,0.08830776065587997
1768418186290928000,10.57892822265625,0.11712928861379623,0.25196194648742676,0.08148367702960968
1768418186300929000,10.588928955078124,0.11426319181919098,0.2543518543243408,0.07036657631397247
1768418186310931200,10.59893115234375,0.1175876185297966,0.24404595792293549,0.049136385321617126
1768418186320932000,10.60893212890625,0.16851098835468292,0.23727300763130188,0.03442694991827011
1768418186330934000,10.61893408203125,0.2707151174545288,0.2695028483867645,0.012920325621962547
1768418186340935000,10.628934814453125,0.3539990782737732,0.3216770887374878,-0.07599809765815735
1768418186350937000,10.63893701171875,0.3318524956703186,0.34670788049697876,-0.21426649391651154
1768418186360938000,10.64893798828125,0.22081546485424042,0.4069153070449829,-0.3605177104473114
1768418186370940200,10.658940185546875,0.08624886721372604,0.4844233989715576,-0.48219993710517883
1768418186380942000,10.668942138671875,-0.04980377480387688,0.5546190142631531,-0.5822623372077942
1768418186390943000,10.67894287109375,-0.19920951128005981,0.6502760052680969,-0.652510941028595
1768418186400945200,10.688945068359375,-0.3319624960422516,0.7322177886962891,-0.6831338405609131
1768418186410945800,10.69894580078125,-0.3838754892349243,0.802690863609314,-0.6675881743431091
1768418186420947700,10.70894775390625,-0.380647748708725,0.879501223564148,-0.6277355551719666
1768418186430948600,10.718948486328125,-0.40317967534065247,0.9549903869628906,-0.5408366322517395
1768418186440950800,10.72895068359375,-0.4302893280982971,0.986801028251648,-0.3736191391944885
1768418186450952000,10.738951904296876,-0.3905933201313019,0.9535823464393616,-0.1855672001838684
1768418186460953900,10.748953857421874,-0.2967485785484314,0.8539755940437317,-0.1039048284292221
1768418186470955000,10.758955078125,-0.23831430077552795,0.6264774799346924,-0.12626206874847412
1768418186480956700,10.768956787109374,-0.258145272731781,0.29354241490364075,-0.18427716195583344
1768418186490958800,10.778958740234375,-0.40174397826194763,-0.001487375469878316,-0.20695637166500092
1768418186500960000,10.7889599609375,-0.587880551815033,-0.16553117334842682,-0.23134107887744904
1768418186510961700,10.798961669921875,-0.7566285729408264,-0.20712921023368835,-0.2970881462097168
1768418186520963000,10.808963134765625,-0.7933287620544434,-0.21050530672073364,-0.41513940691947937
1768418186530964700,10.81896484375,-0.6980670094490051,-0.171160027384758,-0.5306257605552673
1768418186540966000,10.8289658203125,-0.5663595795631409,0.026550117880105972,-0.6072443723678589
1768418186550967800,10.8389677734375,-0.40704765915870667,0.2812194228172302,-0.6875573396682739
1768418186560969000,10.848968994140625,-0.20488230884075165,0.5500562191009521,-0.7395563721656799
1768418186570971000,10.858970947265625,0.009499229490756989,0.7859103083610535,-0.7297101020812988
1768418186580972800,10.868972900390625,0.1767292320728302,0.9174224734306335,-0.658787727355957
1768418186590974000,10.878973876953125,0.27514129877090454,0.939119279384613,-0.518016517162323
1768418186600976000,10.888975830078126,0.31046172976493835,0.8361012935638428,-0.31676116585731506
1768418186610977000,10.89897705078125,0.2865942120552063,0.6068971157073975,-0.09336110949516296
1768418186620979000,10.90897900390625,0.21960079669952393,0.3188674747943878,0.13537460565567017
1768418186630979800,10.918979736328126,0.15203747153282166,0.03172996640205383,0.35440361499786377
1768418186640982000,10.92898193359375,0.1364648938179016,-0.23095358908176422,0.5125543475151062
1768418186650983000,10.93898291015625,0.1727113276720047,-0.42516860365867615,0.5695617198944092
1768418186660984800,10.94898486328125,0.26841628551483154,-0.5499904155731201,0.5237508416175842
1768418186670986000,10.958986083984374,0.38340330123901367,-0.6148860454559326,0.4066029191017151
1768418186680988000,10.96898779296875,0.44644805788993835,-0.6420721411705017,0.25355955958366394
1768418186690989800,10.97898974609375,0.4505237638950348,-0.6517178416252136,0.11310285329818726
1768418186700991000,10.988990966796875,0.4036715626716614,-0.66985023021698,0.024810807779431343
1768418186710993000,10.998992919921875,0.34525567293167114,-0.6679125428199768,-0.03205939754843712
1768418186720993800,11.008993896484375,0.3212999999523163,-0.6312370896339417,-0.07426251471042633
1768418186730996000,11.018995849609375,0.31839901208877563,-0.5817664861679077,-0.11287861317396164
1768418186740996900,11.028996826171875,0.327449768781662,-0.5094541907310486,-0.13608700037002563
1768418186750998800,11.038998779296875,0.3348064720630646,-0.4209144711494446,-0.11160854995250702
1768418186761000000,11.049,0.3365625739097595,-0.3551032245159149,-0.041135985404253006
1768418186771001900,11.059001953125,0.33397558331489563,-0.30591997504234314,0.060805827379226685
1768418186781004000,11.069004150390626,0.33649998903274536,-0.2615088224411011,0.1580740511417389
1768418186791005000,11.0790048828125,0.3453097343444824,-0.21693044900894165,0.23031948506832123
1768418186801006800,11.0890068359375,0.33175769448280334,-0.16662387549877167,0.2620904743671417
1768418186811007700,11.0990078125,0.2900446057319641,-0.1267518252134323,0.26633793115615845
1768418186821010000,11.109010009765624,0.2366279810667038,-0.10184327512979507,0.23601572215557098
1768418186831010800,11.1190107421875,0.17464157938957214,-0.08564939349889755,0.17967602610588074
1768418186841013000,11.129012939453125,0.12341754138469696,-0.05993523821234703,0.131709024310112
1768418186851014000,11.139013916015625,0.08260086923837662,-0.03328072652220726,0.10881729423999786
1768418186861015800,11.149015869140625,0.05060512199997902,-0.025136511772871017,0.10936936736106873
1768418186871016700,11.1590166015625,0.01733371615409851,-0.04014448821544647,0.1203080341219902
1768418186881019000,11.169018798828125,-0.01423246506601572,-0.05247838795185089,0.14748185873031616
1768418186891020800,11.179020751953125,-0.046069491654634476,-0.07634484022855759,0.17005614936351776
1768418186901022000,11.18902197265625,-0.08028951287269592,-0.11696843057870865,0.17590364813804626
1768418186911023900,11.19902392578125,-0.11615324020385742,-0.16892829537391663,0.16826996207237244
1768418186921024800,11.209024658203125,-0.1557254195213318,-0.2110605686903,0.1495862901210785
1768418186931027000,11.21902685546875,-0.19217929244041443,-0.24606142938137054,0.13013856112957
1768418186941027800,11.22902783203125,-0.20677155256271362,-0.26999953389167786,0.11943931132555008
1768418186951029800,11.23902978515625,-0.1971343755722046,-0.29000598192214966,0.11957380175590515
1768418186961031000,11.249031005859376,-0.17022259533405304,-0.2961674928665161,0.13227255642414093
1768418186971032800,11.25903271484375,-0.14105220139026642,-0.28202635049819946,0.14475426077842712
1768418186981034800,11.26903466796875,-0.12519466876983643,-0.2686660885810852,0.1587715446949005
1768418186991036000,11.279035888671874,-0.122836172580719,-0.24982954561710358,0.17212462425231934
1768418187001037800,11.289037841796874,-0.1497436910867691,-0.21042275428771973,0.17216989398002625
1768418187011038700,11.299038818359374,-0.17850956320762634,-0.17618435621261597,0.1714300811290741
1768418187021041000,11.309041015625,-0.19011907279491425,-0.22599132359027863,0.14701154828071594
1768418187031041800,11.319041748046875,-0.18765591084957123,-0.3107759952545166,0.11832078546285629
1768418187041043700,11.329043701171875,-0.16950353980064392,-0.3537769913673401,0.103680320084095
1768418187051044900,11.339044921875,-0.13151808083057404,-0.36890241503715515,0.0852200910449028
1768418187061046800,11.349046875,-0.08388451486825943,-0.38218358159065247,0.07062622904777527
1768418187071047700,11.359047607421875,-0.028862275183200836,-0.399026483297348,0.056954629719257355
1768418187081049900,11.3690498046875,0.004096474498510361,-0.4214510917663574,0.056173522025346756
1768418187091051800,11.3790517578125,0.002517219865694642,-0.48377013206481934,0.056955162435770035
1768418187101052700,11.389052734375,-0.0008439557277597487,-0.5657534003257751,0.03862781822681427
1768418187111054800,11.399054931640626,0.008804677054286003,-0.6521772742271423,0.005851231049746275
1768418187121055700,11.4090556640625,0.027465179562568665,-0.7120065093040466,-0.008246478624641895
1768418187131057700,11.4190576171875,0.04887433350086212,-0.7203983664512634,0.015161641873419285
1768418187141058800,11.429058837890626,0.08694661408662796,-0.6798205971717834,0.06779102981090546
1768418187151060700,11.439060791015624,0.12564900517463684,-0.5816839337348938,0.1458248496055603
1768418187161062000,11.449061767578126,0.1566857546567917,-0.435377299785614,0.22161974012851715
1768418187171063800,11.459063720703124,0.17392119765281677,-0.2573055624961853,0.25100159645080566
1768418187181065700,11.469065673828124,0.17467594146728516,-0.08947449177503586,0.1911342740058899
1768418187191066600,11.479066650390624,0.16477057337760925,0.12982936203479767,0.08863399177789688
1768418187201068800,11.48906884765625,0.1583923101425171,0.43572723865509033,-0.021506624296307564
1768418187211069700,11.499069580078125,0.18829400837421417,0.6851088404655457,-0.13670645654201508
1768418187221072000,11.50907177734375,0.19357240200042725,0.7600851058959961,-0.27874720096588135
1768418187231073000,11.519072998046875,0.1376872956752777,0.6622053980827332,-0.41247865557670593
1768418187241074700,11.52907470703125,0.08693277090787888,0.40972334146499634,-0.49318280816078186
1768418187251075800,11.539075927734375,0.055576443672180176,0.049739327281713486,-0.5305871963500977
1768418187261077800,11.549077880859375,0.04320206493139267,-0.23950153589248657,-0.4626163840293884
1768418187271079700,11.55907958984375,0.051893822848796844,-0.4268421232700348,-0.23119939863681793
1768418187281081000,11.5690810546875,0.06889491528272629,-0.5866978168487549,0.1101752370595932
1768418187291082800,11.579082763671876,0.08001014590263367,-0.6717096567153931,0.4299362003803253
1768418187301084000,11.589083984375,0.08886303007602692,-0.6838289499282837,0.6230167150497437
1768418187311085800,11.5990859375,0.12732785940170288,-0.606033980846405,0.6960544586181641
1768418187321087000,11.6090869140625,0.19383259117603302,-0.4393230378627777,0.7375105023384094
1768418187331089000,11.6190888671875,0.24004003405570984,-0.2919996380805969,0.698317289352417
1768418187341090000,11.629090087890624,0.25710928440093994,-0.19963215291500092,0.5058075189590454
1768418187351092000,11.639092041015624,0.23657605051994324,-0.13599032163619995,0.2058762013912201
1768418187361093600,11.64909375,0.2213321179151535,-0.055576443672180176,-0.03681633621454239
1768418187371095000,11.659094970703125,0.19887740910053253,0.06468898057937622,-0.15727856755256653
1768418187381097000,11.669096923828125,0.157634899020195,0.14780651032924652,-0.19302937388420105
1768418187391097900,11.679097900390625,0.10670966655015945,0.17421680688858032,-0.20689299702644348
1768418187401100000,11.68910009765625,0.049854107201099396,0.18427370488643646,-0.22739267349243164
1768418187411100400,11.699100341796875,-0.03110279142856598,0.21604014933109283,-0.24675439298152924
1768418187421102300,11.709102294921875,-0.11711809784173965,0.27292048931121826,-0.23755823075771332
1768418187431103200,11.719103271484375,-0.19333377480506897,0.322591096162796,-0.18703460693359375
1768418187441105400,11.72910546875,-0.25563284754753113,0.3603901267051697,-0.10534586012363434
1768418187451107300,11.739107421875,-0.2872605323791504,0.40478822588920593,-0.02587287686765194
1768418187461108500,11.7491083984375,-0.2758377194404602,0.47052302956581116,0.017738517373800278
1768418187471110400,11.7591103515625,-0.2562863826751709,0.5212554335594177,0.03772793710231781
1768418187481111300,11.769111328125,-0.23508495092391968,0.5395793318748474,0.05607498809695244
1768418187491113500,11.779113525390626,-0.21598103642463684,0.5184157490730286,0.07307181507349014
1768418187501114400,11.7891142578125,-0.1876002550125122,0.47371962666511536,0.10633256286382675
1768418187511116300,11.7991162109375,-0.17128120362758636,0.4001673758029938,0.16964708268642426
1768418187521117400,11.809117431640624,-0.15156209468841553,0.3352624177932739,0.259490966796875
1768418187531119400,11.819119384765624,-0.1329902708530426,0.28659766912460327,0.34740883111953735
1768418187541121300,11.829121337890625,-0.12013573199510574,0.23710975050926208,0.40097618103027344
1768418187551122400,11.839122314453125,-0.11183013021945953,0.210105299949646,0.4221850633621216
1768418187561124400,11.849124267578125,-0.10038039833307266,0.19937223196029663,0.4208713173866272
1768418187571125200,11.859125244140625,-0.0828820988535881,0.20729778707027435,0.3943917751312256
1768418187581127400,11.86912744140625,-0.05750323832035065,0.23085132241249084,0.35505741834640503
1768418187591128300,11.87912841796875,-0.028303543105721474,0.25981613993644714,0.31422024965286255
1768418187601130200,11.889130126953125,-0.0003102582704741508,0.28668954968452454,0.26807886362075806
1768418187611132400,11.89913232421875,0.01944160833954811,0.2940406799316406,0.2188926637172699
1768418187621133300,11.90913330078125,0.0231119766831398,0.2789621353149414,0.1705823838710785
1768418187631135500,11.919135498046876,0.02040833607316017,0.24194711446762085,0.12831535935401917
1768418187641136400,11.929136474609376,0.020315391942858696,0.20406179130077362,0.08698363602161407
1768418187651138300,11.93913818359375,0.02413196861743927,0.17720620334148407,0.045457229018211365
1768418187661139200,11.94913916015625,0.021819544956088066,0.16241207718849182,0.01685274951159954
1768418187671141400,11.959141357421874,0.025295237079262733,0.16103576123714447,0.005025651305913925
1768418187681142300,11.969142333984376,0.026196716353297234,0.1660880446434021,-0.0002748382103163749
1768418187691144400,11.97914453125,0.02677515521645546,0.17921209335327148,-0.00760998297482729
1768418187701146400,11.989146484375,0.025644376873970032,0.1935414969921112,-0.015294267795979977
1768418187711147300,11.999147216796874,0.024330107495188713,0.21180972456932068,-0.01708870567381382
1768418187721149400,12.0091494140625,0.02413569577038288,0.23675262928009033,-0.0070611052215099335
1768418187731150300,12.019150390625,0.02479962259531021,0.25281602144241333,0.014780543744564056
1768418187741152300,12.02915234375,0.026215093210339546,0.26500824093818665,0.032828252762556076
1768418187751153200,12.039153076171875,0.03724244236946106,0.2844003140926361,0.05728432908654213
1768418187761155300,12.0491552734375,0.07294318079948425,0.3050222098827362,0.09032084047794342
1768418187771156200,12.05915625,0.11849682033061981,0.2937823534011841,0.11113211512565613
1768418187781158400,12.069158447265625,0.1643681675195694,0.27863001823425293,0.08296305686235428
1768418187791160300,12.079160400390625,0.172280952334404,0.2755149304866791,-0.01978941820561886
1768418187801161200,12.0891611328125,0.11284452676773071,0.25701287388801575,-0.1582125425338745
1768418187811163400,12.099163330078126,0.013909157365560532,0.25232943892478943,-0.2606201469898224
1768418187821164300,12.109164306640626,-0.09263858944177628,0.27382993698120117,-0.32594749331474304
1768418187831166200,12.119166259765626,-0.19198301434516907,0.30165520310401917,-0.3951329290866852
1768418187841167400,12.12916748046875,-0.2886461913585663,0.3331015408039093,-0.47423842549324036
1768418187851169300,12.139169189453124,-0.3654578626155853,0.39022019505500793,-0.5360264182090759
1768418187861171200,12.149171142578124,-0.4158787131309509,0.4619908034801483,-0.5529676079750061
1768418187871172400,12.15917236328125,-0.43392667174339294,0.5165307521820068,-0.5247684121131897
1768418187881174300,12.16917431640625,-0.43659862875938416,0.507249653339386,-0.4543134272098541
1768418187891175200,12.179175048828125,-0.4701448678970337,0.4462243616580963,-0.34136664867401123
1768418187901177300,12.18917724609375,-0.5005611181259155,0.3887312412261963,-0.23025238513946533
1768418187911178200,12.19917822265625,-0.4907532036304474,0.26696911454200745,-0.18509314954280853
1768418187921180200,12.20918017578125,-0.5144090056419373,-0.015278289094567299,-0.21572910249233246
1768418187931182300,12.219182373046875,-0.6062185764312744,-0.3061636686325073,-0.1929263174533844
1768418187941183200,12.229183349609375,-0.737839937210083,-0.45947757363319397,-0.06467752903699875
1768418187951185400,12.239185302734375,-0.8127991557121277,-0.5100464820861816,0.038910381495952606
1768418187961186300,12.249186279296875,-0.685088574886322,-0.5274657011032104,-0.012805543839931488
1768418187971188200,12.259188232421875,-0.4708649814128876,-0.3819851875305176,-0.1621825098991394
1768418187981189400,12.269189453125,-0.29193517565727234,-0.146295428276062,-0.35744014382362366
1768418187991191300,12.27919140625,-0.16701774299144745,0.12228889763355255,-0.5416656732559204
1768418188001192400,12.2891923828125,-0.062422629445791245,0.4490973651409149,-0.6635380387306213
1768418188011194000,12.299194091796876,0.06312916427850723,0.7583489418029785,-0.7564818263053894
1768418188021196300,12.3091962890625,0.21940825879573822,1.0026417970657349,-0.797598123550415
1768418188031197200,12.319197265625,0.3363173007965088,1.13106369972229,-0.7596789598464966
