time,seconds_elapsed,z,y,x
1768576234514897200,0.086897216796875,0.05549038002099842,-0.08128014338109642,-0.16644319261014462
1768576234524897000,0.09689697265625,0.022717443242669104,-0.12145382140260189,-0.11518939071297644
1768576234534896000,0.106896240234375,0.02812021560166031,-0.05291285768318921,-0.033247605085372924
1768576234544896000,0.11689599609375,0.040377018573880194,0.0009078355599194764,0.014736965882778168
1768576234554896100,0.126896240234375,0.07129585191812365,0.03877798587940633,0.0868225434064865
1768576234564895200,0.136895263671875,0.05266312070582062,0.04458159412425011,0.10324819302856922
1768576234574895000,0.14689501953125,0.050163047518394885,-0.005516790660098195,0.09247253199219703
1768576234584895200,0.156895263671875,0.009721183547377586,0.003876987563818693,0.06780629276931285
1768576234594895000,0.16689501953125,0.021189503023028373,-0.02984331306722015,0.06310089155733585
1768576234604894200,0.176894287109375,0.0022679449319839475,-0.033545455520786346,0.1364279935747385
1768576234614894000,0.18689404296875,-0.00471475356221199,-0.026747137150168417,0.1276695175796747
1768576234624894200,0.196894287109375,-0.033354572591185565,-0.02737031054981053,0.11476736590862273
1768576234634893000,0.20689306640625,-0.04082183973193168,0.004925071844644844,0.0984562825769186
1768576234644893200,0.21689306640625,-0.04414079155419021,-0.0037492329983040687,0.04771569089889526
1768576234654893000,0.22689306640625,-0.04215688772797584,-0.014500928637199102,0.005196399599313736
1768576234664892000,0.236891845703125,-0.06222239168975502,-0.022996808173321188,-0.002758358797430992
1768576234674892000,0.24689208984375,-0.0425245519965887,-0.02135561683755368,-0.0397667777210474
1768576234684892000,0.256891845703125,-0.037493572092056275,-0.0262460922928527,-0.07978548437654971
1768576234694891000,0.26689111328125,-0.031578210568428036,-0.04058580248635262,-0.09500760342776775
1768576234704891000,0.276890869140625,-0.0015905205944553016,-0.057804794443212446,-0.08571955060064793
1768576234714891000,0.28689111328125,0.0381681468853727,-0.012805705559253693,-0.037215924194455144
1768576234724891000,0.296890869140625,0.08388762246575206,-0.03522675967123359,0.014471008422970772
1768576234734890000,0.306889892578125,0.0522673628538847,-0.023015366743318735,0.11094693083763121
1768576234744889900,0.316889892578125,0.02120824425611645,-0.03543313243091106,0.15347440544366836
1768576234754890000,0.326889892578125,-0.02151562970485538,-0.051425651332736015,0.10609189202189445
1768576234764889000,0.33688916015625,-0.023702947148680684,-0.050469592716917394,0.06782908912301062
1768576234774889000,0.346888916015625,0.0489074944993481,-0.035501192698441444,0.020732406905293464
1768576234784889000,0.35688916015625,0.06224913356620818,-0.040143867405131456,0.0195762226074934
1768576234794888000,0.366887939453125,0.03401913744714111,-0.05484050127752125,-0.042781741628050804
1768576234804888000,0.37688818359375,0.08999003099408,-0.024556750966422257,-0.023564415460824967
1768576234814888000,0.386887939453125,0.14600772282481192,-0.022577450250089167,0.0018178630769252776
1768576234824888000,0.39688818359375,0.108416535577178,-0.0013212021337822078,-0.017531565037369728
1768576234834887000,0.406886962890625,0.045280609239079055,0.006958112042210996,-0.043641573327779765
1768576234844887000,0.416886962890625,0.01574117448925972,-0.008372070493362844,-0.03416530445218086
1768576234854887000,0.426886962890625,-0.014836919125914573,-0.0010654007418081164,-0.007651976057887077
1768576234864886000,0.436885986328125,-0.036924832293391226,-0.0028420550255104896,-0.025164836394786835
1768576234874886100,0.44688623046875,-0.011235131774283945,-0.015302563876286148,-0.02641980489194393
1768576234884886000,0.456885986328125,0.030980208142660556,-0.020980426849611104,-0.03518587967157364
1768576234894885000,0.466885009765625,0.02354224016163498,-0.010286671943031251,0.000339022696018219
1768576234904885000,0.476885009765625,0.012889949776604771,0.000004274316318333149,0.007594692912697792
1768576234914885000,0.486885009765625,-0.02496956955101341,0.010852817925810812,-0.012077975806593894
1768576234924884000,0.496884033203125,-0.049351146613620216,-0.0023074366921558976,0.02270809089243412
1768576234934884000,0.506884033203125,-0.0074298577398061744,-0.005910466152802109,0.08579612296819686
1768576234944884000,0.516884033203125,0.036167291924357414,-0.012798033709451555,0.09549158755242824
1768576234954884000,0.526884033203125,0.031987923880480225,-0.018126900582015514,0.09532616785764694
1768576234964883200,0.53688330078125,0.039569209322333335,-0.026135069666430352,0.08258943588137627
1768576234974883000,0.546883056640625,0.028076376459933817,-0.00911079656407237,0.07555296137332916
1768576234984883000,0.556883056640625,0.03533902440667152,-0.009275814400054514,0.07795300825238227
1768576234994882000,0.566882080078125,0.025867468238808214,-0.003241831465438008,0.05313128620684147
1768576235004882200,0.576882080078125,-0.042393071104027326,0.010751111117005347,0.025163082829117774
1768576235014882000,0.586882080078125,-0.0521405216038227,0.0012886515710502863,-0.015557634615898132
1768576235024881200,0.596881103515625,-0.00636244770400226,0.014270992338843642,-0.009020926323533058
1768576235034881000,0.606881103515625,-0.00631802404038608,0.00882894741538912,-0.029423078361153602
1768576235044881200,0.616881103515625,-0.015756920047663152,0.034127383594587446,-0.006578793868422508
1768576235054881000,0.626881103515625,0.002009038267470896,0.021852789237350224,-0.007834346887469291
1768576235064880000,0.636880126953125,0.03274962896797806,0.004466952813602983,0.014413725277781486
1768576235074880000,0.6468798828125,0.030499256225302813,0.004686806109361351,0.04790156885981559
1768576235084880100,0.656880126953125,0.007043561835959554,0.013861096363700925,0.048776598128676414
1768576235094879000,0.66687890625,0.004471080999448895,0.007439648481458425,0.04080488859713077
1768576235104878800,0.67687890625,-0.0058066404521465295,0.021209632495604456,0.012905074280500412
1768576235114879200,0.686879150390625,0.0040308629512786865,0.017585377583838997,-0.0006482347756624221
1768576235124877800,0.6968779296875,-0.022388941940665243,-0.005419029374048113,-0.032194296640157695
1768576235134878000,0.7068779296875,-0.04812310265600681,-0.016272468354366718,-0.0721872843325138
1768576235144877800,0.7168779296875,-0.03829549959208816,-0.019186857963725924,-0.06166296770870685
1768576235154877000,0.726876953125,-0.02990118073429912,0.009200118815340101,-0.04294949941039085
1768576235164877000,0.736876953125,-0.00277994957473129,0.014691701968945562,-0.031572949871420855
1768576235174877000,0.746876953125,0.0483984489986673,0.03178239137101918,0.00810147339105606
1768576235184876800,0.756876708984375,0.059245421705581246,0.024125227681361137,0.027897476229071617
1768576235194876000,0.7668759765625,0.023280922344326972,-0.014877251136302947,0.07358546069264411
1768576235204876000,0.7768759765625,0.0523146360617131,-0.009989917486160993,0.07547931161522865
1768576235214876000,0.7868759765625,0.03740300773177296,0.006182926418632269,0.07159867078959942
1768576235224875000,0.796875,-0.0364858198216185,-0.00795315096154809,0.061599839344620703
1768576235234875000,0.806875,-0.05891392472889274,0.01584595003798604,0.042625674283504486
1768576235244875000,0.816875,-0.0736076359918341,0.02349255580101162,0.019908815562725064
1768576235254874000,0.8268740234375,-0.04641626220550388,0.05096965119354427,0.01768821690380573
1768576235264874000,0.8368740234375,-0.02767006068136543,0.030116577050648626,0.002738485053181648
1768576235274873900,0.846873779296875,-0.03304006328191608,0.01870017042532563,-0.015960370197892187
1768576235284874000,0.8568740234375,-0.0052139352560043335,0.013876403530687092,-0.020750527083873746
1768576235294873000,0.866873046875,-0.0005962123274803161,0.01377977475579828,-0.0012818565040826797
1768576235304873000,0.876873046875,-0.01630231550335884,0.01431943459045142,0.03332534649670124
1768576235314873000,0.886873046875,-0.0016319485833868384,0.025659013119898735,0.03607552198767662
1768576235324872000,0.896871826171875,-0.021626104342006146,0.05349295912608504,0.05441431175470352
1768576235334872000,0.9068720703125,-0.023942601123452187,0.03100486765988171,0.05540156922638416
1768576235344872000,0.916871826171875,-0.006971008056402206,0.02093538213148713,0.03572422433197498
1768576235354871000,0.92687109375,0.0689724870044738,0.04125285156033933,0.02819792048037052
1768576235364871000,0.936870849609375,0.07296531950030476,0.036432080340385434,-0.006688099461793899
1768576235374871000,0.94687109375,0.05087444719076156,0.027973756335675715,-0.001319265905022621
1768576235384870100,0.9568701171875,0.03286773892231285,0.007052000870741903,-0.01287292557656765
1768576235394870000,0.9668701171875,-0.04388352885749191,0.005821472695097327,-0.014879589223861693
1768576235404870100,0.9768701171875,-0.032522213420271874,0.01406600781865418,0.010318564918637274
1768576235414870000,0.9868701171875,-0.03643967912495136,0.02290989707484841,0.010047931283712386
1768576235424869000,0.996869140625,-0.044213235735893246,0.024433197651989758,0.004078209224343299
1768576235434869000,1.006868896484375,0.029268691517040132,0.01563782371263951,0.04258241966366768
1768576235444869000,1.016869140625,0.010701463289000093,0.009593611644953488,0.04220481852293014
1768576235454868000,1.026867919921875,-0.008486052261851727,0.014112331178411841,0.04136719865500927
1768576235464868000,1.0368681640625,-0.0333271000623703,0.016092399079725147,0.05518120447397232
1768576235474868000,1.046867919921875,-0.006191803844831883,0.04391567756142467,0.08580079914331436
1768576235484867000,1.0568671875,-0.002151588543318212,0.07169394785761833,0.08670739259421825
1768576235494867200,1.0668671875,0.00018880057036876677,0.03662990446742624,0.027315876948833463
1768576235504867000,1.0768671875,-0.008994038316607474,0.05099493176527321,-0.003513561078906059
1768576235514867000,1.086866943359375,0.021035189244151115,0.07134696105085313,0.031198855862021445
1768576235524866000,1.096865966796875,0.03556172724664211,0.0692708488965407,0.01973345899581909
1768576235534866200,1.1068662109375,0.016291794109344483,0.04882577103264629,-0.025846973440051078
1768576235544866000,1.116865966796875,0.03976385511159897,0.032839133882336315,-0.021931261301040648
1768576235554865200,1.126865234375,0.007970540487766265,0.0290538066573441,-0.020744681864976883
1768576235564865000,1.136864990234375,0.010908932027220725,0.030031748311407862,0.001384147834777832
1768576235574865200,1.146865234375,-0.015741137956641612,0.029008944602310655,-0.024095161336660384
1768576235584864000,1.156864013671875,-0.010509703576564788,0.04014467112272978,-0.05441548079848289
1768576235594864000,1.166864013671875,0.00713109398894012,0.06585464724488556,-0.03283201002180576
1768576235604864000,1.176864013671875,0.015860416954755784,0.036010019003413614,0.003534603866934776
1768576235614864100,1.186864013671875,0.05243395159244537,0.03624050329104066,0.04708323821425438
1768576235624863000,1.196863037109375,0.0765449680853635,0.016160715075582265,0.06161854404509067
1768576235634862800,1.20686279296875,0.07299279202912003,0.026517968036793172,0.08456921152174472
1768576235644863200,1.21686328125,0.04238602030873299,-0.003332541956193745,0.06188567054867744
1768576235654861800,1.22686181640625,0.048074514273926616,0.03498674037028104,0.04249649494588375
1768576235664862000,1.236862060546875,0.034288675103522834,0.040926140356622634,0.01681786381006241
1768576235674861800,1.24686181640625,0.04208557605743408,0.024022790220193563,-0.008705284503102302
1768576235684861000,1.25686083984375,0.03935589536521584,0.03691672205217182,-0.017461422410607337
1768576235694861000,1.266861083984375,0.014111527460813521,0.0388473247885704,-0.0018576105654239655
1768576235704861000,1.27686083984375,0.01309497082941234,0.024432430467009544,0.010127426260709761
1768576235714860000,1.286860107421875,0.018732172998785972,0.02108516586571932,0.012969371688365936
1768576235724860000,1.29685986328125,0.041114685198664666,0.030233408363349736,0.02073649855852127
1768576235734860000,1.306860107421875,0.04595927568562329,0.016352292124927042,0.03434825980365276
1768576235744860000,1.31685986328125,0.03696626028232276,0.01955287826452404,0.03884674026668072
1768576235754859000,1.32685888671875,0.04692782845683396,0.028054201160743832,0.048614101043343544
1768576235764859000,1.33685888671875,0.001830064971372485,0.03215864080488682,0.053016719916462896
1768576235774859000,1.34685888671875,-0.03295823021735996,0.01732533840816468,0.01926291887462139
1768576235784858000,1.356858154296875,0.010638919446803629,0.03357585065905005,0.011405191111564636
1768576235794858000,1.36685791015625,0.046173758686520155,0.013041560141742228,0.0025017536878585815
1768576235804857900,1.37685791015625,0.02675944864246994,-0.007437967981025576,0.000772153416275978
1768576235814858000,1.38685791015625,0.0374538976687938,-0.005585654645226895,0.0342114816814661
1768576235824857000,1.396857177734375,0.05582363056335598,-0.03771773623675108,0.02336860062777996
1768576235834857000,1.40685693359375,0.057083859757520256,-0.03524962909016758,0.015217442876100539
1768576235844857000,1.416857177734375,0.01716967292241752,-0.006471497569046914,0.028156419426202773
1768576235854856000,1.42685595703125,0.051708011938072736,-0.03975468542445451,0.0240291103631258
1768576235864856000,1.43685595703125,0.03614920827839523,-0.013758658902533352,0.009281623086333275
1768576235874856000,1.44685595703125,0.00535655859708786,0.0126471174640581,0.01699380489885807
1768576235884855000,1.45685498046875,-0.021736615511775016,0.033797713248804206,-0.0017845453292131422
1768576235894855000,1.46685498046875,-0.0223603003680706,0.03451444668341428,0.006647767451405525
1768576235904855000,1.47685498046875,0.0006155015498399734,0.06262465234771371,0.03006663696169853
1768576235914854100,1.486854248046875,0.00034837504625320433,0.03595401449985802,0.028226562052965164
1768576235924854000,1.49685400390625,-0.02344747455026954,0.008945924858562647,0.010944587862491606
1768576235934854100,1.506854248046875,0.007148775776103139,0.025686960572749374,0.01818447598814964
1768576235944854000,1.51685400390625,0.04324296593163162,0.03104092535395175,0.02709375863075256
1768576235954853000,1.52685302734375,0.032228783431649206,0.023159962845779956,0.0027829087167978283
1768576235964853000,1.53685302734375,0.011582958831265568,-0.002519398942403495,0.02380114682614803
1768576235974853000,1.54685302734375,-0.0214009903492406,-0.0070353054642677305,0.01818506051003933
1768576235984852000,1.55685205078125,-0.04837912324368954,0.012758140090480445,0.02452186231613159
1768576235994852000,1.56685205078125,-0.02785707115344703,0.060599649326130746,0.03445698087513446
1768576236004852000,1.57685205078125,-0.0054167278191074725,0.07264547642879188,0.021661796709895133
1768576236014851300,1.586851318359375,-0.0030074381876736877,0.10472864084467291,0.04103869735300541
1768576236024851200,1.596851318359375,0.015431962409615516,0.05721471959557384,0.032118308794498444
1768576236034851300,1.606851318359375,-0.001236336861923337,0.02028919318243861,0.024389175847172737
1768576236044851200,1.616851318359375,0.02153148486111313,0.012796207078546284,0.00812193165719509
1768576236054850300,1.626850341796875,0.07000354708526284,0.004216119857691228,-0.0005091185659170151
1768576236064850400,1.636850341796875,0.0407078579634428,-0.0015677607733756303,-0.025600889724493026
1768576236074850300,1.646850341796875,-0.015955767088010907,-0.004596387879550457,-0.008066986599564552
1768576236084849400,1.656849365234375,-0.02900222260057926,-0.002277553010545671,0.01212824468910694
1768576236094849300,1.666849365234375,0.010675634727999567,0.004262406684830785,0.010472878697514534
1768576236104849400,1.676849365234375,-0.01203596329577267,0.02027589530944824,0.018228315129876136
1768576236114849300,1.686849365234375,0.025893077604100107,0.007889438075572252,0.04618950424492359
1768576236124848400,1.696848388671875,0.07556640537679195,0.026635676132328808,0.07539630950689315
1768576236134848300,1.70684814453125,0.03747194478213787,0.050039384606108066,0.04597030853629112
1768576236144848400,1.716848388671875,0.0050350715577602385,0.04160349162891507,0.01773497865498066
1768576236154847500,1.726847412109375,-0.014290975680947303,0.011978826281055807,-0.02428454642891884
1768576236164847400,1.736847412109375,-0.050190520047210155,0.025552958929538724,-0.016623218020796776
1768576236174847500,1.746847412109375,-0.013550934435985982,0.01825264585353434,0.02037000333368778
1768576236184846000,1.75684619140625,-0.022840704296156762,0.03629183161947876,0.0022901567637920377
1768576236194846200,1.76684619140625,-0.011968743278458713,0.04508223712276667,0.026263153025507927
1768576236204846300,1.776846435546875,0.06849770909957588,0.03706025870870799,0.046824879539012904
1768576236214846500,1.786846435546875,0.06336571650598198,0.0026421120066195724,0.059171150892972944
1768576236224845000,1.796844970703125,-0.015548830254934727,0.007751308246515691,0.03455927220582962
1768576236234845200,1.80684521484375,0.012119513393379747,-0.003914287366904318,0.042731472745537756
1768576236244845000,1.816844970703125,0.002653144857287407,-0.010567315515317022,0.013051204752922057
1768576236254844200,1.82684423828125,-0.0012818565040826797,0.0008505889473482966,0.017196633994579314
1768576236264844300,1.83684423828125,0.007560206121206283,-0.008284026883728802,0.020136779099702833
1768576236274844200,1.84684423828125,-0.018688333857059477,-0.011912811840139328,0.0296627323359251
1768576236284843300,1.85684326171875,0.0021756635386496782,-0.02469320029504597,0.021086627170443534
1768576236294843100,1.866843017578125,0.013896533003263175,-0.02146674906183034,0.0013087445110082625
1768576236304843300,1.87684326171875,0.01355389357805252,-0.02201404421366751,-0.009039631024003028
1768576236314843100,1.886843017578125,0.03283087751064449,-0.0011161810809746384,-0.009516600885987282
1768576236324842200,1.89684228515625,0.03559102640636265,0.007620850267261266,0.019163550153374672
1768576236334842000,1.906842041015625,0.055682760787941515,0.018418905798532066,0.03496493039727211
1768576236344842200,1.91684228515625,0.052795770642161365,0.0055022506780922405,0.03207856130599975
1768576236354841300,1.92684130859375,0.05892682074308395,-0.013234050506539643,0.03458323760330677
1768576236364841200,1.93684130859375,0.04317980103492736,-0.0289424187047407,0.03918985461592674
1768576236374841000,1.946841064453125,-0.002172156407311559,-0.03508862984217703,0.04247428311407566
1768576236384840200,1.956840087890625,0.006089037590101361,-0.016228483082167802,0.02152209597826004
1768576236394840300,1.96684033203125,0.006010054069757461,0.008767061160318553,0.021193010154366494
1768576236404840200,1.976840087890625,0.025354879074171183,0.01784501490071416,0.03431903370916843
1768576236414840300,1.98684033203125,0.01711713901758194,0.002342617603391409,0.0124263508528471
1768576236424839200,1.996839111328125,-0.003984028134867549,0.049722646807134147,0.007597615522146224
1768576236434839300,2.00683935546875,-0.005083002352714539,0.040705702538974584,0.01741466065943241
1768576236444839200,2.016839111328125,-0.018224150411412118,0.04030457439217716,0.031712650603055954
1768576236454838300,2.02683837890625,-0.05428213674239814,0.023923092705383897,-0.002057517051696777
1768576236464838100,2.036838134765625,-0.03554470304660499,0.013351977797783911,0.00858604203760624
1768576236474838300,2.04683837890625,-0.02884498621225357,0.004409523537941277,-0.013398995277285575
1768576236484838100,2.056838134765625,-0.011146978566795586,0.006366174031049013,-0.02716214769184589
1768576236494837200,2.066837158203125,-0.0025146131694316863,-0.0025291896840557455,-0.03210954096615314
1768576236504837400,2.07683740234375,-0.03013853315412998,-0.018734401488490402,-0.010289923346042633
1768576236514837200,2.086837158203125,-0.018250526961684225,-0.020848105706833302,-0.0009141922354698181
1768576236524836400,2.09683642578125,-0.029517186385393142,-0.006977401264570653,-0.0011310498565435408
1768576236534836200,2.106836181640625,-0.005802548798918724,0.0007878259094431996,0.026494039171934127
1768576236544836400,2.11683642578125,0.004121536909416318,0.02883826421052217,0.05264437947273254
1768576236554835200,2.126835205078125,-0.00682663114964962,0.036787286986224355,0.023290274694561956
1768576236564835300,2.13683544921875,0.0012059417236596345,0.02843439611736685,0.006216390296816826
1768576236574835200,2.146835205078125,-0.01174472526423633,0.015496004089154303,0.03358487421572208
1768576236584835300,2.15683544921875,-0.02729417657367885,0.025912768685258922,0.025193477967381476
1768576236594834400,2.16683447265625,-0.03919387320391834,0.01037793042305857,0.018569675913453102
1768576236604834300,2.176834228515625,-0.019122633621096608,0.021528744914755225,0.03470248006880283
1768576236614834400,2.18683447265625,-0.011161956940218806,0.016528963866084812,0.008797638961672783
1768576236624833300,2.196833251953125,-0.012720876820012926,0.009624152913689612,-0.0063397244155406944
1768576236634833400,2.20683349609375,-0.017520459121465683,0.013025449257157743,-0.03975216467380523
1768576236644833300,2.216833251953125,-0.028682489126920698,0.016652188386954366,-0.012591186025738716
1768576236654833400,2.22683349609375,-0.030857422013208267,0.031272907478921114,-0.005964461362361908
1768576236664832300,2.236832275390625,0.012150529586151242,0.025780776336044073,0.0019920506000518797
1768576236674832400,2.246832275390625,0.00943834801800549,0.022240436848066744,0.004575637352466583
1768576236684832300,2.256832275390625,0.012796426274254917,0.018855543650127947,0.03125964613854885
1768576236694831400,2.266831298828125,-0.0078209028840065,0.016822247724235056,0.02186053415238857
1768576236704831500,2.27683154296875,-0.018438121955655515,0.012266118789836763,-0.011198270362615585
1768576236714831400,2.286831298828125,-0.03721530313994735,0.029418767512217163,-0.004490297156572342
1768576236724830200,2.296830322265625,-0.034684944412112236,0.04281670334357768,-0.00829495013654232
1768576236734830300,2.306830322265625,0.04982994310650974,0.03383106752913445,0.0319154796987772
1768576236744830500,2.31683056640625,0.026734277668595312,0.035008733006380494,0.050285833647847174
1768576236754830300,2.326830322265625,0.05720715734362602,0.0476072620883584,0.06405366223752498
1768576236764829200,2.3368291015625,-0.007457330268621444,0.0016313275288790464,0.06318038653433322
1768576236774829000,2.3468291015625,-0.018509470158815385,0.014761844595707951,0.04661211357116699
1768576236784829400,2.356829345703125,-0.017020035318657756,0.018129677060991525,0.034846272453665735
1768576236794828300,2.366828369140625,-0.05022087865285575,0.03451203553061932,0.02517594231069088
1768576236804828200,2.376828125,-0.03536591241359711,0.010143610210530458,0.008016717717051506
1768576236814828000,2.386828125,-0.014231427513435483,0.03593085281997919,-0.0014665654212236404
1768576236824828200,2.396828125,-0.05762330039646476,0.04306903413683176,0.039352936223149296
1768576236834827300,2.4068271484375,-0.005671031373739242,-0.006419840447045863,0.04276946666836738
1768576236844827100,2.4168271484375,0.011143361837603151,-0.008002762256935239,0.02434066053032875
1768576236854827300,2.4268271484375,-0.008406593817472458,-0.007100223926641047,0.016095979276299476
1768576236864826000,2.436826171875,0.022032420120574533,0.005200856578722596,0.03601414718925953
1768576236874826200,2.446826171875,0.047924986268021164,-0.00467032989859581,0.0263034850358963
1768576236884826000,2.456826171875,0.005458849927783012,0.015107991152256726,0.005363572859764099
1768576236894826200,2.466826171875,-0.0618786562860012,-0.01609937680978328,-0.02773088749051094
1768576236904825000,2.4768251953125,-0.042428105884790415,0.010441643309034406,-0.015787351718544958
1768576236914825200,2.4868251953125,-0.042618075498938555,0.04143368801996112,-0.002496492990851402
1768576236924825000,2.4968251953125,-0.044722938823699945,0.02880374088641256,0.006741290953755378
1768576236934824200,2.50682421875,0.017557868522405623,0.061421158309467136,0.020340192717313764
1768576236944824300,2.51682421875,0.03970891005396843,0.04136420298032462,0.02541734985113144
1768576236954824200,2.52682421875,0.015051950116083025,0.05038333920557052,0.027953590330481528
1768576236964823300,2.5368232421875,0.008668386558815836,0.057530288350768385,0.01764437776207924
1768576236974823200,2.5468232421875,-0.009668649642542004,0.012174202722683549,-0.013019056048989295
1768576236984823300,2.5568232421875,-0.03274374721646309,0.03784859607480466,0.0011842413485050201
1768576236994823200,2.5668232421875,-0.01863338879942894,0.03300773191489279,0.016856442254781723
1768576237004822300,2.576822265625,-0.007103694525361061,0.025560265453159807,0.015312135422229766
1768576237014822000,2.58682177734375,-0.004794833061099052,0.026530498724803328,0.015552958440780638
1768576237024822000,2.596822021484375,0.024669746354222297,0.03921959216706455,0.037222353935241696
1768576237034821000,2.606821044921875,0.0011140987217426299,0.02820347343832254,0.019126725274324415
1768576237044821000,2.616821044921875,-0.03096029786579311,0.02247216324470937,0.01865852324068546
1768576237054821000,2.626821044921875,-0.013043532903119921,0.04732884700577706,0.029558102917671202
1768576237064821000,2.636821044921875,0.007110818385891616,0.022199849109351633,0.044949733316898347
1768576237074820000,2.646820068359375,-0.026359562604688105,0.024652576023712753,0.026522096222639083
1768576237084820000,2.656820068359375,-0.03368950363397598,0.004313844611123204,0.0007464344531297683
1768576237094820000,2.666820068359375,0.0038526203075423832,0.005000950092449784,0.005666939720511436
1768576237104819000,2.67681884765625,0.024330212201550603,-0.00394245401546359,0.0011579378634691238
1768576237114819000,2.686819091796875,0.025784429597854614,-0.0029224633179605005,0.009526537758111953
1768576237124819000,2.69681884765625,0.02563946816921234,0.005359810000099241,0.031201778471469876
1768576237134819000,2.706819091796875,0.03945467956457287,-0.02028108294121921,0.022322306445240973
1768576237144818200,2.716818115234375,0.03164316556341946,0.0027118893072009087,0.05218494526743889
1768576237154818000,2.726818115234375,0.027429310728050767,0.012414331621490419,0.062167994621396064
1768576237164818200,2.736818115234375,0.0043658305266872045,0.02257639080416411,0.022190204498171804
1768576237174817000,2.746817138671875,0.0214455601433292,0.03274553731475025,0.008835048362612724
1768576237184817200,2.756817138671875,0.0018910013783723116,0.04717267006337642,0.015225626182556152
1768576237194817000,2.766817138671875,-0.02630699216723442,0.013290383803658186,-0.0007119476616382598
1768576237204817200,2.776817138671875,-0.0027051307728514075,0.0353969286063686,-0.01653846234679222
1768576237214816000,2.78681591796875,0.01615676955282688,0.007635755575448274,-0.019221417820453644
1768576237224816000,2.796816162109375,-0.010714286237955093,0.01506353095602244,0.00920855785012245
1768576237234816000,2.80681591796875,-0.006465944611094891,0.011810776237770914,-0.0014355857610702514
1768576237244815000,2.816815185546875,0.024599530662223694,-0.02037398538906127,-0.00909399155974388
1768576237254815000,2.82681494140625,0.02745492009334266,0.012392704311572014,0.013022563180327415
1768576237264815000,2.836815185546875,0.034065424274280665,-0.003914141236431896,0.03482639870941639
1768576237274815000,2.84681494140625,0.13055767676923424,-0.00459620521645993,0.06973346143960953
1768576237284814000,2.85681396484375,0.08832819872908294,-0.011990699381940067,0.0799953277349472
1768576237294814200,2.866814208984375,0.08406016602106392,-0.004691190023534,0.0699655166298151
1768576237304814000,2.87681396484375,0.05889050732068717,0.035007892756164075,0.05444821402430534
1768576237314813000,2.88681298828125,0.038737434673309326,0.03192691440824419,0.035220366463065145
1768576237324813000,2.89681298828125,-0.025736425737664104,0.026203860586322843,0.04022679644823074
1768576237334813200,2.906813232421875,-0.009446458259224891,0.011184570630826056,0.005558803170919418
1768576237344812000,2.91681201171875,0.032221696103736756,0.0007000380281358957,-0.029276947888731954
1768576237354812000,2.92681201171875,0.0294966550540179,-0.013808562458865343,-0.008467968615889549
1768576237364811800,2.936811767578125,0.014963869973830878,-0.009107399030588567,-0.012221183669567107
1768576237374812200,2.946812255859375,0.02968088904712349,-0.007593560401536524,-0.017793430843949316
1768576237384811000,2.95681103515625,0.011661905818991363,-0.012674042003601789,-0.02383914074897766
1768576237394811000,2.966810791015625,0.005921718199178576,0.016408004367537796,0.00019523031115531922
1768576237404811000,2.97681103515625,0.04561258113980293,-0.004019793567992746,0.01511632058918476
1768576237414809900,2.986809814453125,0.0022328736186027526,-0.010277648386359214,0.041871056523919106
1768576237424810000,2.99681005859375,-0.010768646773695946,0.009684431733563542,0.03647942661345005
1768576237434809900,3.006809814453125,-0.011187748968601226,0.009207169610634445,0.03904372414350509
1768576237444810000,3.01681005859375,-0.0011048194367438554,-0.0025663068240508436,0.019924597653746604
1768576237454808800,3.026808837890625,0.004399111741781234,0.013864676560275256,0.024289807125926016
1768576237464809000,3.03680908203125,0.01125204637646675,0.01507993410155177,0.041509237474203105
1768576237474808800,3.046808837890625,0.03199497467577457,-0.003263276112265885,0.051832478567957876
1768576237484808000,3.056807861328125,0.01289155721180141,-0.00494827005714178,0.03477320721745491
1768576237494808000,3.06680810546875,-0.04614515364654362,-0.0032565175779163836,0.015616671326756476
1768576237504808000,3.076807861328125,-0.02773205653429031,0.020297084227949378,0.0024427169770002365
1768576237514808000,3.08680810546875,-0.03290281023569405,0.04279423578344285,0.005282324317097664
1768576237524807000,3.096806884765625,-0.03421495228018612,0.03246131354589015,0.009628829088807106
1768576237534807000,3.10680712890625,0.010032806779816746,0.03483783341888338,-0.003221300134062767
1768576237544807000,3.116806884765625,0.0025268881291151046,-0.001825973318144679,-0.01324234341084957
1768576237554806000,3.126805908203125,0.029418913642689584,0.003646795537136495,-0.011468319475650787
1768576237564806000,3.136805908203125,0.03031856589615345,0.016112455487065015,0.0019856208592653273
1768576237574806000,3.146805908203125,0.0007884469639509916,0.015835063317790627,0.01845394057929516
1768576237584806000,3.156805908203125,0.005506232733465731,0.004697254438139498,0.04509937092065811
1768576237594805000,3.166804931640625,-0.010037409889698028,0.008613112707622349,0.04584346728622913
1768576237604805000,3.17680517578125,0.0008850392062216997,-0.006739391257613897,0.029355273821949957
1768576237614805000,3.186804931640625,0.03491882623322308,0.014265147119946777,0.05537760382890701
1768576237624804000,3.19680419921875,0.016664755607582626,0.023119996161572634,0.0495481670230627
1768576237634804000,3.206803955078125,0.06013974019680172,0.034186749099008734,0.044779637446999546
1768576237644804000,3.21680419921875,0.03786481655724346,0.03955156406778842,0.03523614855408668
1768576237654804000,3.226803955078125,-0.01932016548719257,0.031931152191944416,0.01355389357805252
1768576237664803000,3.236802978515625,-0.04544770943429321,0.05235036496222019,0.004888941085338592
1768576237674803000,3.246802978515625,-0.038037250514701006,0.05715381972119212,0.021101824739575385
1768576237684803000,3.256802978515625,-0.05551492994036525,0.04768409018423408,0.01651625051498413
1768576237694802000,3.266802001953125,-0.03537343813292682,0.03097359573878348,0.008173954105377197
1768576237704802000,3.276802001953125,0.026453122639656067,0.02482921123225242,0.0077484221696853635
1768576237714802000,3.286802001953125,0.02974522298760712,0.007594985173642635,0.027822072905302045
1768576237724802000,3.296802001953125,0.0079998031148687,0.013852474665828049,0.049996495312452316
1768576237734801200,3.30680126953125,-0.0102080172162503,0.025104557574912905,0.020404490125179288
1768576237744801000,3.316801025390625,-0.0036473800590261815,0.016292305565997957,0.02254851641654968
1768576237754801200,3.32680126953125,0.031026494969800113,0.032081520448066295,0.0464157142162323
1768576237764800000,3.336800048828125,0.024812990749813614,0.031933965203538535,0.045909518259763714
1768576237774800100,3.346800048828125,0.004957366679050028,-0.0016859437929466366,0.020256021565198897
1768576237784800000,3.356800048828125,0.02824402464441955,-0.0004832534722983837,0.03561082708537578
1768576237794800000,3.366800048828125,0.033280338311195375,-0.017427008684352038,0.041246202623844146
1768576237804799000,3.376799072265625,0.0013555793274194002,-0.01747789862137288,0.04374620274603366
1768576237814799000,3.386799072265625,-0.01592237627506256,-0.04753679066803306,-0.003596563187241554
1768576237824799000,3.396799072265625,0.005738287923671305,-0.01971245274040848,-0.028075170883536338
1768576237834798000,3.406798095703125,0.005343114593625069,0.0057875338928774,-0.02339899576604366
1768576237844798200,3.416798095703125,0.01655778810176998,0.0027823607275262474,-0.001986205381155014
1768576237854798000,3.426798095703125,-0.0028390228182077408,0.02011306943055242,0.013441665375232696
1768576237864798000,3.4367978515625,0.016008374058082697,0.010355061004124581,-0.0012315876215696334
1768576237874797000,3.446797119140625,0.030678046858310697,-0.0023050255393609405,0.008781272348761558
1768576237884797200,3.456797119140625,0.027344518521428107,-0.00726874889396131,0.03646715165376663
1768576237894797000,3.466797119140625,0.016592165295407173,0.010297156804427504,0.04562485609948635
1768576237904797200,3.476797119140625,0.010856946111656725,0.007585413627699017,0.020838789889216423
1768576237914796000,3.486796142578125,-0.0013262436350807546,0.008233831066451966,0.002624503284692764
1768576237924796200,3.496796142578125,0.00783555246386677,0.014242789157666266,-0.0030523733079433437
1768576237934796000,3.506796142578125,0.013954327605105935,0.006803944393806159,0.015345453169941901
1768576237944795100,3.516795166015625,0.0038023879576474426,0.009757058578357099,0.019657471150159835
1768576237954795000,3.526794921875,-0.02082191181965172,0.002970722906477749,-0.011360182926058768
1768576237964795100,3.536795166015625,-0.008966565787792206,0.02000705177281052,0.0029535891085863113
1768576237974795000,3.546794921875,-0.023876038693264125,0.028107246522232888,0.008586626559495925
1768576237984793900,3.5567939453125,-0.02049388544168323,0.014211188443005084,0.021086042648553845
1768576237994794200,3.566794189453125,-0.009070610684156417,-0.01199990560170263,-0.009372808501124381
1768576238004794000,3.576794189453125,0.02093640504479408,-0.0036099341254681346,-0.052717444708943365
1768576238014793500,3.58679345703125,0.02841119790486991,-0.0012138327691704033,0.009572130465507507
1768576238024793300,3.59679345703125,0.04627020479831844,-0.02170578198209405,0.029959669455885886
1768576238034793500,3.60679345703125,0.023608291135169563,-0.0318453005393967,0.059064183387160296
1768576238044793300,3.61679345703125,-0.007158603050373494,-0.0035636838309466836,0.07576514281928538
1768576238054792400,3.62679248046875,0.02060088948011398,-0.008450725220143795,0.032894553864002224
1768576238064792300,3.636792236328125,0.030313305199146268,0.048791466904245316,0.07121054825484752
1768576238074792400,3.64679248046875,0.014507285312749444,0.006934183177351951,0.09847323371171951
1768576238084791300,3.656791259765625,-0.018509470158815385,0.01905000677630305,0.037737902241945266
1768576238094791400,3.66679150390625,-0.05789857367388904,0.013927585728652775,-0.05835048215985298
1768576238104791300,3.676791259765625,-0.06007938831169158,0.03519311312995851,-0.08071312061548233
1768576238114791400,3.68679150390625,-0.02701550576277077,0.02112001798339188,-0.06583586947917938
1768576238124790300,3.696790283203125,0.0020464111357927322,0.04371314072664827,-0.057984571456909176
1768576238134790400,3.706790283203125,0.0491430933535099,0.06295695304200052,-0.008338204756379128
1768576238144790500,3.71679052734375,0.03380874609947204,0.04097735908720642,0.07579904508888721
1768576238154789000,3.7267890625,-0.00757774177789688,0.053442069189064204,0.11721242097318171
1768576238164789200,3.736789306640625,-0.0514917023062706,0.008904789130575954,0.07468085471391678
1768576238174789000,3.7467890625,-0.03191599115543067,-0.005221753236278891,0.046187166157364845
1768576238184789500,3.75678955078125,-0.01351407302431762,-0.016913031280227003,0.016176058775186537
1768576238194788000,3.7667880859375,0.014649287599325178,-0.022877638773061332,-0.04260229340791702
1768576238204788200,3.776788330078125,0.01827047377116978,-0.022744769641011953,-0.048585459470748896
1768576238214788000,3.7867880859375,-0.00479596557226032,-0.043493360496126114,-0.049803018566966055
1768576238224787200,3.796787109375,-0.0250309443494305,-0.05011555511485785,-0.053153498038649556
1768576238234787300,3.806787353515625,-0.01962294782605022,-0.030253793564252552,-0.015524316868185997
1768576238244787200,3.816787109375,-0.03014434184040874,-0.02038984054531902,-0.002601122409105301
1768576238254787300,3.826787353515625,-0.012451960218138993,-0.0024865195861086247,-0.0004559270739555359
1768576238264786200,3.8367861328125,-0.03385850352533162,0.008514072779938578,0.021297639572620392
1768576238274786300,3.846786376953125,-0.02257010719384998,0.008498327221535146,0.07475508899390697
1768576238284786200,3.8567861328125,-0.0527028316617012,0.02973470159359276,0.08169161025881767
1768576238294786300,3.866786376953125,-0.04387304399609566,0.03266067204289138,0.07787877397239208
1768576238304785200,3.87678515625,0.0142477575937286,0.016155344780720768,0.05059446120560169
1768576238314785300,3.886785400390625,0.019447116335108875,-0.009712927175685762,0.0408475586950779
1768576238324785200,3.89678515625,0.023897629470564424,-0.01359481011033058,0.015869769304990768
1768576238334784300,3.9067841796875,-0.018174502583406863,0.0006887129165232181,-0.010294599521160125
1768576238344784400,3.916784423828125,-0.040031529604457314,-0.018913995839096604,-0.0010100538253784179
1768576238354784300,3.9267841796875,-0.02718669761121273,-0.045970491199381645,0.013942600634694099
1768576238364784000,3.9367841796875,-0.008846154278516769,-0.0437909917358309,0.024986557218432424
1768576238374783200,3.946783203125,0.01783200928866863,-0.031157354807853695,0.021510990062355993
1768576238384783400,3.956783447265625,-0.005442556380107998,-0.0393920991897583,-0.0021691607326269147
1768576238394783200,3.966783203125,0.029491978878900406,-0.049819787038676434,-0.004861468556523323
1768576238404782300,3.9767822265625,0.04830956513881683,-0.06069488986153155,-0.004818213936686516
1768576238414782200,3.9867822265625,-0.00737487614955753,-0.029079342957399786,0.0025455928295850753
1768576238425407500,3.997407470703125,-0.01656768844127655,0.009526026301458478,0.015733575704693793
1768576238435407400,4.007407470703125,-0.038135961648821826,0.003624108781293034,0.018292028015851974
1768576238445406200,4.01740625,-0.06803900554664433,0.03624459494426846,-0.033633974054455756
1768576238455406000,4.027406005859375,-0.022135332505777476,0.051462330081313845,0.008846738800406456
1768576238465406500,4.037406494140625,-0.0019582213956862685,0.05899057016167789,0.014065934753417967
1768576238475406300,4.04740625,-0.006067337214946746,0.081502152101323,0.008043021202087402
1768576238485405200,4.0574052734375,0.024744492090865967,0.07716375757083296,-0.0017138181805610656
1768576238495405300,4.0674052734375,0.05233166026175022,0.12539682340733707,-0.007708674681186675
1768576238505405200,4.0774052734375,0.02042907657716423,0.10760010462775826,-0.027747254103422162
1768576238515404300,4.087404296875,-0.0048287353307008745,0.07954882607646287,-0.013228314885497092
1768576238525404200,4.097404052734375,0.00815466488301754,0.11179689873047173,0.03137128981947899
1768576238535404300,4.107404296875,0.0758563282340765,0.1176505201295018,0.050261283728480335
1768576238545404200,4.117404052734375,0.07545304466281086,0.07829261547029018,0.06048398705720901
1768576238555403300,4.1274033203125,0.027186186154559252,0.04135437570605427,0.057985155978798865
1768576238565403100,4.137403076171875,0.008967661766335368,0.007198935060761869,0.03165478293597698
1768576238575403300,4.1474033203125,0.04187343114409595,-0.009754026371054351,0.043893502262234686
1768576238585403100,4.157403076171875,0.009843933144211768,-0.006573898497596382,0.04084171347618103
1768576238595402200,4.16740234375,0.04570610464215279,0.030446795385703444,0.09485212060511111
1768576238605402000,4.177402099609375,0.060434229631349444,-0.0014846855998039245,0.10582768812775611
1768576238615402200,4.18740234375,0.011519172880053519,-0.003391067210398614,0.015822423031926155
1768576238625401300,4.1974013671875,0.0011626140385866165,-0.006953034008294344,-0.0370738853752613
1768576238635401200,4.207401123046875,-0.00635839258339256,-0.03518704871535301,-0.0037882863670587537
1768576238645401300,4.2174013671875,-0.039436997777409846,-0.02347655451428145,0.00433656789958477
1768576238655401200,4.227401123046875,-0.050988940415903926,-0.0029242534162476656,-0.012568974193930625
1768576238665400300,4.237400390625,-0.004018551458977162,-0.007878660953231155,0.017795184409618376
1768576238675400200,4.247400146484375,-0.004988273273967206,0.005109415435604751,-0.004661562070250511
1768576238685400300,4.257400390625,-0.021943536260724067,0.021609299337677655,-0.025053192713856694
1768576238695400200,4.267400146484375,-0.006005377894639968,0.047175117748789484,-0.0066927756369113914
1768576238705399300,4.2773994140625,0.013084522500634193,0.03962872095722705,0.0368342314004898
1768576238715399200,4.287399169921875,-0.013688991199806332,0.019760018209181725,0.029785481932759282
1768576238725399300,4.2973994140625,-0.018060630412772297,0.0036553441697731613,0.04009294093549251
1768576238735398400,4.3073984375,-0.009303250396251678,-0.009557736613973975,0.0557873536735773
1768576238745398300,4.317398193359375,0.04599255690071732,-0.026043482392840087,0.012973463341593742
1768576238755398400,4.3273984375,0.1182289410719648,-0.026072160498052836,0.010140285742282866
1768576238765398300,4.337398193359375,0.11648648131880908,-0.029651918680965898,0.014796002593636512
1768576238775397400,4.3473974609375,0.10080901971552521,-0.05206877154186368,0.0026759412109851836
1768576238785397200,4.357397216796875,0.08178115170579403,-0.049223611243814226,0.04471241742968559
1768576238795397400,4.3673974609375,0.06403674763534217,-0.016495426922664046,0.03257715847790241
1768576238805396200,4.377396240234375,0.07871405575275421,0.016923150815442205,0.010111059647798537
1768576238815396400,4.387396240234375,0.10343757812082767,0.031496450569108124,-0.008179214802384377
1768576238826021000,4.398021240234375,0.06256375247333198,0.040388782076910136,-0.022456746479868887
1768576238836021500,4.408021484375,0.02786123587191105,0.0586557487167418,0.0006663549542427063
1768576238846020000,4.41802001953125,0.01149115236196667,0.055351154213398694,-0.03445814991891384
1768576238856020200,4.428020263671875,0.005024659761600196,0.042649128224328155,-0.023996377137303352
1768576238866020000,4.43802001953125,0.021346154889464376,0.03853548236042261,-0.026884499794244766
1768576238876020200,4.448020263671875,0.009988310050964355,0.049220615569129586,-0.02603869661986828
1768576238886019300,4.458019287109375,0.022615078846737743,0.027385617716796696,-0.027151041775941846
1768576238896019200,4.468019287109375,0.015479235617443918,0.022107092791981992,-0.015279986718297004
1768576238906019300,4.478019287109375,-0.0025911490043625234,0.03227916191201657,0.002266191366314888
1768576238916018200,4.48801806640625,-0.04142623536586761,0.0349716523990035,0.025809564039111135
1768576238926018300,4.498018310546875,-0.09717325702905655,0.03997461178544909,0.005657002848386764
1768576238936018200,4.50801806640625,-0.06386953784227371,0.04016670029144734,-0.0010334347009658812
1768576238946018300,4.518018310546875,-0.03877141000814736,0.020881934911198913,-0.007853636109828949
1768576238956017200,4.52801708984375,-0.05843578582312912,0.019119418750703332,0.011671148571372032
1768576238966017300,4.538017333984375,-0.06477835978288203,0.01093300702255219,0.041104163804650304
1768576238976017200,4.54801708984375,-0.06869359699785708,0.010109963669255375,0.07131283958554267
1768576238986017300,4.558017333984375,-0.06926533247120678,0.0021961948700249196,0.06727028619647026
1768576238996016400,4.568016357421875,-0.06682195790708065,0.016369645118527114,0.09392331532239913
1768576239006016300,4.578016357421875,-0.05119768779575824,0.01696348282583058,0.10609481463134288
1768576239016016100,4.58801611328125,-0.03750760061740875,0.006016374212689697,0.08792670525610446
1768576239026016000,4.59801611328125,-0.012331073784828185,0.015082929776236414,0.06035597676336765
1768576239036015000,4.60801513671875,-0.020445370124839244,-0.003906980843283236,0.03205225782096386
1768576239046015000,4.618014892578125,-0.0037859482795000073,0.003656367083080113,0.03788753984570503
1768576239056015000,4.62801513671875,-0.029848610296845435,0.0004871989950537681,0.035512627407908434
1768576239066015000,4.638014892578125,-0.031180151161551473,0.022659867836534977,0.00907177972793579
1768576239076014000,4.64801416015625,-0.03523731759786606,0.02290456331260502,0.020490999364852904
1768576239086014000,4.658013916015625,-0.023335830869339404,0.012241568870469927,0.028302549898624418
1768576239096014000,4.66801416015625,0.023706381214782593,0.009913637379556894,0.03489946394562721
1768576239106013200,4.67801318359375,0.03624627544470131,0.0010774199731647968,0.0346124636977911
1768576239116013000,4.688012939453125,0.04534545463621616,0.018763846778683365,0.005889642560482025
1768576239126013000,4.698012939453125,0.05209660939686,0.006220993406698108,0.015767477974295615
1768576239136013000,4.708012939453125,0.07894377285540104,0.0022926044492051004,0.010082418075203894
1768576239146012200,4.71801220703125,0.08513385966718197,-0.00733666303101927,-0.0005272387444972992
1768576239156012000,4.728011962890625,0.06092595867104828,-0.006235058464668691,0.0062111295998096465
1768576239166012200,4.73801220703125,0.03927815395388752,-0.02262446772959083,0.00023147066831588744
1768576239176012000,4.748011962890625,0.05968615121040493,-0.03203377231620252,-0.005294014754891396
1768576239186011100,4.75801123046875,0.09834467542860656,-0.02452785366550088,0.019705986467003823
1768576239196011000,4.768010986328125,0.11495733552277088,0.023338059359043834,-0.0063385553717613214
1768576239206011100,4.77801123046875,0.07796813275627791,0.030367702267505226,0.02640928349792957
1768576239216011000,4.788010986328125,0.06027757776491344,0.02308569203317165,0.017387772652506826
1768576239226010000,4.798010009765625,0.033919732193276285,0.03813376969173551,0.02721709274947643
1768576239236010000,4.808010009765625,0.04535064226798713,0.03777907450255006,0.056660044854879375
1768576239246010000,4.818010009765625,0.06011807635426521,0.017049334478378295,0.03850362591743469
1768576239256010000,4.828010009765625,0.06705569359771907,0.03047174716386944,0.018688333857059477
1768576239266009000,4.838009033203125,0.06423084543533623,0.026802557131834326,-0.010879705932736397
1768576239276009000,4.848009033203125,0.03880998845286667,0.026283209432847798,-0.01922667851746082
1768576239286009000,4.858009033203125,0.040049028728529806,0.01281750559490174,-0.021596330258250234
1768576239296009000,4.868009033203125,0.04827277679238468,0.014330686636827886,-0.029504911425709723
1768576239306008000,4.878008056640625,0.027144612035155294,0.03135594611987472,-0.02513794838786125
1768576239316008200,4.88800830078125,0.005607318487763404,0.033247422422282395,-0.0011737199544906616
1768576239326008000,4.898008056640625,0.032297209025360644,0.041494295633397994,0.016953472888469694
1768576239336007200,4.908007080078125,0.03547174740824848,0.03782631117776036,0.038518823486566545
1768576239346007000,4.918007080078125,0.021896811042167244,0.026602394917234776,0.04452595494687557
1768576239356007200,4.928007080078125,0.027252785117365418,0.021691534261032937,0.052633273556828494
1768576239366007000,4.938007080078125,0.006886288915015757,0.007118453703075647,0.059254737523198125
1768576239376006100,4.948006103515625,-0.015588577743433415,-0.02162727338578552,0.0591425093203783
1768576239386006000,4.958006103515625,-0.023860147004388273,0.017715031845495104,0.025062545064091682
1768576239396006100,4.968006103515625,-0.007317008482478559,0.029445874714851376,-0.006607435441017151
1768576239406006000,4.978006103515625,0.002220050669647753,0.030373401355929672,0.008892331507802009
1768576239416004900,4.9880048828125,-0.02831248677074909,0.014441964991576968,0.009425415471196174
1768576239426005200,4.998005126953125,-0.013045907523296773,0.012873144772276282,0.025215689799189565
1768576239436005000,5.008005126953125,-0.016893267133831977,0.031044943941943345,0.02170329776406288
1768576239446005000,5.0180048828125,0.02816982689704746,0.0517253283990547,0.003701777127385139
1768576239456003800,5.02800390625,0.04078969102799892,0.03704780108593404,-0.002011339822411537
1768576239466004200,5.038004150390625,-0.02883621838390827,0.047540809256024656,0.009930442383885383
1768576239476004000,5.048004150390625,-0.006897321765683591,0.01794796381853521,0.0398275679975748
1768576239486004200,5.058004150390625,-0.041542518689297134,-0.014364917699992655,0.02811024219691753
1768576239496002800,5.0680029296875,-0.05585866534411907,-0.005483290249295532,0.033445758005976677
1768576239506003000,5.0780029296875,-0.009983049353957175,-0.01571863386388868,0.04715045823156833
1768576239516003000,5.088003173828125,0.013605916026234626,0.0047518707022070885,0.036460721912980075
1768576239526003200,5.098003173828125,0.03420446741878986,0.013332725108042358,0.005301613539457321
1768576239536002000,5.108001953125,0.0650508200487122,-0.02942333408948034,0.0073988780796527855
1768576239546002000,5.118001953125,0.05545355514194816,-0.042069355574995276,0.011903203761577606
1768576239556001800,5.128001708984375,0.021333879929780957,-0.03006137626469135,-0.0011006547182798386
1768576239566002200,5.138002197265625,0.03412380339801311,-0.020183431253023444,-0.002294248417019844
1768576239576001000,5.1480009765625,0.05890928508639335,-0.027052622902765867,0.047838440495729447
1768576239586001000,5.1580009765625,0.0367606181750074,-0.035609219650179144,0.06237199276089668
1768576239596001000,5.1680009765625,0.006270166310667991,-0.012520495409704744,0.06284428644776344
1768576239606001000,5.1780009765625,0.020258359652757643,-0.019879991327039895,0.0971533832848072
1768576239616000000,5.188,0.0018798223972320556,0.011173720443248748,0.06341536433398723
1768576239626000000,5.197999755859375,-0.023846739533543587,0.018477942509390412,0.028951369196176528
1768576239636000000,5.208,-0.01883329528570175,0.02461692018844187,0.005266542226076126
1768576239645999900,5.217999755859375,0.010035656324028969,0.019969496241398155,-0.03295183700919151
1768576239655999000,5.2279990234375,-0.005735328781604767,0.005064151521772146,-0.038439913031458856
1768576239665998800,5.237998779296875,0.0071709876079112285,0.001368438808992505,-0.00956979237794876
1768576239675999000,5.2479990234375,0.02848550525009632,0.0026091595850884913,-0.006619125878810883
1768576239685998800,5.257998779296875,0.02207910880651325,0.009265840995311737,-0.0021937106519937513
1768576239695998000,5.267998046875,0.0310918883562088,-0.015873787892982362,0.00433656789958477
1768576239705997800,5.277997802734375,-0.035198739153146745,-0.004641944054327905,0.010587444987893104
1768576239715998000,5.287998046875,-0.04289806148409843,0.02451820905432105,-0.0018558569997549055
1768576239725997800,5.297997802734375,-0.017840192595124243,0.04692600182592869,0.012953589597344398
1768576239735997000,5.307996826171875,-0.000021627309918403625,0.06422375810742378,0.00355447761118412
1768576239745997000,5.3179970703125,-0.027440307046100496,0.05001333684939891,-0.012121230426430702
1768576239755997000,5.327996826171875,-0.01902326489984989,0.034396227131225164,-0.020917700344324112
1768576239765997000,5.3379970703125,0.007017185285687446,0.028471842050924897,0.015460019460320471
1768576239775996000,5.347995849609375,0.03081544603500515,0.010726342001929878,0.03296294292509556
1768576239785996000,5.35799609375,0.047266266630962485,-0.014905198589153587,0.047453240570425985
1768576239795996000,5.367995849609375,0.03249707897901535,-0.029383403937891125,0.06387947471439838
1768576239805996000,5.37799609375,0.014329554125666617,-0.012768807614967227,0.04484744198620319
1768576239815995000,5.387994873046875,0.03395136944055557,-0.054708435863070184,0.03720131114721298
1768576239825995000,5.3979951171875,0.023377331923507154,-0.06293119754623622,0.04258300418555736
1768576239835995000,5.407994873046875,-0.011318718404509126,-0.04549322907645255,0.046917818519473076
1768576239845994000,5.417993896484375,-0.029670331120491025,-0.006636953796446323,0.008308394140005112
1768576239855994000,5.427994140625,-0.0023094459861516953,0.04884834819063544,-0.026112346377968786
1768576239865994000,5.437993896484375,0.010350713622570036,0.04559420523289591,-0.027018939828872678
1768576239875993900,5.447993896484375,0.01832589375283569,0.0329173136850819,-0.007275543960928917
1768576239885993000,5.457992919921875,0.04276303692758083,0.015291129166819155,0.0016997896552085876
1768576239895993000,5.4679931640625,0.030825930896401402,-0.000721994131617248,0.01621522174179554
1768576239905993000,5.477992919921875,0.03546466008033603,0.001624897788092494,0.03074234426617622
1768576239915993000,5.4879931640625,0.010946962482668458,-0.022031433739885687,0.04286941991150379
1768576239925992000,5.497991943359375,-0.0063385553717613214,-0.022918153446540235,0.03239771025776863
1768576239935992000,5.507991943359375,0.006238054139353334,-0.03284384659007192,0.028967151287198064
1768576239945992000,5.517991943359375,0.018017266195081174,-0.023931677870638667,0.03915069164931774
1768576239955992000,5.527991943359375,0.013021978658437728,-0.020635047478042543,0.0002484218031167984
1768576239965991000,5.537990966796875,-0.00552080924808979,-0.02051507436018437,-0.003922726401686668
1768576239975991000,5.547990966796875,0.030085962716676292,-0.02037533709593117,-0.0030009353816509246
1768576239985991000,5.557990966796875,0.009112696260213852,-0.010129289424233138,-0.010469371566176415
1768576239995991000,5.567990966796875,-0.0038397242933511733,0.017917787875980137,0.0015197569131851195
1768576240005990100,5.577990234375,-0.018889957376383243,0.024632556148990986,0.01799509089589119
1768576240015990500,5.587990478515625,-0.03875380128622055,0.025507402754761276,0.027735563665628432
1768576240025990400,5.597990478515625,-0.04029690254237502,0.015396964161470532,0.035680385190248486
1768576240035990500,5.607990478515625,-0.04189440086688846,0.005672821472026407,0.025064883151650428
1768576240045989600,5.61798974609375,-0.01836801586151123,0.004211370617337525,0.004431260445713996
1768576240055989500,5.627989501953125,0.005135024800896644,0.007173069967143237,0.003090367230772972
1768576240065989400,5.6379892578125,-0.007727963903546333,0.005792648459412157,-0.00784136115014553
1768576240075989500,5.647989501953125,-0.0043698491146788,-0.011106463893316685,0.010982581785321235
1768576240085988600,5.657988525390625,-0.00554882976617664,-0.01648654949646443,0.029966683718562124
1768576240095988500,5.667988525390625,0.008065233033895492,-0.0002918225534260273,0.03146305975615978
1768576240105988600,5.677988525390625,-0.008702325361035764,-0.016258001437596977,0.017846622335910795
1768576240115988500,5.687988525390625,-0.020005261674523354,-0.0046929801218211645,0.018136545193195342
1768576240125987600,5.697987548828125,-0.008683620660565793,0.0007770853197202086,0.0187222361266613
1768576240135987500,5.707987548828125,-0.024563363370299338,0.005013517313078046,0.00745966835618019
1768576240145987600,5.717987548828125,-0.048310186193324625,0.0023550021609291434,-0.0011129296779632568
1768576240155987500,5.727987548828125,-0.053314241558313366,0.005428162528574467,0.004227846828103066
1768576240165986600,5.737986572265625,-0.01936466221604496,0.02116747385431081,0.009425999993085861
1768576240175986400,5.747986328125,0.052204819011688226,0.015399338781647382,0.04755611642301082
1768576240185986600,5.757986572265625,0.0844528916656971,0.007317666069604456,0.07209960604906082
1768576240195986400,5.767986328125,0.012007285190559923,-0.008357895837537944,0.08437690382003783
1768576240205985500,5.777985595703125,-0.00496372335460037,-0.018751937145181,0.060005848151445385
1768576240215985700,5.787985595703125,-0.016463022490404544,-0.00787990306224674,0.05213350734114647
1768576240225985500,5.797985595703125,-0.010746434941887855,-0.008468480072543024,-0.00990530794262886
1768576240235985400,5.8079853515625,0.009360497008822858,-0.02942819292768836,0.01529459976553917
1768576240245984500,5.817984619140625,0.03167403562571853,-0.006755465609580278,0.029417233142256735
1768576240255984600,5.827984619140625,0.03822480897605419,0.013852803459390998,0.025282909816503524
1768576240265984500,5.837984619140625,0.015849859028123317,0.02226995520349592,-0.001457213070988655
1768576240275984600,5.847984619140625,0.012766506060026585,0.029765169797092674,-0.004271101447939872
1768576240285983500,5.8579833984375,0.012035305708646773,0.013027422018535434,0.010244330638647079
1768576240295983600,5.867983642578125,0.034888979084230956,-0.00039035102445632216,0.016990882289409637
1768576240305983500,5.8779833984375,0.03185531047675758,-0.020924678074382246,0.0023497779965400696
1768576240315983600,5.887983642578125,0.00513681489918381,-0.02504504594001919,-0.008119593569636345
1768576240325982500,5.897982421875,0.050038617421127855,0.002351495029591024,0.01716974598765373
1768576240335982600,5.907982666015625,0.08236731756329536,-0.004623823875747621,0.03486380811035633
1768576240345982500,5.917982421875,0.05933010431434959,-0.001070442243106663,0.025966800427436827
1768576240355982600,5.927982666015625,0.028591961299255488,0.00012004618309438228,-0.014913491493463516
1768576240365981700,5.937981689453125,0.03736439275443554,0.0006312105756253004,-0.00564063623547554
1768576240375981600,5.947981689453125,0.02288052484989166,-0.029736089833080768,-0.0047381344377994536
1768576240385981400,5.9579814453125,0.01427873725388199,-0.01949037095494568,0.007550853770971298
1768576240395981600,5.967981689453125,-0.009608955344557761,-0.006597023644857108,0.004118541234731674
1768576240405980700,5.977980712890625,-0.010807773207686841,0.0015947583781555294,0.012175006440281867
1768576240415980500,5.98798046875,-0.019171148937940596,0.012841324861906468,0.008549801680445671
1768576240425980700,5.997980712890625,-0.02820836880914867,-0.0192366519222036,0.023309563916921613
1768576240435980500,6.00798046875,-0.07627364033069461,0.002092734495550394,0.0010819500178098679
1768576240445979600,6.017979736328125,-0.05338621081598103,0.007130363336578011,-0.03808803085386753
1768576240455979500,6.0279794921875,-0.03560498186647892,0.009084785339981317,-0.01445931798517704
1768576240465979600,6.037979736328125,-0.07711604597158729,0.025313816411420702,0.002094341930747032
1768576240475979500,6.0479794921875,-0.05730181335713714,0.04712112253922969,0.04929623808860779
1768576240485978600,6.057978515625,-0.0022392668267711994,0.056462622586637735,0.07719605240523815
1768576240495978500,6.067978515625,0.003062346712686121,0.04571779507994651,0.06875029562115668
1768576240505978600,6.077978515625,-0.010063092320226133,0.03446896357387304,0.0537310056656599
1768576240515978500,6.087978515625,0.01217091478705406,0.0037295053845271464,0.0014671499431133269
1768576240525977600,6.0979775390625,0.016667641684412954,-0.02190846494734287,-0.002467266896367073
1768576240535977700,6.107977783203125,-0.005129106516763567,-0.03179393567834049,0.005117489144206047
1768576240545977600,6.1179775390625,0.035651159095764155,-0.02035224848128855,0.008973580050468444
1768576240555977500,6.1279775390625,0.024348880369402467,0.00003766512926667928,0.003714636608958244
1768576240565976600,6.1379765625,0.005737155412510037,0.02147869522795081,0.025241993284225463
1768576240575976700,6.147976806640625,0.016391747352480886,0.010730981644429266,0.04782032031714916
1768576240585976600,6.1579765625,0.023900004090741275,0.006812712222151458,0.02953764465153217
1768576240595976700,6.167976806640625,0.0032078561305999755,0.0004424100052565336,0.03339607364535332
1768576240605975600,6.1779755859375,-0.0001403583187609911,0.024764731161296367,-0.01451367852091789
1768576240615975700,6.1879755859375,0.02298226819131523,0.027995347112976014,-0.014539982005953788
1768576240625975600,6.1979755859375,0.04773030394613743,0.034311106131039555,0.009692541974782943
1768576240635975700,6.2079755859375,0.040643560555577274,0.026328765607625246,-0.012298925080895423
1768576240645974300,6.217974365234375,0.024711247408390043,0.03613813889510929,0.01495382350385189
1768576240655974700,6.227974609375,0.010478760449029505,0.020611520471982656,0.027541502398252486
1768576240665974500,6.237974609375,0.04337437375895679,-0.00540624295771122,0.013814005818963051
1768576240675974700,6.247974609375,0.05542904175519943,-0.006207001413963735,0.0378103829562664
1768576240685973500,6.257973388671875,0.03843118173573166,-0.027788389831408855,0.04967208566367626
1768576240695973400,6.267973388671875,0.023741562126018106,-0.019494754869118332,0.05357376927733421
1768576240705973500,6.277973388671875,0.011787541492655873,-0.019535963662341237,0.05103928236365318
1768576240715973600,6.2879736328125,0.01666179646551609,-0.01770772532187402,0.06243512112498283
1768576240725972500,6.297972412109375,-0.014341829085350036,0.002841360905766487,0.04675064525902271
1768576240735972400,6.307972412109375,0.03926233533024788,-0.01607738417368382,0.00576046322286129
1768576240745972700,6.31797265625,0.03736322371065617,0.025892127756029365,0.04201192629933357
1768576240755972600,6.32797265625,0.04646357194595039,-0.02053673820272088,0.028889994397759435
1768576240765971500,6.337971435546875,0.0692378234097734,-0.0054395241728052495,-0.031706805384159084
1768576240775971300,6.347971435546875,0.06106737643573433,0.034515359998866915,-0.03111410018801689
1768576240785971500,6.357971435546875,0.02401340133734047,0.009573664835467934,0.0008972411006689071
1768576240795971600,6.3679716796875,0.011171966877579688,0.02252919066157192,0.026915479454398154
1768576240805970400,6.377970458984375,-0.004048398607969284,0.03025901772864163,0.028691841477155682
1768576240815970300,6.38797021484375,0.0360457113713026,0.01157426406815648,0.017607552883028982
1768576240825970400,6.397970458984375,0.03655252838227898,0.014064290785603225,0.020901918253302572
1768576240835970300,6.40797021484375,0.020524353645183145,0.008701704306527972,0.028086861321330068
1768576240845969400,6.417969482421875,0.04726447653267532,0.013042400391958654,0.04470364960134029
1768576240855969500,6.427969482421875,0.0379933383077383,0.010351882666349411,0.026615035203099248
1768576240865969400,6.437969482421875,0.0579712005186826,0.004936798815056681,0.0061561845421791075
1768576240875969500,6.447969482421875,0.05586279352996498,0.005103058760054409,-0.007706336593627929
1768576240885968400,6.457968505859375,0.0370961337396875,-0.011948467675410211,0.011791560080647467
1768576240895968500,6.467968505859375,0.022296624014712867,-0.0008317381164059043,0.004494388809800148
1768576240905968400,6.477968505859375,-0.011848185638710856,0.00707655079010874,0.003162263423204422
1768576240915968500,6.487968505859375,-0.024233108502626416,0.029945129473879933,0.012898060017824172
1768576240925967400,6.49796728515625,0.012700491619110106,0.02858480090610683,0.010061375287175179
1768576240935967500,6.507967529296875,0.03949146791100502,0.028440095205791292,0.01859013417959213
1768576240945967400,6.51796728515625,0.03136719816625118,-0.009694514736160635,-0.00042553193569183347
1768576240955967500,6.527967529296875,0.05065408243834972,-0.025783004825748503,0.004040799823403358
1768576240965966300,6.53796630859375,0.06502974072806537,-0.03846800661478191,0.023494272834062576
1768576240975966500,6.547966552734375,0.02924479918479919,-0.050643524511717254,0.04265723846554756
1768576240985966300,6.55796630859375,0.004033785560727119,-0.023790187040716407,0.03129880910515785
1768576240995965400,6.56796533203125,0.0045901773344725364,-0.003629296413064003,0.07069441542625426
1768576241005965600,6.577965576171875,-0.01570606664326042,-0.0017395006110891699,0.06849369051158428
1768576241015964700,6.587964599609375,-0.01686696364879608,0.025414682970009744,0.008052373552322387
1768576241025964800,6.59796484375,-0.01103453116826713,0.03493336621522903,0.003118424281477928
1768576241035964700,6.607964599609375,-0.0012689604898914694,0.046975357392989095,-0.018880641558766363
1768576241045963500,6.617963623046875,0.018045980832912027,0.040658064004965126,-0.00706102442741394
1768576241055963600,6.627963623046875,0.020173640511371195,0.03800225226655602,-0.011534370449185372
1768576241065963800,6.6379638671875,0.01268883771393448,0.04792852993197739,0.006893851166963577
1768576241075963600,6.647963623046875,0.02008362414035946,0.027719708509370684,0.024723522368073462
1768576241085962500,6.65796240234375,-0.00471475356221199,0.014762063791416584,0.034010406151413916
1768576241095962600,6.667962646484375,0.0022030630022287366,0.0023377952978014946,0.05361819294095039
1768576241105962800,6.677962646484375,-0.006355506506562233,-0.01219973902273923,0.060063131296634674
1768576241115962600,6.687962646484375,-0.0068967737764120095,-0.010557670904137194,0.04916238257586956
1768576241125961500,6.69796142578125,-0.0031639439236372706,-0.016869959323480725,0.01702478455901146
1768576241135961600,6.707961669921875,0.007100187394022941,-0.011577332808077335,-0.0013508300870656966
1768576241145961500,6.71796142578125,0.0029757278751581908,-0.004281257515773177,-0.016147417202591895
1768576241155961900,6.7279619140625,0.007466609553620219,0.008924918603152036,0.008394318857789039
1768576241165960400,6.73796044921875,0.01447802268564701,0.0073777256937697525,0.01661386567056179
1768576241175960600,6.747960693359375,0.00942943405918777,-0.0006651128452271223,0.029605449190735815
1768576241185960400,6.75796044921875,0.022295418438315392,-0.004989003926329314,0.04245090223848819
1768576241195960600,6.767960693359375,0.013558569753170012,-0.016239369802363218,0.06683598643243313
1768576241205959700,6.777959716796875,0.008856602607294917,-0.011998626960068941,0.04590834921598434
1768576241215959600,6.78795947265625,-0.019005729243159294,-0.0033838702846318482,0.024093407770991324
1768576241225959400,6.79795947265625,0.002525061498209834,0.014876557016558944,0.04374152657091617
1768576241235959600,6.80795947265625,-0.00732639736533165,-0.0045713630361482495,0.012522212442755698
1768576241245958700,6.817958740234375,-0.020402152037620542,0.015014138856343924,0.012437456768751144
1768576241255958500,6.82795849609375,-0.0088227368703112,0.011645575738698243,0.01191430967748165
1768576241265958700,6.837958740234375,0.023021979147195816,0.01560461556278169,0.04492635244131088
1768576241275958500,6.84795849609375,0.009283961173892021,-0.027973135281167922,0.06880874781012535
1768576241285957600,6.85795751953125,0.017389526218175886,-0.010560520448349415,-0.003982932156324386
1768576241295957500,6.86795751953125,-0.009420739296078682,0.010088044098392129,0.05057575650513172
1768576241305957600,6.87795751953125,-0.023787081768177447,0.02089136032667011,0.025517303094267845
1768576241315957500,6.88795751953125,-0.04246836482994258,0.03155775230228901,-0.00583235941529274
1768576241325956600,6.89795654296875,-0.03769399003498256,0.036354631190001964,0.015046762484312057
1768576241335956500,6.90795654296875,-0.009684358668327332,0.06707333885226398,0.007356792503595352
1768576241345956600,6.91795654296875,-0.045046763950586315,0.04487473185192793,-0.03221417038440704
1768576241355956500,6.92795654296875,-0.06314421924240887,0.052745794020593165,-0.030191140124201772
1768576241365955600,6.93795556640625,-0.040223837306164203,0.04670410270355642,-0.010825345396995544
1768576241375955500,6.94795556640625,-0.059590801077149806,0.04232011546567082,0.01869534811973572
1768576241385955600,6.95795556640625,-0.02866385749168694,0.031617337002418935,0.01976093152463436
1768576241395955500,6.96795556640625,0.01851999155282974,0.0028872458741068838,0.043887657043337816
1768576241405954600,6.97795458984375,-0.004514920141175389,-0.004626198495924472,0.0472130020737648
1768576241415954700,6.98795458984375,-0.011786883905529975,0.0045473976386711,0.05051262814104557
1768576241425954600,6.99795458984375,0.026577041280269623,-0.004594195922464132,0.04319324503839016
1768576241435954700,7.00795458984375,0.019179843701049686,0.003448496486060321,0.031259061616659166
1768576241445953500,7.01795361328125,0.01655194288287312,-0.006212517839297652,0.013050035709142684
1768576241455953700,7.02795361328125,0.044136736433580515,-0.015669205231592057,0.01101765309870243
1768576241465953500,7.03795361328125,0.011962861526943742,-0.022315840171836316,0.003450432714819908
1768576241475953700,7.04795361328125,0.011729016238451004,-0.025412344882450998,-0.005053776258230209
1768576241485952500,7.057952392578125,0.04134147969186306,-0.0004209288258105516,0.019371639946103095
1768576241495952600,7.06795263671875,0.0250046043317765,-0.002407463000528514,0.019254735568165777
1768576241505952500,7.077952392578125,0.00028707331307232376,-0.006228299930319189,0.023750877943634986
1768576241515952600,7.08795263671875,0.007936053696274757,-0.008758147201500832,0.0631207653015852
1768576241525951700,7.09795166015625,0.018507205136492847,-0.014056545870564877,0.06976736370921134
1768576241535951600,7.10795166015625,0.06595401596613228,-0.0006477963842451572,0.027045827835798262
1768576241545951500,7.117951416015625,0.05701017346680164,0.018892112800851464,-0.0038601825594902035
1768576241555951600,7.12795166015625,0.02155775181353092,0.0058925651699304575,-0.021750644037127495
1768576241565950700,7.13795068359375,-0.019836919370293617,0.031788163524679836,-0.05971241816282272
1768576241575950600,7.14795068359375,-0.013836802172660827,0.047581287396885455,-0.03336100233197212
1768576241585950700,7.15795068359375,0.0058902270823717115,0.03041837300881743,0.00449906498491764
1768576241595950600,7.16795068359375,-0.010236220397427678,0.039026115421578286,0.0462456183463335
1768576241605949700,7.17794970703125,-0.00553012506570667,0.05156809201072901,0.051498716568946834
1768576241615949600,7.187949462890625,-0.025231471890211105,0.04337342391088605,0.0629115064650774
1768576241625949700,7.19794970703125,-0.0779605705043301,0.03151679923739284,0.03615793957412243
1768576241635949600,7.207949462890625,-0.0681224825790152,0.02189637265074998,0.005523147335648537
1768576241645948700,7.21794873046875,-0.03813011642992496,-0.0013182429917156695,-0.009705985978245735
1768576241655948500,7.227948486328125,-0.015062617640569806,0.01504004048258066,-0.004455810365080833
1768576241665948700,7.23794873046875,0.023265140253305432,0.014305954054370521,0.018891162952780722
1768576241675948500,7.247948486328125,0.016727335982397198,0.00001603781934827566,0.02069382846057415
1768576241685947600,7.25794775390625,0.030277685896493493,0.004119673745892942,0.035066637206077576
1768576241695947500,7.267947509765625,0.01932670482583344,-0.003699329441972077,0.05110241072773933
1768576241705947600,7.27794775390625,-0.0008071516644209622,-0.0005993541326373815,0.015226210704445837
1768576241715947500,7.287947509765625,0.021098938662745058,-0.0038968247754499314,0.022895722419023514
1768576241725946600,7.297946533203125,0.014776713371276855,-0.0013541180226951837,0.011855272966623306
1768576241735946800,7.30794677734375,0.013846739044785498,0.012818747703917324,0.003799392282962799
1768576241745946600,7.317946533203125,0.023005028012394905,0.009791910696029662,0.0002215337961912155
1768576241755946800,7.32794677734375,0.011416881549358368,0.0019959961228072642,0.011297054561972617
1768576241765946600,7.337946533203125,0.010633622217178344,-0.004757131399214267,0.015640052202343938
1768576241775945700,7.34794580078125,0.008265066454932093,-0.007473733414150774,0.034359365719556806
1768576241785945600,7.357945556640625,0.042350948995351786,-0.0010587518053129315,0.03663958561122417
1768576241795945700,7.36794580078125,0.023915749649144707,0.0015999094773083925,0.0365641822874546
1768576241805945600,7.377945556640625,0.005054981834627687,0.022966632230766115,-0.02664718390703201
1768576241815944700,7.38794482421875,0.028980047301389276,0.008636676246300339,0.0017079729616641998
1768576241825944600,7.397944580078125,-0.008133585562370716,0.0008682707345113158,0.0066793316334486
1768576241835944700,7.40794482421875,-0.00951835445165634,0.01154233455993235,0.010278817430138587
1768576241845944600,7.417944580078125,-0.007502996041253209,0.003390519221127033,0.013128361642360687
1768576241855943700,7.427943603515625,-0.006862834974192083,0.010310418144799768,0.017325813332200048
1768576241865943600,7.437943603515625,0.009052563570812343,0.014328933071158826,0.008783610436320304
1768576241875943700,7.447943603515625,0.03811206931658089,-0.00219181095585227,0.019133155015110967
1768576241885943600,7.457943603515625,0.026031718889810145,-0.01198876315318048,0.04041793510615825
1768576241895942700,7.467942626953125,-0.0157808854451403,-0.04360591749250889,0.03477612982690334
1768576241905942800,7.47794287109375,-0.03111234662234783,-0.0446483392175287,0.0014309095859527587
1768576241915942700,7.487942626953125,0.005721336788870394,-0.02493332919385284,0.04003215065896511
1768576241925942800,7.49794287109375,0.004141374121047556,-0.025814057551138102,0.007986322578787803
1768576241935941600,7.507941650390625,0.006875146466493606,-0.01092800205387175,-0.010170096358656882
1768576241945941800,7.517941650390625,0.0029372590282931922,0.0014457783615216611,-0.0017003741770982741
1768576241955941600,7.527941650390625,-0.00705751729607582,-0.004610562535375356,0.01918283937573433
1768576241965941800,7.537941650390625,-0.003774257841706276,0.0077229589348658916,0.016270751321315766
1768576241975940600,7.547940673828125,0.013287863053008914,0.021853848683275282,0.008736848685145378
1768576241985940700,7.557940673828125,0.0058913961261510845,0.04075973428115248,0.00883563288450241
1768576241995940600,7.567940673828125,0.00842997469305992,0.04568827672451734,0.005927636483311653
1768576242005940700,7.577940673828125,0.033332945281267165,0.041075266503728926,0.03339958077669143
1768576242015940400,7.5879404296875,0.016583397467061875,0.026534261584468186,0.026309914776682854
1768576242025940500,7.5979404296875,-0.008584946059063077,0.019895846483297643,0.031627894929051395
1768576242035940400,7.6079404296875,0.018543299363180995,-0.009315561888553201,0.03274491626024246
1768576242045940500,7.6179404296875,-0.019278189508989452,-0.0022205621263012287,0.01903729342520237
1768576242055939300,7.627939208984375,-0.010823664896562694,-0.007050649163872003,0.009210311415791511
1768576242065939500,7.637939453125,0.008915054796263575,-0.003546842294000089,0.02167231810390949
1768576242075939300,7.647939208984375,-0.02030391582753509,-0.00502948206719011,0.01916004302203655
1768576242085939500,7.657939453125,-0.0021545476853847504,-0.014291231409274041,0.026669980260729788
1768576242095938600,7.6679384765625,-0.001979848705604672,-0.007185454524680971,0.016831892335414884
1768576242105938400,7.6779384765625,-0.002341667755320668,0.0146230937121436,-0.0026969839990139007
1768576242115938300,7.687938232421875,-0.01648066774494946,0.01902757574878633,-0.0024620061993598937
1768576242125938400,7.6979384765625,-0.029409634357690808,-0.010535312941856681,0.00421674091219902
1768576242135937500,7.7079375,0.03261391029171645,-0.0027019159024581313,0.022739070552587507
1768576242145937400,7.7179375,0.0019387860428541897,-0.014942206131294369,0.022402385944128037
1768576242155937500,7.7279375,-0.02728906200714409,-0.03183846893981099,0.020557634860277174
1768576242165937400,7.7379375,-0.04915766986813396,-0.015287877763807772,0.026019991919398307
1768576242175936500,7.7479365234375,-0.04929448452293873,-0.007043817564286291,-0.0025105215162038804
1768576242185936400,7.757936279296875,-0.011460720691084862,0.007335968911275267,0.006074935999512672
1768576242195936500,7.7679365234375,-0.017241605647467077,-0.0038978111561387774,0.034273441001772875
1768576242205936400,7.777936279296875,-0.018164602243900298,0.02192559874523431,0.0005453589230775832
1768576242215935500,7.787935546875,0.029449381846189497,0.008160217840969562,0.010203998628258704
1768576242225935400,7.797935302734375,0.02269406236708164,0.0002659209271892905,0.014625906723737717
1768576242235935500,7.807935546875,0.00572718200776726,-0.013902487820014357,0.003335281902551651
1768576242245935400,7.817935302734375,-0.026970424512028694,-0.018372107514739035,-0.0016729016482830046
1768576242255935500,7.827935546875,-0.009048362319730222,-0.017072167364694177,0.012620412120223044
1768576242265934600,7.8379345703125,0.04000705275032669,-0.04513517288640141,0.03677987086474895
1768576242275934500,7.8479345703125,0.008706380481645465,-0.048414706013724204,0.06424947707057
1768576242285934300,7.857934326171875,-0.0021691607326269147,-0.036916100997664035,0.08232347842156887
1768576242295934500,7.8679345703125,0.05224632006585598,-0.034969058583118016,0.10837094286978244
1768576242305933600,7.87793359375,0.03842296189665794,-0.03890139306336641,0.0804267048895359
1768576242315933400,7.887933349609375,0.02454407414793968,-0.016688501809351147,0.04080722668468952
1768576242325933600,7.89793359375,-0.02476326985657215,0.0024728198543190953,0.043400165787339205
1768576242335933400,7.907933349609375,-0.06146302468981593,0.023710217139683663,0.015468202766776084
1768576242345932500,7.9179326171875,-0.024801775236055253,0.027837672333233057,-0.0034931028127670287
1768576242355932400,7.927932373046875,0.002403006021119654,0.034077845364436504,-0.03353635889887809
1768576242365932500,7.9379326171875,-0.02230535531044006,0.012634988634847103,-0.037414661636948586
1768576242375932400,7.947932373046875,-0.009642784548923373,0.01249919689334929,-0.04265490037798881
1768576242385931500,7.957931640625,-0.0005208090037107468,0.012253843830153346,-0.021876900765299797
1768576242395931400,7.967931396484375,-0.0028952099848538635,0.004670001105032861,-0.02640752993226051
1768576242405931500,7.977931640625,0.009808788765594363,-0.004055887794680893,0.001974514943361282
1768576242415931400,7.987931396484375,-0.005631247352622449,0.006173537535779178,0.00386252064704895
1768576242426555400,7.998555419921875,-0.02509352472424507,-0.004940086750686168,0.03147708828151226
1768576242436555300,8.00855517578125,-0.03522266801800578,-0.008809694725647568,0.038732173976302145
1768576242446555400,8.018555419921874,0.00911795695722103,-0.018820910728164015,0.05529401719868183
1768576242456555300,8.02855517578125,0.0301420402854681,-0.0008715952027589083,0.06441138963401317
1768576242466554400,8.038554443359375,0.04078388234172016,-0.012099530051276087,0.029561025527119634
1768576242476554500,8.048554443359375,0.04552782546579837,-0.0065931511873379344,0.011937106031179428
1768576242486554400,8.058554443359375,0.026384733578562736,-0.007258373630419373,0.016160861206054686
1768576242496554500,8.068554443359375,0.02239716177973896,-0.010684658284671604,-0.001477086815237999
1768576242506554400,8.078554443359375,-0.0004003609618172049,0.0018562223259359597,-0.01687865408658981
1768576242516553500,8.088553466796874,0.02250705189500004,-0.024469255346059798,-0.015252514189481734
1768576242526553300,8.09855322265625,0.02829845824539661,-0.005638225082680583,-0.0009118541479110718
1768576242536553500,8.108553466796875,0.045814314256981015,-0.011730112216994165,0.011779869642853736
1768576242546553300,8.11855322265625,0.021866379371285438,-0.010863777711242436,0.023269816428422928
1768576242556552400,8.128552490234375,0.01556815600991249,-0.010059913982450961,0.030431963142752646
1768576242566552300,8.13855224609375,0.008668386558815836,-0.0040021848460659384,0.03850888661444187
1768576242576552400,8.148552490234374,0.01807860446088016,0.0023229630548506973,0.04061316541731357
1768576242586552300,8.15855224609375,0.025623613012954592,0.008797858157381416,0.026562428233027457
1768576242596551400,8.168551513671876,0.020069559082388878,0.04530917774643749,0.024924597898125646
1768576242606551300,8.17855126953125,0.02900214953534305,0.06890734934639185,0.021945289826393127
1768576242616551400,8.188551513671875,-0.0030512042641639707,0.04507854732833803,0.03319675168097019
1768576242626551300,8.19855126953125,-0.03950140478312969,0.03041471974700689,0.033679566761851305
1768576242636550400,8.20855029296875,-0.03333758492376655,0.01004383963048458,0.019652210453152654
1768576242646550500,8.218550537109374,-0.02824760484099388,-0.01484418911691755,0.00861468361020088
1768576242656550400,8.22855029296875,-0.004807656010054052,-0.006401574137993156,0.013598317241668701
1768576242666550300,8.23855029296875,0.014132570248842239,-0.002456599371880293,0.01887421181797981
1768576242676549400,8.24854931640625,0.000284698692895472,0.0144536554293707,0.01530278307199478
1768576242686549500,8.258549560546875,-0.001484649067185819,0.014525405491329729,0.0096247374355793
1768576242696549400,8.26854931640625,-0.004207388561964035,0.022926117557287216,0.03208031487166881
1768576242706549500,8.278549560546875,-0.010347206491231917,0.011301073149964213,0.01758592557311058
1768576242716548400,8.28854833984375,-0.01143613423909992,0.018019896543584765,0.005787351229786872
1768576242726548500,8.298548583984376,-0.01964804573468864,0.01168166996538639,0.0005810147583484649
1768576242736548400,8.30854833984375,-0.008418211190029978,0.019488982715457678,0.0053892918229103085
1768576242746548500,8.318548583984375,-0.003950198930501938,0.025928952635079622,0.008249357429146766
1768576242756547300,8.32854736328125,-0.015761596222780644,0.02828168977368623,0.0018231237739324568
1768576242766547500,8.33854736328125,-0.001912519090436399,0.012337393927760421,0.022618659043312072
1768576242776547300,8.34854736328125,-0.005165419939160347,0.012517645865492522,0.011381225714087485
1768576242786547500,8.35854736328125,-0.02778407898247242,0.028454160263761876,-0.000443067592382431
1768576242796547300,8.36854736328125,0.005997815642692149,0.02931702417079359,0.018553309300541877
1768576242806546400,8.37854638671875,0.02371350507531315,0.023353329993411897,0.03068915277421474
1768576242817171500,8.38917138671875,0.02178052771873772,0.005544153591059148,0.025164251872897146
1768576242827171300,8.39917138671875,0.011187748968601226,0.010433386937342583,0.0347515799075365
1768576242837170400,8.40917041015625,0.015603848377801478,0.005594678201898932,0.004994739547371864
1768576242847170300,8.41917041015625,0.017834931898117065,0.0026816402994096276,0.01818330694437027
1768576242857170400,8.42917041015625,0.0028659838903695345,0.01980951990671456,0.008933832561969756
1768576242867170300,8.43917041015625,0.003633388066291809,0.0022450389804318546,0.014353519523143768
1768576242877170400,8.44917041015625,0.007514028891921043,0.004448175047896802,-0.0028600656062364575
1768576242887169300,8.459169189453124,0.028463804874941705,0.014175934466533362,0.025996026521921158
1768576242897169400,8.46916943359375,0.03172551008462906,0.008906506163626909,0.018507716593146324
1768576242907169300,8.479169189453126,0.012505297840572893,0.028601313649490475,0.02300385896861553
1768576242917169400,8.48916943359375,-0.016252046620845794,0.009930442383885383,0.038869536620378495
1768576242927168300,8.499168212890625,-0.02775602193176746,-0.01742558391224593,0.024486791002750394
1768576242937168400,8.50916845703125,-0.013417699977755547,-0.009881927067041397,0.015191139391064644
1768576242947168300,8.519168212890625,0.053417117410898204,-0.01643281001523137,0.012205986100435256
1768576242957168400,8.52916845703125,0.0586463233012706,-0.003990165614709258,0.011774608945846556
1768576242967167500,8.53916748046875,0.011343889378383754,0.006338080447725951,0.013877718704938887
1768576242977167400,8.54916748046875,-0.018779519271850585,0.018027093469351527,0.01417524034678936
1768576242987167200,8.559167236328125,-0.02321077971756458,-0.00017831570897251366,0.015653496205806732
1768576242997167400,8.56916748046875,-0.00811206785030663,-0.029367329585924744,0.022509937971830367
1768576243007167200,8.579167236328125,-0.004630582410097122,-0.02980699964482337,0.02637538122832775
1768576243017166300,8.589166259765625,0.011658873611688613,-0.03089779055621475,0.016350830820202826
1768576243027166500,8.59916650390625,0.060678048324584954,-0.010529759983904659,0.02924538370668888
1768576243037166300,8.609166259765624,0.03303432766087353,0.00911971052289009,0.01341185475885868
1768576243047166500,8.61916650390625,0.011101933848671615,0.010475180252455174,0.005958031621575355
1768576243057165000,8.6291650390625,-0.02268522147350013,0.010939729024283588,0.03875087867677211
1768576243067165400,8.63916552734375,-0.02856496369447559,0.014940196837298572,0.052233460584282874
1768576243077165300,8.649165283203125,-0.020590368086099622,0.014432283847779035,0.03787877201735973
1768576243087165400,8.65916552734375,-0.03067461279220879,0.011495938134938478,0.03578559913039207
1768576243097165300,8.669165283203125,-0.02627951963841915,0.02696684431545436,0.02204056689441204
1768576243107164400,8.679164306640626,-0.0281680733313784,0.030817637992091477,0.030906594917178152
1768576243117164300,8.689164306640626,0.011259572095796465,0.028607524194568395,0.020184709894657135
1768576243127164400,8.699164306640625,-0.001357259827852249,0.012339622417464852,0.01694528958201408
1768576243137164300,8.709164306640625,-0.007534560223296284,0.006968414240516722,0.006816109755635261
1768576243147163100,8.7191630859375,0.03145195384025574,0.0021487389991059896,0.004929273095726967
1768576243157163300,8.729163330078125,0.016437924581766128,-0.011880115146934985,0.0025765724897384643
1768576243167163400,8.739163330078124,0.009620572717115283,-0.012088424135372042,0.00590250204205513
1768576243177163300,8.749163330078124,-0.0075993325551971785,-0.009276654650270938,0.0343728097230196
1768576243187162000,8.759162109375,-0.021207002147100865,-0.00256155758369714,0.032035891208052635
1768576243197162200,8.769162353515625,-0.04016951330304146,0.010510068902745843,0.03910743702948093
1768576243207162400,8.779162353515625,-0.027771804022789,0.01640836969371885,0.016100655451416968
1768576243217162500,8.78916259765625,-0.0030190555602312087,0.03156926007699221,-0.011997311785817146
1768576243227162400,8.799162353515625,-0.004356989633105695,0.02105082520470023,-0.0007476034969091414
1768576243237161200,8.8091611328125,0.006502258033491671,-0.009885653394088149,-0.005365910947322845
1768576243247161000,8.8191611328125,0.0005400982260704041,0.008121712461486458,-0.004308510848879814
1768576243257161500,8.829161376953126,0.007526888373494148,0.01050093574821949,0.011413374418020247
1768576243267161300,8.839161376953125,-0.01069090536236763,-0.0023777254493907093,0.028185060998797414
1768576243277160200,8.84916015625,-0.00841126999258995,0.0010575096962973476,0.044509003812074656
1768576243287160000,8.85916015625,0.02014437788426876,0.014256269693747162,0.03660568334162235
1768576243297160200,8.86916015625,0.029772622451186177,-0.0027657749189063906,0.029897710135579108
1768576243307160300,8.879160400390624,0.024685601510480045,-0.0015517960192635654,0.02034428437054157
1768576243317160400,8.889160400390624,0.00011463935561478137,-0.0015795608090236782,0.019922259566187858
1768576243327159000,8.899158935546875,0.005912438914179801,-0.009708798989839852,0.014096914413571356
1768576243337159200,8.9091591796875,0.012608648617193102,-0.007845562401227652,0.018587796092033385
1768576243347159000,8.919158935546875,0.009276946911215781,0.013524813614040612,0.013809329643845557
1768576243357159400,8.929159423828125,0.0013894085317850112,0.0050221024783328174,0.015021043521165846
1768576243367158300,8.939158203125,-0.0049765828361734744,-0.014681545901112258,0.0004997662156820296
1768576243377158100,8.949158203125,0.022892215287685393,-0.0003966711673885584,0.0037953006297349926
1768576243387158300,8.959158203125,0.020463599901273846,-0.025885588417388496,0.009033201283216476
1768576243397158100,8.969158203125,0.024203370951488612,-0.030589236063696443,0.015185878694057464
1768576243407158300,8.979158203125,0.026481691147014496,-0.02577778066135943,0.02148059492409229
1768576243417157000,8.9891572265625,0.02940557923708111,-0.028552359941229222,0.018636311408877372
1768576243427157200,8.9991572265625,0.028869536131620407,-0.03336319428905844,0.010992518657445906
1768576243437157000,9.0091572265625,0.052442646355554456,-0.009922368675284086,0.005763970354199409
1768576243447157500,9.019157470703124,0.03440561601407826,0.0024139658065512777,0.016573533660173414
1768576243457156000,9.029156005859376,0.03657937985658646,0.0006731134885922074,0.02107376768887043
1768576243467156200,9.03915625,0.03229008516483009,-0.0013020225092768669,-0.009150105661153794
1768576243477156000,9.049156005859375,0.03386602924466133,0.017758103802241385,0.008648001357913018
1768576243487156200,9.05915625,0.002796864176914096,0.016969766436144708,0.014304419684410095
1768576243497156400,9.06915625,-0.02046761848926544,0.01005132881719619,0.00886485897898674
1768576243507155200,9.0791552734375,-0.01623918713927269,0.002057772780023515,-0.010936989077925681
1768576243517155000,9.089155029296874,-0.0015122311938554048,-0.010904621178284286,-0.006047463470697402
1768576243527155200,9.0991552734375,0.004382197139598429,-0.011081146788969634,-0.0041489363729953765
1768576243537155000,9.109155029296875,0.0055371758610010145,-0.03034855917561799,0.003450432714819908
1768576243547154200,9.119154296875,0.0025368250012397764,-0.015679324766807258,0.009408464336395262
1768576243557154300,9.129154296875,0.014243665940500794,-0.02601294112410396,-0.014110358417034148
1768576243567154200,9.139154296875,0.01881115651912987,0.015064626934565603,0.06126724638938903
1768576243577154000,9.149154052734374,0.025395722541213035,-0.0011532251557335256,0.026092472633719443
1768576243587154200,9.159154296875,-0.030707857474684713,0.0403804526399821,0.005287000492215156
1768576243597153300,9.1691533203125,-0.021667020874284206,0.02653652660679072,0.016358429604768753
1768576243607153200,9.179153076171875,-0.042914428097009655,0.060496554277837275,-0.02241349186003208
1768576243617153300,9.1891533203125,-0.01838496699631214,0.04472823605332523,0.005983750584721565
1768576243627153200,9.199153076171875,0.001720247921347618,0.023310806025937197,0.009682020580768584
1768576243637152300,9.20915234375,-0.010771569383144377,0.019093553657084702,-0.005795534536242485
1768576243647152000,9.219152099609374,0.012332242828607558,-0.009985533571988343,0.01030570543706417
1768576243657152300,9.22915234375,0.02204867713563144,0.004103087937273085,0.05082008665502071
1768576243667152100,9.239152099609376,-0.06615567601807415,-0.004940086750686168,-0.017465514063835143
1768576243677152300,9.24915234375,-0.032932620852068065,-0.013666487107053399,-0.010344868403673171
1768576243687151000,9.259151123046875,-0.05124444954693317,-0.02078760769125074,0.017404723787307737
1768576243697151200,9.269151123046875,-0.03815934252440929,-0.003155285693146288,0.010289338824152946
1768576243707151000,9.279151123046875,-0.0170837847372517,-0.00793809952288866,0.03280629105865955
1768576243717151200,9.289151123046874,-0.011237360263988375,0.005313851966522634,0.0646235710799694
1768576243727150000,9.299150146484376,0.021601042965985834,-0.002057224790751934,0.10231295800507068
1768576243737150200,9.309150146484376,-0.0008042655875906348,0.0178176154371351,0.07718786909878253
1768576243747150000,9.319150146484375,-0.06307396701779217,0.012442352139577268,0.06776771432459354
1768576243757150200,9.329150146484375,-0.038512978267669674,0.025188874857500192,0.07467793210446834
1768576243767150000,9.339150146484375,-0.026011297156289217,0.012283873642235994,0.05977496200501919
1768576243777149200,9.349149169921875,-0.019248890349268914,-0.0007859627459198236,0.05117606048583984
1768576243787149300,9.3591494140625,0.03484861054122448,-0.008198357894271611,0.056069677746295926
1768576243797149200,9.369149169921876,0.0365769687037915,-0.009700542618148029,0.030906010395288466
1768576243807149000,9.379149169921876,0.04093165678195655,-0.007032565517909825,-0.00893500160574913
1768576243817148200,9.389148193359375,0.03822181330136955,0.004177797141298651,-0.003735679396986961
1768576243827148300,9.399148193359375,0.045745194543525575,-0.0133660793883726,-0.013970657685399054
1768576243837148200,9.409148193359375,0.004621303125098348,-0.0017773484034463761,-0.02572013218998909
1768576243847148300,9.419148193359375,0.006606266397237777,0.004742445286735892,-0.030004093119502067
1768576243857148200,9.429148193359374,0.03999415673613548,0.018643398736789822,-0.048803486135601995
1768576243867147300,9.439147216796876,0.0761210435848683,0.03824844557996839,-0.0194324302226305
1768576243877147100,9.449147216796876,0.09211414700858295,0.03272884190827608,0.03342588426172733
1768576243887147300,9.459147216796875,0.09345398077759891,0.022244601566530763,0.03180558958351612
1768576243897147100,9.469147216796875,0.11697276699841022,0.0023284064149484036,0.03226502378880977
1768576243907146200,9.479146240234375,0.10450082343816756,-0.00710712859146297,0.05727671544849872
1768576243917146000,9.48914599609375,0.10627075572013854,-0.01342204735931009,0.07198562428057194
1768576243927146200,9.499146240234374,0.09458678419981151,-0.05618723971135914,0.04284837712347507
1768576243937146000,9.50914599609375,0.0682622563758865,-0.04256846420355141,0.044811201629042625
1768576243947146200,9.519146240234376,-0.014873159483075141,-0.058509325983375306,0.0362637380361557
1768576243957145000,9.52914501953125,-0.012887538623809813,-0.07499061478283256,-0.04700608132481575
1768576243967145200,9.539145263671875,0.01771744299829006,-0.02865096147749573,-0.12716565971076488
1768576243977145000,9.54914501953125,0.000998874844238162,-0.001885631083510816,-0.07999298964738845
1768576243987145200,9.559145263671875,0.022779402562975882,0.03749722535386681,-0.013075754672288893
1768576243997144300,9.569144287109374,0.030310309524461624,0.09290427447296679,-0.01723696600496769
1768576244007144200,9.579144287109376,0.05321421524994075,0.06138148388620466,-0.005838789156079292
1768576244017144000,9.58914404296875,0.014861395980045199,0.04564651994202286,-0.01943769091963768
1768576244027144000,9.59914404296875,0.016132219633460045,0.028308066323958336,0.0004857376903295517
1768576244037144000,9.60914404296875,-0.016805552317760885,0.007676927836053073,0.004972527715563774
1768576244047143000,9.619142822265625,-0.02728891587667167,0.00854446791820228,0.0431131655395031
1768576244057143000,9.62914306640625,-0.033173370805382726,0.018110643566958604,0.04701017297804355
1768576244067143000,9.639142822265624,-0.02793079397678375,0.011582922298647463,0.06079904435575008
1768576244077143000,9.64914306640625,-0.032903869681619104,-0.010141089459881186,0.06368073727190494
1768576244087142000,9.659141845703125,-0.052230537974834436,0.007683211446367204,0.059981298232078546
1768576244097142000,9.66914208984375,-0.05950893147997558,0.024636647802218792,0.04970364984571934
1768576244107142000,9.679141845703125,-0.04035418568756431,0.0364298153180629,0.024471008911728858
1768576244117142000,9.68914208984375,-0.025566329867765306,0.024439736990630626,0.003435819667577743
1768576244127142000,9.699141845703124,-0.025658684326335786,0.029902642039023337,0.01310205815732479
1768576244137141000,9.70914111328125,-0.04759637536816299,0.01724489358309656,-0.012852467310428618
1768576244147140900,9.719140869140626,-0.040659306113980706,0.003314787103794515,-0.0040951603591442105
1768576244157141000,9.72914111328125,-0.01195522620975971,-0.0013699001137167214,-0.0016208792001008987
1768576244167140900,9.739140869140625,-0.024845066388510167,0.0030936186337843534,0.030640637457370758
1768576244177140000,9.749139892578125,-0.034525443001464005,-0.002219502680376172,0.056498132291436194
1768576244187140000,9.75914013671875,-0.022809870766475795,-0.006346154156327247,0.028200843089818954
1768576244197140000,9.769139892578124,-0.005941665008664131,-0.013974712806008755,0.03657937985658646
1768576244207140000,9.77914013671875,0.007838438540697098,-0.028660642621293662,0.02909282349348068
1768576244217140000,9.789139892578126,-0.013748027910664677,-0.03510916117355227,0.016517419558763503
1768576244227139000,9.79913916015625,-0.01993862617909908,-0.013041158282943069,0.01905073742866516
1768576244237139000,9.809138916015625,-0.02137885158266872,-0.014826251601427793,0.014390344402194022
1768576244247139000,9.81913916015625,0.0017389526218175887,-0.02901942946370691,0.00405249026119709
1768576244257139000,9.829138916015625,-0.01453296774327755,-0.012011559506878256,-0.002377250525355339
1768576244267138000,9.839137939453124,-0.013639306839182972,-0.002291216209717095,0.00003682487905025482
1768576244277138000,9.849137939453126,-0.03199972391612828,0.030379575368389485,0.0006359598159790038
1768576244287138000,9.859137939453126,-0.04352580146100372,0.031545696538314225,0.004962590843439102
1768576244297138000,9.869137939453125,-0.021010639324784277,0.03976845822148025,0.009870821151137351
1768576244307138000,9.879137939453125,-0.014870236873626708,0.04149067890420556,0.005645312410593032
1768576244317137000,9.889136962890625,0.001139854217506945,0.05312869239095598,0.018937340182065963
1768576244327137000,9.899136962890625,0.014579766027070581,0.02522204647473991,0.04930500591695308
1768576244337137000,9.909136962890624,0.014095745369791983,0.002597249951586127,0.05575871210098266
1768576244347137000,9.919136962890626,0.004854965750500559,-0.02279916670937091,0.04712064761519432
1768576244357136100,9.92913623046875,0.023098003525473178,-0.026469270056858656,0.042991584986448284
1768576244367136000,9.939135986328125,0.004559782196208834,-0.02456551879476756,0.04633972637057304
1768576244377135900,9.949135986328125,0.007235833005048334,-0.018982275302335618,0.06166062962114811
1768576244387136000,9.959135986328125,0.00761047500371933,-0.014616042916849255,0.03044657618999481
1768576244397136000,9.969135986328125,0.012980989060923456,-0.020393639937601984,0.006114098966121673
1768576244407135000,9.979135009765624,0.021229287044145166,0.003861826527304947,0.025929391026496884
1768576244417135000,9.989135009765626,0.039271030093356966,0.005490231446735561,0.032146365845203397
1768576244427135000,9.999135009765626,0.02687156724743545,0.0013237228844314812,0.03554302254617214
1768576244437135000,10.009135009765625,0.012526925150491296,-0.005432473377510905,0.016194763475656508
1768576244447134000,10.019134033203125,-0.0059047670643776655,-0.029677637644112107,-0.011249708288908004
1768576244457134000,10.029134033203125,-0.0045580286305397745,-0.0032043124666437505,-0.014008651608228683
1768576244467134000,10.039134033203124,-0.07542085942625999,-0.018347594127990304,-0.025467618733644483
1768576244477134000,10.049134033203124,-0.015175320767425,-0.015045447310060262,-0.01599602603316307
1768576244487134000,10.059134033203126,0.022400559313222764,-0.02289575895164162,0.01665478220283985
1768576244497133000,10.069133056640625,0.031194216219522057,-0.007204013094678521,0.038971243429183955
1768576244507133000,10.0791328125,0.03541979802530259,0.020706505279056726,0.04363865071833133
1768576244517133000,10.089133056640625,0.06597264760136604,0.0167867745520547,0.03245440888106823
1768576244527133000,10.0991328125,0.06091828682124614,0.01709171231538057,0.06228139186799526
1768576244537132000,10.109132080078124,0.011486439654231071,-0.005352832270041108,0.03764554778337478
1768576244547132000,10.1191318359375,0.0021305822879076003,0.0009792202956974505,0.012555530190467833
1768576244557132000,10.129132080078126,-0.01535772812962532,0.006376074370555579,-0.010595628294348717
1768576244567132000,10.1391318359375,-0.015222667040489614,0.024398893523588774,-0.010561726024746894
1768576244577132000,10.149132080078125,0.01522913331389427,0.030667561996914446,0.013113164073228835
1768576244587131100,10.159131103515625,0.038023075858876106,0.027082104725576935,0.017051088044047355
1768576244597131000,10.169131103515625,0.0408509927611798,0.026299941371940076,0.025203999361395835
1768576244607131000,10.179130859375,-0.016912556356191634,0.018238507730327546,0.023021979147195816
1768576244617131000,10.189131103515624,-0.023458032476902008,0.017651538155227898,0.03175181356966495
1768576244627130000,10.199130126953126,0.006738989398814737,0.022071765750274062,0.0424199225783348
1768576244637130000,10.2091298828125,0.02828095912132412,0.040273667797259986,0.0194148945659399
1768576244647130000,10.219130126953125,0.02554481215570122,0.054109337458759545,0.004794833061099052
1768576244657130000,10.2291298828125,0.0148796257564798,0.02947141101490706,0.005300444495677948
1768576244667130000,10.239130126953125,0.023643325915932652,0.02902045237701386,-0.008115501916408538
1768576244677129000,10.24912890625,0.020634207227826117,0.01607840708699077,-0.0014969605594873428
1768576244687129000,10.259129150390624,0.0062263637015596025,-0.0034597119998186826,-0.0038707039535045623
1768576244697129000,10.26912890625,0.017394238925911486,-0.013362316528707742,-0.0034200375765562055
1768576244707129000,10.279129150390625,0.007431538240239024,-0.016937544666975737,-0.0008972411006689071
1768576244717128000,10.2891279296875,0.005403247283026576,-0.012844722395390272,-0.010508534532785415
1768576244727128000,10.299128173828125,-0.004127857052348554,0.005171484353765845,-0.006360767203569412
1768576244737128000,10.3091279296875,0.023688334101438523,0.002194477836973965,0.04507891265451908
1768576244747128000,10.319128173828124,0.04142506632208824,-0.004057458697259426,0.05253156674802303
1768576244757127200,10.329127197265626,0.02972469165623188,0.0006833426216617226,0.0528203205615282
1768576244767127000,10.339126953125,0.0215326173722744,-0.0036598376818001268,0.05732756885290145
1768576244777127000,10.349126953125,-0.005737666869163513,-0.02723853739630431,0.028165771776437757
1768576244787127000,10.359126953125,-0.025937537800334393,-0.002853343604505062,0.019800094491243363
1768576244797127000,10.369126953125,0.0002712181568145752,0.0045007820179685945,0.017879940083622932
1768576244807126000,10.3791259765625,0.02344049682021141,-0.005214154451712966,-0.01516074425280094
1768576244817126100,10.389126220703124,0.029885946632549166,-0.01106383032798767,-0.03086392481923103
1768576244827126000,10.3991259765625,0.02286828642282635,-0.00014941840805113315,-0.010072481203079223
1768576244837126100,10.409126220703126,0.029109811160899696,0.0018742329066619276,0.0051852936834096905
1768576244847126000,10.4191259765625,0.011695698490738869,-0.003533288692682981,0.033763737913966176
1768576244857125000,10.429125,0.010334347009658813,0.0005741466261446475,0.018190905728936193
1768576244867125000,10.439125,0.01927344026863575,0.00042198827173560856,0.026262568503618237
1768576244877125000,10.449125,0.02919504175893962,0.0018636749800294637,0.03614741818010807
1768576244887125000,10.459125,0.0289437704116106,-0.004883680388331413,0.04589841234385967
1768576244897124000,10.4691240234375,0.006860533419251442,-0.019576149542257188,0.033817513927817344
1768576244907124000,10.4791240234375,0.007328150931000709,-0.004070318178832531,0.02204582759141922
1768576244917124000,10.4891240234375,-0.0026573095757514236,0.0033521965047344565,0.0059510173588991164
1768576244927124000,10.4991240234375,-0.013457995455525815,0.012328553034178912,-0.014940379500389098
1768576244937123000,10.509123046875,-0.010515548795461654,0.004298720107227563,-0.006216974818706512
1768576244947123000,10.519123046875,-0.023577238409779964,0.011068104644306003,-0.004825228199362755
1768576244957123000,10.529123046875,-0.037106034079194064,0.0012130290515720843,-0.0050888475716114046
1768576244967123000,10.539123046875,-0.049446460214257235,0.0159314363643527,0.01138882449865341
1768576244977123000,10.549123046875,-0.045181715441867706,0.01560319079067558,-0.013313070559501648
1768576244987122200,10.5591220703125,-0.01697100854516029,0.04232194209657609,0.012544424274563789
1768576244997122000,10.5691220703125,0.024716508105397224,0.032386019819974896,0.0162649061024189
1768576245007122000,10.579121826171875,0.02522913380265236,0.030207652867585418,0.033173955327272416
1768576245017122600,10.58912255859375,0.004642272847890853,0.025798567721061406,0.0393178649097681
1768576245027121700,10.59912158203125,0.006075557054020464,0.03258727801311761,0.0254191034168005
1768576245037121500,10.60912158203125,0.0008803264984861015,0.04138721852973103,0.05537234313189983
1768576245047121400,10.619121337890626,-0.018118973003886638,0.02873575368411839,0.07755670241117477
1768576245057121500,10.62912158203125,-0.039521241994760925,0.010924677585624157,0.04825462008118629
1768576245067121400,10.639121337890625,-0.06754099289663136,0.003961195248551667,-0.013241758888959884
1768576245077120500,10.64912060546875,-0.018344708051159977,-0.005406425620801746,-0.037328736919164655
1768576245087120600,10.65912060546875,-0.02172726316154003,-0.0011533712862059474,-0.042566637572646136
1768576245097120500,10.66912060546875,-0.011965163081884384,0.004384827488102019,-0.0286649534702301
1768576245107120600,10.67912060546875,-0.0029828152030706404,0.0015219854028895496,0.007519289588928222
1768576245117119500,10.689119384765625,-0.013612345767021179,0.011373590396903454,0.05013619604408741
1768576245127119600,10.69911962890625,-0.005091843246296048,0.02588339646030217,0.0776473033040762
1768576245137119500,10.709119384765625,0.010011690926551818,0.003302987068146467,0.08256897761523724
1768576245147119600,10.71911962890625,0.022591807569004595,-0.0029748510923236606,0.08422492812871933
1768576245157119500,10.729119384765625,0.0565326556155458,-0.022177162353508174,0.05792027404904365
1768576245167118600,10.73911865234375,0.04721654573772102,-0.015753851307742296,0.019648118799924848
1768576245177118500,10.749118408203126,0.011205905679799616,-0.012291399361565708,-0.00457271474301815
1768576245187118600,10.75911865234375,-0.025898995888233182,-0.0009713657828047871,-0.040188802525401114
1768576245197118500,10.769118408203125,-0.04352876060307025,0.02880812480058521,-0.039461657294631004
1768576245207117600,10.77911767578125,-0.018406009784340857,0.028752193362265824,-0.03425298273563385
1768576245217117400,10.789117431640625,-0.015835355578735468,0.04107585102561861,-0.019624737924337388
1768576245227117600,10.79911767578125,-0.014224340185523033,0.030081724932976065,-0.015482815814018249
1768576245237117400,10.809117431640624,-0.01177402442395687,0.04321794108822941,0.011402853024005889
1768576245247117600,10.81911767578125,0.005740589478611946,0.04003171226754784,0.0034276363611221313
1768576245257116700,10.82911669921875,0.009722279525920748,0.017128610259667037,0.010566402199864386
1768576245267116500,10.839116455078125,0.02016658971607685,-0.00035710634198039766,0.03774374746084213
1768576245277116400,10.849116455078125,0.020583974877931177,-0.0027255890389904377,0.05100011939704418
1768576245287116500,10.859116455078125,0.001461925778724253,-0.02066810949742794,0.04481412423849106
1768576245297115600,10.86911572265625,-0.008204933765530586,-0.018171141582541166,0.05240823262929916
1768576245307115500,10.879115478515626,-0.014658055427670479,-0.0018379560168832539,0.04760346269607544
1768576245317115600,10.88911572265625,-0.006609152474068105,-0.02363243919573724,0.038167525830864905
1768576245327115500,10.899115478515625,-0.002281315870210528,-0.017112608972936868,0.022163316491246223
1768576245337115600,10.90911572265625,-0.002597688343003392,-0.004183605827577412,-0.006388239732384681
1768576245347114500,10.919114501953125,0.01350238258652389,0.01280022566653788,-0.015495675295591354
1768576245357114600,10.929114501953125,0.018373203493282197,0.00019870090987533329,-0.012502338698506355
1768576245367114500,10.939114501953124,-0.016903788527846336,-0.004585574224591255,-0.010711948150396347
1768576245377114600,10.949114501953124,-0.031587526386044916,0.016495098129101098,-0.011486439654231071
1768576245387113500,10.959113525390626,-0.018251001885719598,0.0028255057495087384,0.010474632263183592
1768576245397113600,10.969113525390625,0.006601005700230598,0.0017203209865838287,0.024654548785090446
1768576245407113500,10.979113525390625,0.014239537754654884,-0.010180398556962608,0.031523850032687185
1768576245417113600,10.989113525390625,-0.008300210833549499,0.0016036723369732499,0.02821487161517143
1768576245427113500,10.999113525390625,0.024851532661914824,-0.0080801383420825,0.024157120656967162
1768576245437112600,11.009112548828124,0.00733976830355823,-0.006566957300156355,0.023686580535769462
1768576245447112400,11.019112548828126,-0.009598397417925298,0.003633862990327179,0.03369944050610065
1768576245457112600,11.029112548828126,-0.022870478379912674,-0.013891674165055155,0.01154138471186161
1768576245467112400,11.039112548828125,-0.031635566778853534,-0.0035587884601205586,-0.0038958383947610854
1768576245477111600,11.049111572265625,-0.034112697482109065,-0.011166340854391455,0.00805529616177082
1768576245487111700,11.059111572265625,-0.03661101710386574,-0.029411753249540925,-0.0049789574563503265
1768576245497111600,11.069111572265625,-0.015420345037057994,-0.021142266347818076,0.019248890349268914
1768576245507111400,11.079111328125,0.02670030233375728,-0.01790613397080451,0.030752281138300894
1768576245517111600,11.089111572265624,0.014564458860084414,-0.01086845388635993,0.024902970588207243
1768576245527110700,11.099110595703126,-0.010457681128382683,-0.018824490924738348,0.027731472012400626
1768576245537110500,11.109110595703125,-0.029298575198650357,-0.012005056700855493,0.04147650424838066
1768576245547110700,11.119110595703125,-0.002507671971991658,-0.019892448949813842,0.020963293051719664
1768576245557110500,11.129110595703125,0.0057090252965688705,-0.0011905980240553616,0.019608371311426162
1768576245567109600,11.139109619140624,-0.012819222627952695,0.005694777575507759,0.05267419008910656
1768576245577109500,11.149109619140624,-0.020545907889865336,-0.019648447593487797,-0.07364508192539215
1768576245587109600,11.159109619140626,0.003768449155427515,0.008930508093722164,0.0015869769304990768
1768576245597109500,11.169109619140626,0.015240896816924213,-0.00013907967712730167,0.044809448063373565
1768576245607109600,11.179109619140625,-0.0034112697482109066,-0.013600253470428288,0.024280454775691032
1768576245617108500,11.1891083984375,0.008337072245217859,-0.0249803101407364,0.04354804982542992
1768576245627108600,11.199108642578125,-0.03226498725619167,-0.029694406115822494,0.04231353959441185
1768576245637108500,11.2091083984375,-0.03915120310597121,-0.016863529582694173,0.0201338564902544
1768576245647108600,11.219108642578124,-0.006292889599129557,-0.016380641436576842,0.018611761489510534
1768576245657107700,11.229107666015626,-0.015918211556598543,-0.019879297207295893,0.018874796339869496
1768576245667107600,11.239107666015625,-0.011049290345981717,0.00898253054190427,0.0014665654212236404
1768576245677107500,11.249107421875,-0.021892098334431648,-0.00010861147362738847,-0.018662614893913267
1768576245687107600,11.259107666015625,0.022121815437078474,0.012964110991358756,-0.008866028022766113
1768576245697107500,11.269107421875,0.025101123508810996,0.0018722966779023407,0.008277414479851723
1768576245707106600,11.2791064453125,0.007742613483406603,0.0001632642703130841,-0.022450316739082335
1768576245717106700,11.289106689453124,0.02946275278441608,-0.009486315345577895,0.016254969230294226
1768576245727106600,11.2991064453125,0.041339726126194,-0.0391186890758574,0.015317980641126631
1768576245737106700,11.309106689453126,0.015325615958310662,-0.020257702065631746,0.019026187509298322
1768576245747105500,11.31910546875,-0.01519347747862339,-0.016855273211002348,0.0275146143913269
1768576245757105700,11.329105712890625,0.005530161598324776,-0.02294668542128056,0.02701660174131393
1768576245767105500,11.33910546875,-0.01727605590634048,-0.016885266490466892,0.015897241833806038
1768576245777105700,11.349105712890625,-0.016976817231439054,-0.03032404578886926,0.0035749358773231503
1768576245787105500,11.35910546875,-0.029022096344828604,-0.012546470101177692,0.006516250026226043
1768576245797104600,11.369104736328126,-0.02910213931109756,-0.0082563351592049,0.015734160226583478
1768576245807104500,11.3791044921875,-0.019514811276458204,-0.0053417994193732735,0.02480418638885021
1768576245817104600,11.389104736328125,-0.00834463449716568,-0.010707966095022857,0.009799509480595587
1768576245827104500,11.3991044921875,-0.0008025485545396804,-0.019589958871901035,-0.0032581250131130217
1768576245837103600,11.409103515625,0.004175751314684748,-0.00038370208796113727,-0.006006546938419342
1768576245847103500,11.419103515625,0.023443419429659842,0.009474040385894477,0.01533551629781723
1768576245857103600,11.429103515625,0.03492394079975784,-0.004957658939994871,0.006442600268125534
1768576245867103500,11.439103515625,0.005906630227901041,-0.011330372309684754,-0.009790741652250289
1768576245877102600,11.4491025390625,0.008157624025084078,-0.006695807844214141,-0.006261983004212379
1768576245887102700,11.459102783203125,0.00412087932229042,-0.013501944195106625,0.014328385081887244
1768576245897102600,11.4691025390625,-0.006712576315924525,-0.02009220930561423,0.06979132910668849
1768576245907102500,11.4791025390625,0.002371478371694684,-0.021267500162683427,0.10867021807730197
1768576245917102600,11.4891025390625,0.008321180556342005,0.002237805522046983,0.09806523743271828
1768576245927101700,11.499101806640626,0.010047931283712386,-0.011831928623653948,0.04722761512100696
1768576245937101600,11.5091015625,-0.01718735470958054,-0.013670432629808783,0.02123451120853424
1768576245947101700,11.519101806640625,-0.03286178410556167,0.007351495273970067,-0.0038753801286220547
1768576245957101600,11.5291015625,-0.03545355416443199,0.042322782346792515,0.005114566534757614
1768576245967100700,11.5391005859375,-0.02642331202328205,0.04323887427840382,0.007519289588928222
1768576245977100500,11.5491005859375,-0.020917115822434423,-0.011777020098641514,-0.04576572587490082
1768576245987100700,11.5591005859375,-0.018425956593826412,0.02267988771125674,-0.0008966565787792205
1768576245997100500,11.5691005859375,-0.009895955592393875,0.005940897823683917,-0.03834814309477806
1768576246007100700,11.5791005859375,0.007619169766828417,0.007731909426301717,-0.04199497516453266
1768576246017099300,11.589099365234375,0.03254150264263153,0.002655263749137521,-0.002529226216673851
1768576246027099400,11.599099365234375,0.01635612804982811,-0.021260157106444237,0.04293313279747963
1768576246037099300,11.609099365234375,-0.016223916504904626,0.023202706008963285,0.07538695715665816
1768576246047099400,11.619099365234375,-0.0198071087539196,0.009649287354946136,0.04709609769582748
1768576246057098500,11.629098388671874,-0.03287124605365097,0.012148520292155443,0.05143266559541225
1768576246067098400,11.639098388671876,-0.019622911293432115,0.00981342840809375,0.03332651554048061
1768576246077098500,11.649098388671876,-0.004438274708390235,0.019087891101278363,0.024815292304754256
1768576246087098400,11.659098388671875,0.0049122488956898445,0.013559190807677805,0.0050911856591701506
1768576246097098200,11.66909814453125,0.0007014262676239013,0.021609335870295763,-0.023020225581526756
1768576246107097300,11.679097412109375,0.012812135300040245,0.02754241571370512,-0.03169862207770347
1768576246117097500,11.689097412109374,0.007439831144548952,0.019870931237749755,-0.03231529267132282
1768576246127097300,11.699097412109374,0.02118665347881615,0.014140570892207324,-0.009157119923830032
1768576246137097500,11.709097412109376,0.011982114216685295,-0.006701689595729112,0.0060725979119539255
1768576246147096300,11.719096435546875,0.0005915726849809288,-0.022099530540034173,0.031931261789798736
1768576246157096400,11.729096435546875,0.021750644037127495,-0.00898300546593964,0.04896715226471424
1768576246167096300,11.739096435546875,0.02888064204752445,0.011383965660445392,0.0594300940901041
1768576246177096400,11.749096435546875,0.022474318669177592,-0.0010449790082871914,0.0395183559179306
1768576246187096300,11.759096435546875,0.03391520214863121,-0.014911409134231507,0.014069441884756088
1768576246197095400,11.769095458984374,0.003483823527768254,0.007502484584599733,0.00597089110314846
1768576246207095300,11.77909521484375,-0.0260327783357352,0.017984752164967355,0.004297404932975769
1768576246217095400,11.789095458984375,-0.02590776371657848,0.006719919372163713,-0.009967851784825324
1768576246227095300,11.79909521484375,-0.005604907334968447,0.017214534977450967,0.019741057780385016
1768576246237094400,11.809094482421875,-0.009808861830830573,0.022130144874006507,0.027743746972084045
1768576246247094300,11.81909423828125,-0.017417071812227368,0.02612169872820377,0.042943069669604296
1768576246257094400,11.829094482421874,-0.0011713818669319151,0.017313392242044208,0.04485036459565162
1768576246267094300,11.83909423828125,0.022679485852457583,-0.004099653871171176,0.03824117558896541
1768576246277094400,11.849094482421876,0.009783800454810261,-0.016265892483107745,0.046455461704730985
1768576246287093500,11.859093505859375,0.021365444111824033,-0.009701200205273926,0.04854688102602958
1768576246297093400,11.86909326171875,0.021244448080658913,-0.0020658099560067057,-0.009964929175376891
1768576246307093500,11.879093505859375,0.0013532412398606537,0.0064053004650399085,-0.02031914992928505
1768576246317093400,11.88909326171875,-0.0027840777605772017,0.005745813643001019,0.008676058408617973
1768576246327092500,11.899092529296874,-0.009752820794656872,0.0037492695309221742,0.0001128127247095108
1768576246337092400,11.90909228515625,-0.023556232154369354,0.020936185849085447,-0.010398644417524337
1768576246347092500,11.919092529296876,-0.02317687744796276,0.024844518399238586,0.0054179333955049515
1768576246357092400,11.92909228515625,0.014646364989876747,0.032747108217328784,0.005821253499388695
1768576246367092500,11.939092529296875,0.032495909935235975,0.015285539676249026,0.02747428238093853
1768576246377091300,11.94909130859375,-0.005910612283274531,0.0034517478890717028,0.01635375342965126
1768576246387091500,11.959091552734375,-0.0005979658931493759,0.006130392513796687,-0.0017985738545656202
1768576246397091300,11.96909130859375,0.0011509236007928847,-0.00564596999771893,-0.0029009821385145187
1768576246407091500,11.979091552734374,-0.02542202602624893,0.001536854178458452,0.011996142742037773
1768576246417090300,11.98909033203125,-0.018276903511956332,-0.0013616437420248984,0.006079612174630164
1768576246427715600,11.999715576171875,0.01852232964038849,-0.009159969468042255,-0.0019511340677738189
1768576246437715500,12.009715576171875,0.023231237983703613,0.010160926671512424,0.012155132696032524
1768576246447715600,12.019715576171874,0.04413607884645462,0.021814466520957646,0.042748423880338664
1768576246457715500,12.029715576171874,0.052525721529126164,-0.00010389876589179038,0.058554480299353596
