time,seconds_elapsed,z,y,x
1768576234493648100,0.065648193359375,-0.029622074216604233,0.03009478561580181,0.03098294883966446
1768576234503647000,0.07564697265625,-0.025260349735617638,0.0324583426117897,0.02588113211095333
1768576234513647000,0.085647216796875,-0.02050847001373768,0.03761794790625572,0.0299051683396101
1768576234523647000,0.09564697265625,-0.02034095861017704,0.03951651602983475,0.03557024523615837
1768576234533647000,0.105647216796875,-0.017901768907904625,0.03874313458800316,0.04680611938238144
1768576234543646200,0.115646240234375,-0.017857028171420097,0.037045370787382126,0.04806925728917122
1768576234553646000,0.12564599609375,-0.01483194250613451,0.03814126178622246,0.0417620949447155
1768576234563646000,0.13564599609375,-0.013227654621005058,0.038366030901670456,0.02875521592795849
1768576234573645000,0.14564501953125,-0.009492837823927402,0.03009398654103279,0.016500679776072502
1768576234583645200,0.155645263671875,-0.005347094964236021,0.030614368617534637,0.010821222327649593
1768576234593645000,0.16564501953125,0.0009685916593298316,0.016230901703238487,0.014780810102820396
1768576234603644200,0.17564404296875,0.007623298559337854,0.00794687308371067,0.02117053233087063
1768576234613644000,0.18564404296875,0.012387161143124104,-0.0028338697738945484,0.025020398199558258
1768576234623644200,0.19564404296875,0.015125157311558723,-0.013234312646090984,0.027938157320022583
1768576234633643300,0.205643310546875,0.018861837685108185,-0.013983992859721184,0.025611087679862976
1768576234643643100,0.21564306640625,0.02076227031648159,-0.0015600797487422824,0.017770741134881973
1768576234653643000,0.22564306640625,0.021260812878608704,-0.004191549029201269,0.01697099395096302
1768576234663643100,0.23564306640625,0.01793878711760044,-0.0038519962690770626,0.012516058050096035
1768576234673642200,0.245642333984375,0.014074806123971939,-0.0030455910600721836,0.012031096033751965
1768576234683642000,0.25564208984375,0.006449110805988312,-0.0024405207950621843,0.015328622423112392
1768576234693642200,0.265642333984375,-0.0007382282637991011,-0.004583033733069897,0.016622919589281082
1768576234703640800,0.275640869140625,-0.008220379240810871,-0.003655987558886409,0.01889033429324627
1768576234713641200,0.28564111328125,-0.008310394361615181,-0.015027418732643127,0.02808969095349312
1768576234723641000,0.29564111328125,-0.011477159336209297,-0.025975940749049187,0.03020237758755684
1768576234733640000,0.305639892578125,-0.005468534771353006,-0.036506347358226776,0.02690085582435131
1768576234743640000,0.31564013671875,0.0016860472969710827,-0.04414908587932587,0.016106531023979187
1768576234753640200,0.32564013671875,0.0019435749854892492,-0.04339620843529701,0.008523979224264622
1768576234763639000,0.33563916015625,0.005083974450826645,-0.037575606256723404,0.004834169987589121
1768576234773639000,0.345638916015625,0.006083458662033081,-0.033614952117204666,-0.00464641721919179
1768576234783639000,0.35563916015625,0.007237406447529793,-0.03245621174573898,-0.010543454438447952
1768576234793639000,0.365638916015625,0.0073439329862594604,-0.03371082618832588,-0.009615076705813408
1768576234803638000,0.375637939453125,0.010203102603554726,-0.039495743811130524,0.000014381069377122913
1768576234813638000,0.385637939453125,0.009283246472477913,-0.04434056580066681,0.0028045750223100185
1768576234823638000,0.395637939453125,0.009270464070141315,-0.04150323569774628,0.006439789664000273
1768576234833637000,0.40563720703125,0.00848349928855896,-0.03536065295338631,0.004142014309763908
1768576234843637000,0.415636962890625,0.005042695440351963,-0.033184584230184555,-0.0011736550368368626
1768576234853636900,0.425636962890625,0.005891178734600544,-0.026550117880105972,-0.005317001137882471
1768576234863636000,0.435635986328125,0.006670685950666666,-0.017045829445123672,-0.0068089039996266365
1768576234873636000,0.445635986328125,0.006341252941638231,-0.004941761493682861,-0.011894742958247662
1768576234883636000,0.455635986328125,0.006037386134266853,-0.0009731190511956811,-0.011285144835710526
1768576234893636000,0.465635986328125,0.006733270362019539,-0.001127582392655313,-0.010727212764322758
1768576234903635000,0.475635009765625,0.009695770218968391,-0.00475400872528553,-0.010792726650834084
1768576234913635000,0.485635009765625,0.007861917838454247,-0.0029265477787703276,-0.011677960865199566
1768576234923635000,0.495635009765625,0.008238755166530609,-0.0013321131700649858,-0.013903032056987286
1768576234933634000,0.505634033203125,0.006714628078043461,-0.01007766742259264,-0.0156474020332098
1768576234943634000,0.515634033203125,0.006141249556094408,-0.015799736604094505,-0.015455921180546284
1768576234953634000,0.525634033203125,0.00637773796916008,-0.01697365753352642,-0.01727432757616043
1768576234963633200,0.535633056640625,0.0070832096971571445,-0.015261510387063026,-0.020493557676672935
1768576234973633000,0.545633056640625,0.009436910971999168,-0.018068216741085052,-0.019658656790852547
1768576234983633200,0.555633056640625,0.007555920630693436,-0.021557223051786423,-0.024807078763842583
1768576234993632000,0.565632080078125,0.005554821342229843,-0.025544242933392525,-0.02846439741551876
1768576235003632000,0.575632080078125,0.003165166825056076,-0.023839285597205162,-0.026400448754429817
1768576235013632000,0.585632080078125,-0.002016811864450574,-0.020416324958205223,-0.025655295699834824
1768576235023632100,0.595632080078125,-0.00452684098854661,-0.020242154598236084,-0.029033781960606575
1768576235033631000,0.605630859375,-0.006049636751413345,-0.02135402522981167,-0.02774055115878582
1768576235043631000,0.615631103515625,-0.0027720844373106956,-0.01811322383582592,-0.022601716220378876
1768576235053631000,0.625630859375,-0.0005054679932072759,-0.012672917917370796,-0.01901283860206604
1768576235063630000,0.635630126953125,0.000006391586794052273,-0.015601064078509808,-0.019118301570415497
1768576235073630200,0.645630126953125,0.0013643373968079686,-0.01925811730325222,-0.020322848111391068
1768576235083630000,0.655630126953125,-0.000773381965700537,-0.018795525655150414,-0.02594265155494213
1768576235093629200,0.665629150390625,-0.00013795174891129136,-0.016817862167954445,-0.031193604692816734
1768576235103629000,0.675629150390625,-0.002954510971903801,-0.013772005215287209,-0.03188655897974968
1768576235113629200,0.685629150390625,-0.006686398293823004,-0.012102468870580196,-0.030978955328464508
1768576235123629000,0.695629150390625,-0.008237689733505249,-0.004234958905726671,-0.031245803460478783
1768576235133628200,0.705628173828125,-0.008470450527966022,0.010015616193413734,-0.03249642252922058
1768576235143628000,0.7156279296875,-0.006872819736599922,0.02429894730448723,-0.032035164535045624
1768576235153628200,0.725628173828125,-0.00487172044813633,0.03290761634707451,-0.030770961195230484
1768576235163627000,0.735626953125,-0.002623746171593666,0.032585375010967255,-0.032094817608594894
1768576235173627000,0.745626953125,-0.00023276027059182525,0.0307517871260643,-0.0351468026638031
1768576235183627000,0.755626953125,-0.0015310513554140925,0.025798574090003967,-0.03593003749847412
1768576235193625900,0.7656259765625,-0.001005343277938664,0.02695731446146965,-0.03678464516997337
1768576235203626000,0.7756259765625,-0.0010418286547064781,0.009037703275680542,-0.03393293172121048
1768576235213625900,0.7856259765625,-0.00152359448838979,0.0007957525085657835,-0.028961343690752983
1768576235223625000,0.795625,-0.0013907026732340455,-0.0021544971968978643,-0.02731897309422493
1768576235233624800,0.805624755859375,-0.000862864195369184,-0.002371544949710369,-0.029263611882925034
1768576235243625000,0.815625,-0.002567020943388343,-0.002569684060290456,-0.028002340346574783
1768576235253624800,0.825624755859375,-0.0010657970560714602,0.0005475459038279951,-0.026329608634114265
1768576235263624000,0.8356240234375,-0.00029108350281603634,0.0019451729021966457,-0.02748861536383629
1768576235273624000,0.8456240234375,-0.0025995115283876657,0.0021289309952408075,-0.0244321059435606
1768576235283624000,0.8556240234375,-0.004039216320961714,0.0022711437195539474,-0.024719994515180588
1768576235293623000,0.865623046875,-0.0024738102219998837,-0.0014919028617441654,-0.020074641332030296
1768576235303623000,0.875622802734375,-0.001805889536626637,-0.004456267226487398,-0.01793745532631874
1768576235313623000,0.885623046875,-0.002561161993071437,-0.011889150366187096,-0.014207964763045311
1768576235323622000,0.895621826171875,-0.0048916940577328205,-0.01762479916214943,-0.011529889889061451
1768576235333622000,0.9056220703125,-0.004366785287857056,-0.015223694033920765,-0.014390124939382076
1768576235343622000,0.915621826171875,-0.003041330026462674,-0.014375210739672184,-0.015181349590420723
1768576235353622000,0.9256220703125,-0.00048123320448212326,-0.018582738935947418,-0.013787451200187206
1768576235363621000,0.93562109375,0.0008940231637097895,-0.019724436104297638,-0.007267500273883343
1768576235373621000,0.94562109375,0.002174204681068659,-0.019303390756249428,-0.007665909361094236
1768576235383620900,0.955620849609375,0.0008325041271746159,-0.014326208271086216,-0.011839348822832108
1768576235393620000,0.965619873046875,0.0028991170693188906,-0.00878923013806343,-0.007799333427101374
1768576235403620000,0.9756201171875,0.0012905678013339639,-0.0027569043450057507,-0.009373527951538563
1768576235413620000,0.985619873046875,0.00199390877969563,0.0035183019936084747,-0.012527243234217167
1768576235423619000,0.995619140625,0.0018093516118824482,0.004442685283720493,-0.012046542949974537
1768576235433619000,1.005618896484375,0.0013409015955403447,-0.005939914379268885,-0.008435030467808247
1768576235443619000,1.015619140625,-0.00006844323797849938,-0.010981278494000435,-0.004292749334126711
1768576235453619000,1.025618896484375,-0.0025358619168400764,-0.006702377460896969,-0.00481419637799263
1768576235463618000,1.0356181640625,-0.0037230991292744875,-0.007305583450943232,-0.0067875985987484455
1768576235473618000,1.045617919921875,-0.003816842334344983,-0.021264541894197464,-0.0007656587986275554
1768576235483618000,1.0556181640625,-0.0026077672373503447,-0.03033154085278511,0.0019174759509041905
1768576235493617200,1.0656171875,-0.004250671248883009,-0.030424484983086586,-0.0006258428329601884
1768576235503617000,1.075616943359375,-0.006311159115284681,-0.024818263947963715,-0.0025246767327189445
1768576235513617200,1.0856171875,-0.004283694550395012,-0.03243916481733322,-0.00012490226072259247
1768576235523616000,1.095615966796875,0.0001603222917765379,-0.037028856575489044,0.003177950158715248
1768576235533616000,1.1056162109375,-0.0005739112384617329,-0.03293904289603233,-0.0006689860601909459
1768576235543616000,1.115615966796875,-0.0016924388473853469,-0.025713885203003883,-0.004505269695073366
1768576235553615000,1.125614990234375,-0.0030091057997196913,-0.024146880954504013,0.0006021407316438854
1768576235563615000,1.135614990234375,-0.005050152540206909,-0.025169800966978073,0.004428037907928228
1768576235573615000,1.145614990234375,-0.00643659383058548,-0.01679416000843048,0.005567871034145355
1768576235583615000,1.155614990234375,-0.009045693092048168,-0.01471476349979639,0.006771353539079428
1768576235593614000,1.165614013671875,-0.0093905720859766,-0.006735134404152632,0.007733819540590048
1768576235603614200,1.1756142578125,-0.01085957232862711,-0.003236006945371628,0.00615190202370286
1768576235613614000,1.185614013671875,-0.008177502080798149,-0.003599528456106782,0.0035803536884486675
1768576235623613200,1.19561328125,-0.007763913366943598,-0.007271228823810816,0.00006471481174230576
1768576235633613000,1.205613037109375,-0.005336175672709942,-0.010992197319865227,-0.0016109461430460215
1768576235643613200,1.21561328125,-0.007779892534017563,-0.011494203470647335,0.0028003137558698654
1768576235653611800,1.22561181640625,-0.006462959107011557,-0.01224601361900568,0.0038128476589918137
1768576235663612200,1.235612060546875,-0.008353803306818008,-0.013351491652429104,0.00133903743699193
1768576235673612000,1.245612060546875,-0.00899722333997488,-0.015576030127704144,-0.0005065332516096532
1768576235683612200,1.255612060546875,-0.009855560027062893,-0.013686783611774445,-0.000434361572843045
1768576235693611000,1.265611083984375,-0.00980416126549244,-0.008861402049660683,0.0015824503498151898
1768576235703611000,1.27561083984375,-0.007290403358638287,-0.0032799490727484226,0.003317766124382615
1768576235713611000,1.285611083984375,-0.007258711848407984,-0.00016245282313320786,0.0016562198288738728
1768576235723609900,1.29560986328125,-0.007388407830148935,0.00042450788896530867,0.0014865765115246177
1768576235733610000,1.30560986328125,-0.00854208879172802,-0.0026727484073489904,0.0030799456872045994
1768576235743609900,1.31560986328125,-0.006434463430196047,-0.005418733693659306,0.0016562198288738728
1768576235753609000,1.32560888671875,-0.007262440398335457,-0.009564743377268314,-0.0020602215081453323
1768576235763608800,1.33560888671875,-0.00555135915055871,-0.010722685605287552,0.00101173494476825
1768576235773609000,1.34560888671875,-0.002123870886862278,-0.008742358535528183,0.0027601001784205437
1768576235783608800,1.35560888671875,0.0020762004423886538,-0.008327971212565899,0.00008708536915946752
1768576235793608000,1.36560791015625,0.0037558560725301504,-0.003518834710121155,-0.00803315918892622
1768576235803608000,1.375608154296875,0.005252819042652845,-0.006065881811082363,-0.012834039516746998
1768576235813608000,1.38560791015625,0.005821137689054012,-0.006567355245351791,-0.013574398122727871
1768576235823607000,1.39560693359375,0.004483431577682495,-0.008081895299255848,-0.01890498213469982
1768576235833607000,1.40560693359375,0.005615807604044676,-0.0065649584867060184,-0.022845927625894547
1768576235843607000,1.41560693359375,0.0023241406306624413,-0.003916444722563028,-0.02383289486169815
1768576235853606000,1.42560595703125,-0.0004500742070376873,-0.005465605296194553,-0.02394181862473488
1768576235863606000,1.43560595703125,0.0008713863207958639,-0.009354086592793465,-0.0196839552372694
1768576235873606000,1.44560595703125,0.0013587448047474027,-0.008739695884287357,-0.018930813297629356
1768576235883606000,1.45560595703125,0.004008057527244091,-0.005097024142742157,-0.018438128754496574
1768576235893605000,1.465605224609375,0.003442135639488697,0.00027616979787126184,-0.018382735550403595
1768576235903605000,1.47560498046875,0.00529596209526062,-0.006989732384681702,-0.020894896239042282
1768576235913604900,1.48560498046875,0.0046852994710206985,-0.007760184817016125,-0.02081579901278019
1768576235923604000,1.49560400390625,0.004919923841953278,-0.0020421119406819344,-0.019520170986652374
1768576235933604000,1.50560400390625,0.0038626487366855145,-0.002642122097313404,-0.021340442821383476
1768576235943604000,1.51560400390625,0.005391037091612816,-0.005559348501265049,-0.018440259620547295
1768576235953603000,1.52560302734375,0.004506601020693779,-0.004852013196796179,-0.016804812476038933
1768576235963603000,1.53560302734375,0.002356098499149084,-0.0032671659719198942,-0.018666628748178482
1768576235973603000,1.54560302734375,0.0026181535795331,-0.00535481795668602,-0.014373612590134144
1768576235983603000,1.55560302734375,-0.0009241168736480176,-0.0027947211638092995,-0.00628985371440649
1768576235993602000,1.56560205078125,0.0008849684381857514,-0.006858971435576677,-0.0034381409641355276
1768576236003602000,1.575601806640625,0.0004934837343171239,-0.00762862479314208,-0.003404052462428808
1768576236013602300,1.585602294921875,-0.0013126720441505313,-0.009267534129321575,-0.00572925852611661
1768576236023601400,1.595601318359375,0.0002378202771069482,-0.004337756894528866,-0.011833223514258862
1768576236033601300,1.605601318359375,0.0008351673022843897,-0.00446931691840291,-0.016282565891742706
1768576236043601200,1.61560107421875,-0.0006655239267274737,-0.0020572920329868793,-0.013525396585464478
1768576236053600300,1.625600341796875,0.00048602689639665186,-0.002269279444590211,-0.014414891600608826
1768576236063600400,1.635600341796875,0.0020604876335710287,-0.0006064017652533948,-0.013675332069396973
1768576236073600300,1.645600341796875,-0.00043995422311127186,0.0032754219137132168,-0.0105341337621212
1768576236083600400,1.655600341796875,-0.0012325108982622623,0.005649896338582039,-0.008097074925899506
1768576236093599200,1.66559912109375,-0.0012942962348461151,0.007119961082935333,-0.009946640580892563
1768576236103599400,1.675599365234375,0.0004647216119337827,0.01124865934252739,-0.00743234995752573
1768576236113599200,1.68559912109375,-0.0010378338629379869,0.005550027824938297,-0.009608685038983822
1768576236123598300,1.695598388671875,-0.0017411747248843312,-0.0032772859558463097,-0.00911679957062006
1768576236133598200,1.70559814453125,-0.0035238948184996843,-0.007327421568334103,-0.007105846423655748
1768576236143598300,1.715598388671875,-0.004567587748169899,-0.004896754398941994,-0.009944243356585503
1768576236153597400,1.725597412109375,-0.004874117206782103,-0.0028583707753568888,-0.008895756676793098
1768576236163597300,1.735597412109375,-0.006082926411181688,-0.003622964257374406,-0.007242732681334019
1768576236173597400,1.745597412109375,-0.005707953125238419,-0.00481313094496727,-0.0028338697738945484
1768576236183597300,1.755597412109375,-0.0041097900830209255,-0.0025893915444612503,0.005371595732867718
1768576236193596400,1.765596435546875,-0.0013851100811734796,-0.0017172062071040273,0.008465922437608242
1768576236203596300,1.77559619140625,0.0009438242996111512,-0.007281614933162928,0.0015547533985227346
1768576236213596400,1.785596435546875,0.00017363809456583112,-0.008618787862360477,-0.0017867147689685225
1768576236223595300,1.79559521484375,-0.0021201425697654486,-0.01044305320829153,0.0033009881153702736
1768576236233595400,1.805595458984375,-0.00430207047611475,-0.012597284279763699,0.004481034819036722
1768576236243595300,1.81559521484375,-0.005686647724360228,-0.016829580068588257,0.0032980586402118206
1768576236253595400,1.825595458984375,-0.005910086911171675,-0.018878616392612457,-0.00310604483820498
1768576236263594200,1.83559423828125,-0.005942577496170998,-0.015052186325192451,-0.002547047333791852
1768576236273594400,1.845594482421875,-0.0033872744534164667,-0.016562731936573982,-0.002472478663548827
1768576236283594500,1.855594482421875,-0.00031079089967533946,-0.013489177450537682,-0.0007542071980424225
1768576236293593000,1.865593017578125,-0.00017124126316048205,-0.015395201742649078,0.0020242687314748764
1768576236303593200,1.87559326171875,-0.0009512811084277928,-0.016384832561016083,0.005519401282072067
1768576236313593000,1.885593017578125,0.00007110639853635803,-0.013422864489257336,0.0020663465838879347
1768576236323592200,1.89559228515625,-0.0029760824982076883,-0.01085903961211443,0.00008175904804375023
1768576236333592000,1.905592041015625,-0.002805640222504735,-0.014078800566494465,-0.003739610780030489
1768576236343592200,1.91559228515625,-0.00245090713724494,-0.013508085161447525,-0.007125820033252239
1768576236353592000,1.925592041015625,-0.0018301242962479591,-0.013520335778594017,-0.009032909758388996
1768576236363591200,1.935591064453125,-0.0011467571603134274,-0.01489532645791769,-0.011513643898069859
1768576236373591300,1.94559130859375,0.001713744131848216,-0.01847115345299244,-0.0088776471093297
1768576236383591200,1.955591064453125,0.0022796657867729664,-0.016144881024956703,-0.004650145769119263
1768576236393590300,1.96559033203125,0.00284984870813787,-0.012984507717192173,-0.002151301596313715
1768576236403590100,1.975590087890625,0.003349723992869258,-0.012114453129470348,-0.004171309061348438
1768576236413590300,1.98559033203125,-0.0011669971281662583,-0.013806093484163284,-0.0026197514962404966
1768576236423589000,1.995589111328125,-0.0006181196658872068,-0.015415174886584282,0.00040799626731313765
1768576236433589200,2.00558935546875,-0.0036762275267392397,-0.012015650048851967,-0.00030173614504747093
1768576236443589000,2.015589111328125,-0.002150502521544695,-0.008578574284911156,-0.004061054438352585
1768576236453589200,2.02558935546875,-0.004327636677771807,-0.0017486315919086337,-0.007529555354267359
1768576236463588400,2.03558837890625,-0.003061037277802825,-0.0008929579053074121,-0.009767409414052963
1768576236473588200,2.045588134765625,-0.0015875103417783976,0.003406449221074581,-0.007685882970690727
1768576236483588000,2.055588134765625,-0.000467118457891047,0.003980893176048994,-0.00818016566336155
1768576236493587200,2.065587158203125,-0.00039760995423421264,0.007800665218383074,-0.008929313160479069
1768576236503587300,2.07558740234375,-0.0017387778498232365,0.009411877952516079,-0.011931227520108223
1768576236513587200,2.085587158203125,-0.0021608888637274504,0.01332699041813612,-0.014636200852692127
1768576236523586300,2.09558642578125,-0.004049336537718773,0.013201289810240269,-0.015781093388795853
1768576236533586200,2.105586181640625,-0.0030983216129243374,0.012371715158224106,-0.013313408941030502
1768576236543586300,2.11558642578125,-0.0028671592008322477,0.007949802093207836,-0.013038303703069687
1768576236553586200,2.125586181640625,-0.0038751657120883465,0.007692274637520313,-0.014509433880448341
1768576236563585300,2.135585205078125,-0.004459196701645851,0.0057167415507137775,-0.01781228557229042
1768576236573585200,2.145585205078125,-0.0028128307312726974,0.006813431158661842,-0.017609087750315666
1768576236583585300,2.155585205078125,-0.0023811322171241045,0.010162356309592724,-0.016750484704971313
1768576236593584400,2.16558447265625,-0.004020840395241976,0.010823885910212994,-0.015047659166157246
1768576236603584300,2.175584228515625,-0.0036908749025315046,0.00737242866307497,-0.01654275692999363
1768576236613584400,2.18558447265625,-0.0025750105269253254,0.006435795221477747,-0.017796307802200317
1768576236623584300,2.195584228515625,0.00038935415796004236,0.009530920535326004,-0.01835237629711628
1768576236633583400,2.205583251953125,0.0019057580502703786,0.0145259452983737,-0.016152869910001755
1768576236643583200,2.215583251953125,0.001187503570690751,0.02040513977408409,-0.014319551177322865
1768576236653583400,2.225583251953125,0.0003352919884491712,0.027110712602734566,-0.016209064051508904
1768576236663582200,2.235582275390625,-0.0011435613268986344,0.024636903777718544,-0.02009461633861065
1768576236673582300,2.245582275390625,-0.0009691243176348507,0.02250664122402668,-0.021331122145056725
1768576236683582200,2.255582275390625,-0.0022144184913486242,0.021453892812132835,-0.023324230685830116
1768576236693581300,2.265581298828125,-0.0031009847298264503,0.024522919207811356,-0.01877635158598423
1768576236703581400,2.27558154296875,-0.005533249583095312,0.026820695027709007,-0.012717126868665218
1768576236713581300,2.285581298828125,-0.009436378255486488,0.03105964884161949,-0.01248117070645094
1768576236723581400,2.29558154296875,-0.011211375705897808,0.03512496501207352,-0.014049772173166275
1768576236733580300,2.305580322265625,-0.008489624597132206,0.027464646846055984,-0.01810337044298649
1768576236743580400,2.315580322265625,-0.009270197711884975,0.029161347076296806,-0.014243383891880512
1768576236753580300,2.325580322265625,-0.006807572208344936,0.02261769399046898,-0.013303021900355816
1768576236763579400,2.335579345703125,-0.004428037907928228,0.022344719618558884,-0.010775948874652386
1768576236773579300,2.345579345703125,-0.0018034926615655422,0.02143019065260887,-0.013114470057189465
1768576236783579400,2.355579345703125,-0.002576342085376382,0.019205385819077492,-0.012255067937076092
1768576236793579300,2.365579345703125,-0.0007243797881528735,0.02105974592268467,-0.014552577398717403
1768576236803578400,2.375578369140625,-0.0034410704392939806,0.019306587055325508,-0.01979580894112587
1768576236813578200,2.385578125,2.6631610694494157e-7,0.010239588096737862,-0.02093617431819439
1768576236823578400,2.395578369140625,0.0021997711155563593,0.00947952177375555,-0.015916915610432625
1768576236833577200,2.4055771484375,0.0014258564915508032,0.010786867700517178,-0.015188540332019329
1768576236843577000,2.4155771484375,0.0018570221727713943,0.010214287787675858,-0.018853316083550453
1768576236853577500,2.425577392578125,-0.0017323862994089723,0.0054909056052565575,-0.019026953727006912
1768576236863577300,2.435577392578125,-0.0030389330349862576,-0.00037523938226513565,-0.021219002082943916
1768576236873576200,2.445576171875,-0.006435262504965067,-0.001061802264302969,-0.01847807690501213
1768576236883576000,2.455576171875,-0.0057167415507137775,0.0024807346053421497,-0.015988819301128387
1768576236893576400,2.465576416015625,-0.0056983656249940395,0.0073567163199186325,-0.015683354809880257
1768576236903575300,2.4755751953125,-0.0052325790748000145,0.007230216171592474,-0.016953416168689728
1768576236913575200,2.4855751953125,-0.0007060039788484573,0.008406001143157482,-0.014366954565048218
1768576236923575000,2.495574951171875,-0.002035187790170312,0.011405253782868385,-0.01317865215241909
1768576236933575200,2.5055751953125,0.0004849616379942745,0.007189203519374132,-0.014117150567471981
1768576236943574300,2.51557421875,-0.00009427589975530282,0.007476292084902525,-0.015505989082157612
1768576236953574100,2.52557421875,0.0016666061710566282,0.0062246061861515045,-0.009760485030710697
1768576236963574300,2.53557421875,0.0008910936885513365,0.0028674255590885878,-0.012029498815536499
1768576236973573000,2.545572998046875,-0.003025617217645049,0.0037063213530927896,-0.012626312673091888
1768576236983573200,2.5555732421875,-0.00458782771602273,0.008052067831158638,-0.009355152025818825
1768576236993573000,2.565572998046875,-0.004839762579649687,0.009091232903301716,-0.010311227291822433
1768576237003572200,2.575572265625,-0.004628574009984732,0.012310195714235306,-0.008917062543332577
1768576237013572000,2.585572021484375,-0.004171042703092098,0.010440923273563385,-0.005606220569461584
1768576237023572000,2.595572021484375,-0.001570998691022396,0.003966512158513069,-0.002689792774617672
1768576237033571800,2.60557177734375,-0.0036618465092033148,0.002254898427054286,0.0027624969370663166
1768576237043571000,2.615571044921875,-0.004869856406003237,0.005786516238003969,0.005053614266216755
1768576237053571000,2.625571044921875,-0.00555269094184041,0.006481068674474955,0.00469435378909111
1768576237063571000,2.635571044921875,-0.005912483669817448,0.003665574826300144,-0.0007227819296531379
1768576237073570000,2.645570068359375,-0.0054605454206466675,0.004596349783241749,-0.000477504770969972
1768576237083570000,2.65556982421875,-0.004178766161203384,0.007733287289738655,0.0004673847579397261
1768576237093570000,2.665570068359375,-0.004066380672156811,0.0021672805305570364,0.0005478122038766742
1768576237103570000,2.67556982421875,-0.0037878139410167933,0.0026354643050581217,-0.0003709783486556262
1768576237113569000,2.685569091796875,-0.0024373249616473913,0.00694818701595068,-0.001047154888510704
1768576237123569000,2.69556884765625,-0.0021614215802401304,0.00983532052487135,-0.0034759577829390764
1768576237133569000,2.705569091796875,-0.00330205331556499,0.01266918983310461,-0.0018010957865044475
1768576237143568100,2.715568115234375,-0.0037550569977611303,0.011420433409512043,0.0005909554311074317
1768576237153568000,2.725568115234375,-0.004276237916201353,0.008772452361881733,0.0029550434555858374
1768576237163568000,2.735568115234375,-0.006250439211726189,0.005549761466681957,0.0016399745363742113
1768576237173568000,2.745568115234375,-0.0062184808775782585,0.008409996517002583,0.0017944378778338432
1768576237183567000,2.755567138671875,-0.0065042381174862385,0.010211092419922352,0.003412840887904167
1768576237193567000,2.76556689453125,-0.0033720945939421654,0.017006147652864456,0.005167864263057709
1768576237203567000,2.775567138671875,0.0011001517996191978,0.0284659955650568,0.00692075677216053
1768576237213566000,2.78556591796875,-0.0004165183927398175,0.02857678383588791,0.004897287115454674
1768576237223566000,2.795566162109375,-0.0016580841038376093,0.029024994000792503,0.004571848548948765
1768576237233566000,2.80556591796875,-0.0025542378425598145,0.03352253884077072,0.010252904146909714
1768576237243566000,2.815566162109375,-0.00242187874391675,0.03280055522918701,0.007166299968957901
1768576237253565200,2.825565185546875,-0.0034442662727087736,0.034871697425842285,0.00603472301736474
1768576237263565000,2.83556494140625,-0.0029353362042456865,0.0347830131649971,0.002877279184758663
1768576237273565000,2.84556494140625,-0.004077033139765263,0.016872989013791084,-0.002688460983335972
1768576237283564000,2.85556396484375,-0.004435760900378227,0.01158794667571783,-0.0018967032665386796
1768576237293564200,2.865564208984375,-0.002621882129460573,-0.002823217073455453,0.0010934938909485936
1768576237303564000,2.87556396484375,-0.0025981799699366093,-0.008019044063985348,0.001678057829849422
1768576237313564200,2.885564208984375,-0.0035398737527430058,-0.011126154102385044,-0.0012319782981649041
1768576237323563000,2.89556298828125,-0.0035063179675489664,-0.007683752104640007,0.0021196098532527685
1768576237333563100,2.905563232421875,-0.0019172097090631723,-0.004305799026042223,-0.001344363670796156
1768576237343563000,2.91556298828125,-0.001249555149115622,-0.0009057410643436015,-0.004631503485143185
1768576237353562000,2.92556201171875,-0.005317001137882471,0.0013451626291498542,-0.0010998855577781796
1768576237363562000,2.93556201171875,-0.004606203176081181,0.004555869847536087,0.0005925533478148282
1768576237373562000,2.94556201171875,-0.005855225957930088,0.009988185949623585,-0.0003861583536490798
1768576237383561000,2.95556103515625,-0.00512791657820344,0.012763732112944126,-0.0031230889726430178
1768576237393561000,2.96556103515625,-0.003251453395932913,0.011427091434597969,-0.0032828785479068756
1768576237403561200,2.975561279296875,-0.004602741450071335,0.010598049499094486,-0.005287440028041601
1768576237413561000,2.98556103515625,-0.0016247945604845881,0.007190268486738205,-0.007121292874217033
1768576237423560000,2.995559814453125,-0.0003028014034498483,0.004467452876269817,-0.003858654061332345
1768576237433560000,3.00556005859375,0.003269829088822007,0.0033513219095766544,-0.004009122494608164
1768576237443560200,3.015560302734375,0.0018042916199192405,0.0024594292044639587,-0.003311108099296689
1768576237453559000,3.02555908203125,0.00301736150868237,0.003346261801198125,-0.0062554990872740746
1768576237463559000,3.035558837890625,0.0024855281226336956,0.007878162898123264,-0.008077100850641727
1768576237473558800,3.045558837890625,0.0011329087428748608,0.0058656120672822,-0.009782057255506516
1768576237483559200,3.05555908203125,-0.0012426309986039996,0.0037854171823710203,-0.008739429526031017
1768576237493558000,3.06555810546875,-0.0011249192757532,0.005464540328830481,-0.006325806491076946
1768576237503558000,3.075557861328125,-0.0006162554491311312,0.007095193490386009,-0.0024647556710988283
1768576237513558000,3.08555810546875,0.0010032127611339092,0.006458964664489031,0.00012010856153210625
1768576237523556900,3.095556884765625,-0.00020772656716872007,0.0037409423384815454,-0.0007901599165052176
1768576237533557000,3.105556884765625,0.0010298443958163261,0.002011485630646348,-0.002936135046184063
1768576237543556900,3.115556884765625,-0.0013928331900388002,0.006079730577766895,-0.005636313930153847
1768576237553557000,3.125556884765625,-0.0021142836194485426,0.007063235621899366,-0.008040349930524826
1768576237563555800,3.135555908203125,-0.0039017973467707634,0.005909288302063942,-0.007620102725923061
1768576237573556000,3.145555908203125,-0.0014450311427935958,0.0021526331547647715,-0.007682687137275934
1768576237583555800,3.155555908203125,-0.0005784385721199214,0.0049494849517941475,-0.008762332610785961
1768576237593555000,3.165554931640625,-0.0012887036427855492,0.006411560345441103,-0.008942628279328346
1768576237603555000,3.17555517578125,-0.0033222935162484646,0.005886651109904051,-0.010355701670050621
1768576237613555000,3.185554931640625,-0.004349741153419018,0.002686330582946539,-0.008076036348938942
1768576237623555000,3.19555517578125,-0.006879744119942188,-0.0018748653819784522,-0.006067213602364063
1768576237633554000,3.205553955078125,-0.007326888851821423,-0.007130613550543785,-0.007389472797513008
1768576237643554000,3.215553955078125,-0.007755124941468239,-0.005596633069217205,-0.007868842221796513
1768576237653554000,3.225553955078125,-0.007245928514748812,-0.0020935109350830317,-0.006942860782146454
1768576237663553000,3.235552978515625,-0.0063196811825037,-0.0036514601670205593,-0.00512924836948514
1768576237673553000,3.245552978515625,-0.00583818182349205,-0.009059540927410126,-0.003725229762494564
1768576237683553000,3.255552978515625,-0.004430701024830341,-0.006869091186672449,-0.0002878876985050738
1768576237693553000,3.265552978515625,-0.005579855293035507,-0.004719121381640434,0.0014671353856101632
1768576237703552000,3.275552001953125,-0.007155913859605789,-0.003897003596648574,-0.0001627191377338022
1768576237713552000,3.2855517578125,-0.006673881784081459,-0.004775846842676401,-0.002891926560550928
1768576237723552000,3.295552001953125,-0.0062917182222008705,-0.004004062619060278,-0.0005209143273532391
1768576237733551000,3.305551025390625,-0.006036054342985153,-0.005411010701209307,-0.0001816275907913223
1768576237743551000,3.315551025390625,-0.004806739278137684,-0.009215869009494781,0.0005022721597924829
1768576237753551000,3.325551025390625,-0.0031912659760564566,-0.01025902945548296,-0.0005020058597438037
1768576237763551000,3.335551025390625,-0.00045859633246436715,-0.011869975365698338,0.0015217302134260535
1768576237773550000,3.345550048828125,-0.0005856291390955448,-0.009880860336124897,0.0019590212032198906
1768576237783550000,3.355550048828125,0.00006125270738266408,-0.0126968864351511,-0.0037111148703843355
1768576237793550000,3.365550048828125,-0.0004548678989522159,-0.012439358979463577,-0.005244562868028879
1768576237803549000,3.375548828125,0.000990695902146399,-0.012278503738343716,-0.0025827335193753242
1768576237813549000,3.385549072265625,-0.0014026869321241975,-0.00965608935803175,-0.001912948559038341
1768576237823549000,3.395548828125,-0.0023760723415762186,-0.008267517201602459,-0.0027750139124691486
1768576237833549000,3.405549072265625,-0.004467452876269817,-0.004163053352385759,-0.00577905960381031
1768576237843548200,3.415548095703125,-0.003740143496543169,-0.0020514330826699734,-0.006705040577799082
1768576237853548000,3.425548095703125,-0.0059721386060118675,0.0007355650886893272,-0.006414756178855896
1768576237863548200,3.435548095703125,-0.001966744428500533,0.0041310954838991165,-0.009890181012451649
1768576237873548000,3.445548095703125,-0.002177134156227112,0.0054845139384269714,-0.012443886138498783
1768576237883547100,3.455547119140625,-0.0009108011145144701,0.0033182986080646515,-0.012575180269777775
1768576237893547000,3.465547119140625,-0.00025007082149386406,-0.0003251719754189253,-0.006556968670338392
1768576237903547100,3.475547119140625,0.0011853729374706745,-0.0025720810517668724,-0.0034826158080250025
1768576237913546000,3.4855458984375,0.00039787625428289175,0.00011398329661460593,-0.0036096484400331974
1768576237923546000,3.495546142578125,-0.0007888282998465002,0.005045624915510416,-0.004190484061837196
1768576237933546000,3.5055458984375,-0.00041092574247159064,0.006244846619665623,-0.00618226220831275
1768576237943546000,3.515546142578125,0.0007062703371047974,0.008583367802202702,-0.004865861497819424
1768576237953545200,3.525545166015625,-0.004178499802947044,0.010318417102098465,-0.0015811186749488115
1768576237963545000,3.535545166015625,-0.0037875475827604532,0.009018261916935444,-0.0014945659786462784
1768576237973545000,3.545544921875,-0.004358263220638037,0.01136903464794159,0.00023995080846361816
1768576237983544000,3.5555439453125,-0.003612045431509614,0.014102769084274769,-0.0017963021527975798
1768576237993544200,3.565544189453125,-0.004530569538474083,0.01781628094613552,-0.006076002027839422
1768576238003544000,3.5755439453125,-0.0011358382180333138,0.021075190976262093,-0.006384395994246006
1768576238013544200,3.585544189453125,0.0008753810543566942,0.02624545246362686,-0.007640875410288572
1768576238023543300,3.595543212890625,-0.0005448827287182212,0.026396719738841057,-0.008568720892071724
1768576238033543400,3.60554345703125,0.001386441639624536,0.014720888808369637,-0.004816326778382063
1768576238043543300,3.615543212890625,-0.0032948628067970276,0.017713749781250954,-0.00507039250805974
1768576238053542400,3.62554248046875,-0.0046850331127643585,0.009810819290578365,-0.007710383739322424
1768576238063542300,3.635542236328125,-0.0043859598226845264,-0.0041060615330934525,-0.01082947850227356
1768576238073542400,3.64554248046875,-0.005071990191936493,-0.003132410114631057,-0.014250574633479118
1768576238083542300,3.655542236328125,-0.007815578952431679,-0.0008325041271746159,-0.01386867742985487
1768576238093541400,3.665541259765625,-0.0067753479816019535,0.0073537868447601795,-0.01082628220319748
1768576238103541200,3.675541259765625,-0.009425193071365356,0.013288374990224838,-0.010702711530029774
1768576238113541400,3.685541259765625,-0.010031861253082752,0.014141651801764965,-0.010898454114794731
1768576238123540500,3.69554052734375,-0.0033305492252111435,0.0139019675552845,-0.009005479514598846
1768576238133540400,3.705540283203125,0.000913197931367904,0.00857617799192667,-0.005688512232154608
1768576238143540500,3.71554052734375,0.006214220076799393,-0.002823749789968133,-0.0036629117093980312
1768576238153540400,3.725540283203125,0.011031079106032848,-0.008563394658267498,-0.00239151855930686
1768576238163539500,3.73553955078125,0.008009190671145916,-0.0065353973768651485,-0.0015936355339363217
1768576238173539300,3.745539306640625,0.007136206608265638,-0.0021723404061049223,0.000693220819812268
1768576238183539500,3.75553955078125,0.00484189298003912,0.001439971150830388,0.00010599380766507238
1768576238193538300,3.765538330078125,0.0037646444980055094,0.005362807307392359,-0.0015219965716823936
1768576238203538400,3.775538330078125,0.004258128348737955,0.010466755367815495,0.0013888385146856308
1768576238213538300,3.785538330078125,-0.0007992146420292556,0.010435863398015499,0.0005075985100120306
1768576238223538400,3.795538330078125,-0.0014021543320268393,0.016703080385923386,-0.001966211711987853
1768576238233537300,3.805537353515625,-0.0034786208998411894,0.018982479348778725,-0.005878928117454052
1768576238243537200,3.815537109375,-0.006317550782114267,0.018201639875769615,-0.008052334189414978
1768576238253537500,3.82553759765625,-0.006361226551234722,0.017014136537909508,-0.008303469978272915
1768576238263537400,3.835537353515625,-0.007442203816026449,0.017846642062067986,-0.009953298605978489
1768576238273536300,3.845536376953125,-0.0059750680811703205,0.02232714369893074,-0.009909888729453087
1768576238283536100,3.8555361328125,-0.0024825986474752426,0.018128138035535812,-0.008080030791461468
1768576238293536500,3.86553662109375,-0.0021142836194485426,0.01525591779500246,-0.009875267744064331
1768576238303535000,3.87553515625,-0.002572613535448909,0.013225790113210678,-0.013835388235747814
1768576238313535200,3.88553515625,0.0023377228062599897,0.008268316276371479,-0.015630092471837997
1768576238323535000,3.89553515625,0.0007611314067617059,0.002886600326746702,-0.014040984213352203
1768576238333535200,3.90553515625,0.005230980925261974,0.0057226005010306835,-0.010901649482548237
1768576238343534300,3.915534423828125,0.006771353539079428,0.011086739599704742,-0.010868626646697521
1768576238353534200,3.9255341796875,0.009428123012185097,0.016630908474326134,-0.00962439738214016
1768576238363534300,3.935534423828125,0.011038536205887794,0.019000589847564697,-0.005679457448422909
1768576238373533200,3.945533203125,0.012927516363561153,0.021741515025496483,-0.009371130727231503
1768576238383533300,3.955533203125,0.013101687654852867,0.02093564160168171,-0.015684952959418297
1768576238393533200,3.965533203125,0.0108886007219553,0.009357549250125885,-0.01998249627649784
1768576238403533300,3.975533203125,0.005147357936948538,0.00259418529458344,-0.019722837954759598
1768576238413532200,3.9855322265625,0.0011052117915824056,0.0018836538074538112,-0.015149392187595367
1768576238424157400,3.996157470703125,-0.00045087316539138556,0.0023734092246741056,-0.016324378550052643
1768576238434157300,4.0061572265625,-0.004771851934492588,-0.00044607947347685695,-0.01648496650159359
1768576238444156400,4.016156494140625,-0.006469883490353823,0.004269579891115427,-0.014450844377279282
1768576238454156300,4.02615625,-0.007113835774362087,0.003102316288277507,-0.011316570453345776
1768576238464156400,4.036156494140625,-0.007408115081489086,0.003320695599541068,-0.008040083572268486
1768576238474156300,4.04615625,-0.005499427672475576,0.007231813855469227,-0.01133973989635706
1768576238484155400,4.0561552734375,-0.00387356779538095,0.007376689929515123,-0.010637464001774788
1768576238494155500,4.066155517578125,-0.00427357479929924,0.0017781927017495036,-0.012227904051542282
1768576238504155400,4.0761552734375,-0.006845655385404825,-0.001862348522990942,-0.010133860632777214
1768576238514155300,4.0861552734375,-0.006036054342985153,-0.00024474450037814677,-0.006163886282593012
1768576238524154400,4.096154296875,-0.008086422458291054,-0.0019446401856839657,0.0009390306076966226
1768576238534154500,4.106154541015625,-0.006283728405833244,-0.006137254647910595,0.002124669961631298
1768576238544154400,4.116154296875,-0.0012125372886657715,-0.006843258626759052,0.0020269318483769894
1768576238554153200,4.1261533203125,0.0012998889433220029,0.0012620720081031322,0.00729333283379674
1768576238564153000,4.136153076171875,0.0018138790037482977,0.007334079127758741,0.008140751160681248
1768576238574153500,4.146153564453125,-0.00019734023953787982,0.014068414457142353,0.008885370567440987
1768576238584153300,4.1561533203125,-0.0018868496408686042,0.011766910552978516,0.0043295007199049
1768576238594152200,4.166152099609375,0.000821318884845823,0.0020327907986938953,-0.0011566109023988247
1768576238604152300,4.17615234375,-0.0029406624380499125,-0.009031045250594616,-0.007924501784145832
1768576238614152200,4.186152099609375,-0.00654631620272994,-0.013574930839240551,-0.008127168752253056
1768576238624151300,4.1961513671875,-0.007097324356436729,-0.013048690743744373,-0.010470218025147915
1768576238634151200,4.206151123046875,-0.0046240463852882385,-0.008283229544758797,-0.014161624945700169
1768576238644151300,4.2161513671875,0.0011387676931917667,0.00006364954606397077,-0.010701113380491734
1768576238654151200,4.226151123046875,0.005588377360254526,0.010975153185427189,-0.0048919604159891605
1768576238664150300,4.236150390625,0.007701063062995672,0.013892379589378834,0.001184574095532298
1768576238674150100,4.246150146484375,0.011347196996212006,0.017005082219839096,0.005532184615731239
1768576238684150300,4.256150390625,0.010477674193680286,0.022881880402565002,0.0107695572078228
1768576238694150100,4.266150146484375,0.009040366858243942,0.018744658678770065,0.010511763393878937
1768576238704149200,4.276149169921875,0.005318332463502884,0.013460415415465832,0.010460896417498589
1768576238714149000,4.286149169921875,0.006614493206143379,0.0154340835288167,0.005618737079203129
1768576238724149200,4.296149169921875,0.00794420950114727,0.015573632903397083,0.005249090492725372
1768576238734148400,4.3061484375,0.008935438469052315,0.0160085279494524,0.00180881901178509
1768576238744148200,4.316148193359375,0.009815879166126251,0.015001586638391018,-0.0010000169277191162
1768576238754148400,4.3261484375,0.011899536475539207,0.010838532820343971,-0.002238120650872588
1768576238764148200,4.336148193359375,0.011009507812559605,0.013467338867485523,-0.006117547396570444
1768576238774147300,4.346147216796875,0.01095624454319477,0.015914784744381905,-0.008671252056956291
1768576238784147200,4.356147216796875,0.008794822730123997,0.015196263790130615,-0.013992780819535255
1768576238794147300,4.366147216796875,0.006302903406322002,0.014492656104266644,-0.01401941291987896
1768576238804147200,4.376147216796875,0.006219013594090939,0.015574964694678783,-0.010819624178111553
1768576238814146300,4.386146240234375,0.004632302559912205,0.01860217936336994,-0.015093998052179813
1768576238824771300,4.396771240234375,0.006869623903185129,0.02124643325805664,-0.010893127880990505
1768576238834771500,4.406771484375,0.005830192007124424,0.025054486468434334,-0.008256065659224987
1768576238844770300,4.416770263671875,0.005532717332243919,0.03406129777431488,-0.006755640730261803
1768576238854770400,4.4267705078125,0.0036213663406670094,0.04217541590332985,-0.006449909880757332
1768576238864770300,4.436770263671875,0.0017813884187489748,0.04422338679432869,-0.00484349112957716
1768576238874770400,4.4467705078125,0.0020815266761928797,0.046068958938121796,-0.002828543307259679
1768576238884769300,4.456769287109375,0.0017310547409579158,0.04952787235379219,-0.0023883229587227106
1768576238894769200,4.46676904296875,0.0006255765329115093,0.055874716490507126,-0.0049279131926596165
1768576238904769500,4.47676953125,0.0026559706311672926,0.05697247385978699,-0.004893292207270861
1768576238914768100,4.48676806640625,0.0054578823037445545,0.057557035237550735,-0.00475374236702919
1768576238924768300,4.496768310546875,0.002748914761468768,0.059005528688430786,0.001404284848831594
1768576238934768000,4.50676806640625,0.0009563411585986614,0.05736022815108299,0.0020487697329372168
1768576238944768300,4.516768310546875,-0.001392566948197782,0.05230554938316345,-0.0000876179983606562
1768576238954767000,4.52676708984375,0.0005779059720225632,0.04908685386180878,0.0005360943032428622
1768576238964767200,4.536767333984375,0.000660463934764266,0.04435388371348381,0.00005326322207110934
1768576238974767000,4.54676708984375,0.0031244205310940742,0.04158792272210121,0.0012428972404450178
1768576238984767200,4.556767333984375,0.0030312100425362587,0.03934900462627411,0.003451456781476736
1768576238994766300,4.566766357421875,0.005218197591602802,0.03678810968995094,-0.0016588830621913075
1768576239004766200,4.57676611328125,0.006922088097780943,0.030711572617292404,-0.006403038278222084
1768576239014766000,4.58676611328125,0.006116748321801424,0.021409152075648308,-0.010165019892156124
1768576239024766000,4.596765869140625,0.004727909807115793,0.015859922394156456,-0.00836818479001522
1768576239034765000,4.60676513671875,0.0026261431630700827,0.013295832090079784,-0.012402873486280441
1768576239044765000,4.616764892578125,0.0028602350503206253,0.007193464320152998,-0.011786351911723614
1768576239054765000,4.62676513671875,0.0022213426418602467,0.00259418529458344,-0.00695085059851408
1768576239064765000,4.636764892578125,-0.0012088088551536202,-0.005746036302298307,-0.005420331843197346
1768576239074764000,4.646763916015625,-0.0026383937802165747,-0.00577799417078495,-0.00583738274872303
1768576239084764000,4.656763916015625,-0.0027276095934212208,-0.0030418625101447105,-0.007671235594898462
1768576239094764000,4.666763916015625,-0.005935919936746359,-0.0014434333425015211,-0.01104759145528078
1768576239104763100,4.67676318359375,-0.003552390495315194,-0.0008367652189917862,-0.009352489374577999
1768576239114763000,4.686762939453125,-0.0046964846551418304,0.0006543386843986809,-0.008705873973667622
1768576239124763100,4.69676318359375,-0.003922570031136274,0.0024021712597459555,-0.007446997333317995
1768576239134763000,4.706762939453125,-0.0038389465771615505,0.0015728629659861326,-0.010479538701474667
1768576239144762000,4.71676220703125,-0.0015819176333025098,0.001832521171309054,-0.013110475614666939
1768576239154762000,4.726761962890625,-0.002222407842054963,0.0028759476263076067,-0.010721886530518532
1768576239164762000,4.73676220703125,-0.0004189152386970818,0.00458836043253541,-0.007966313511133194
1768576239174762000,4.746761962890625,0.0017201356822624803,0.0029228192288428545,-0.010497381910681725
1768576239184761000,4.756760986328125,-0.003032541600987315,0.0019465044606477022,-0.0081487400457263
1768576239194761000,4.766760986328125,-0.003769438248127699,0.004226170480251312,-0.0016351809026673436
1768576239204761000,4.776760986328125,-0.005299424286931753,0.00717562111094594,-0.0003312972257845104
1768576239214761000,4.786760986328125,-0.0076121133752167225,0.008685899898409843,-0.002263686852529645
1768576239224760000,4.796760009765625,-0.006162288598716259,0.006867227144539356,-0.0044320328161120415
1768576239234760000,4.806760009765625,-0.005868541542440653,0.007378021255135536,-0.005008340813219547
1768576239244760000,4.816760009765625,-0.006713296286761761,0.010899519547820091,-0.0046786414459347725
1768576239254760000,4.826760009765625,-0.00487331859767437,0.015320632606744766,-0.00515907583758235
1768576239264759000,4.836759033203125,-0.0026370619889348745,0.02203073352575302,-0.003966245800256729
1768576239274759200,4.84675927734375,-0.001109739183448255,0.027905933558940887,-0.0010309095960110426
1768576239284759000,4.856759033203125,-0.0009544769418425858,0.029805565252900124,-0.0027366643771529198
1768576239294759000,4.866759033203125,-0.0014005564153194427,0.028371719643473625,-0.003528155852109194
1768576239304758000,4.876758056640625,-0.0013195963110774755,0.03038693405687809,0.0030868700705468655
1768576239314758100,4.886758056640625,-0.0008522115531377494,0.03045724146068096,0.008765527978539467
1768576239324758000,4.896758056640625,0.0002772350562736392,0.032593630254268646,0.011622034944593906
1768576239334757000,4.906757080078125,0.00032144354190677404,0.03507782518863678,0.009649164974689484
1768576239344757000,4.916757080078125,-0.0004876247840002179,0.031439147889614105,0.006476807873696089
1768576239354757000,4.926757080078125,-0.003900199430063367,0.028301145881414413,0.004449609667062759
1768576239364757000,4.936757080078125,-0.008017180487513542,0.022663766518235207,0.0034911378752440214
1768576239374756000,4.946756103515625,-0.011085940524935722,0.017190704122185707,0.004040015395730734
1768576239384756000,4.956755859375,-0.012206599116325378,0.020665597170591354,0.003793406533077359
1768576239394756000,4.966756103515625,-0.009615076705813408,0.014223144389688969,0.006213421002030373
1768576239404756000,4.976755859375,-0.009093097411096096,0.008358331397175789,0.005856557283550501
1768576239414755000,4.986755126953125,-0.008066448383033276,0.010879545472562313,0.001907089608721435
1768576239424755200,4.996755126953125,-0.008173773996531963,0.012884372845292091,0.001814677962101996
1768576239434755000,5.006755126953125,-0.007896006107330322,0.010615359991788864,0.005630721338093281
1768576239444755200,5.016755126953125,-0.008842493407428265,0.005732454359531403,-0.00017017599020618945
1768576239454754000,5.026754150390625,-0.010232663713395596,0.003950532991439104,-0.004602741450071335
1768576239464754200,5.036754150390625,-0.00863183755427599,0.003456516657024622,0.0023329290561378
1768576239474754000,5.046754150390625,-0.010865431278944016,0.003311108099296689,0.0006567355012521148
1768576239484754200,5.056754150390625,-0.014122210443019867,0.0038804919458925724,0.0017917747609317303
1768576239494753000,5.0667529296875,-0.013201821595430374,0.004576109815388918,0.0028759476263076067
1768576239504753200,5.076753173828125,-0.015596004202961922,0.004668521229177713,0.001091629732400179
1768576239514753000,5.0867529296875,-0.012147476896643639,0.0068155620247125626,0.0003515372518450022
1768576239524753200,5.096753173828125,-0.006311691831797361,0.003108175238594413,-0.001528920722194016
1768576239534752300,5.106752197265625,-0.0026098978705704212,-0.0008021441171877086,-0.0012202603975310922
1768576239544752000,5.116752197265625,-0.0036045885644853115,0.0012394351651892066,0.0008974852971732616
1768576239554752000,5.126751953125,-0.0018927085911855102,0.00038402783684432507,0.004963066894561052
1768576239564752100,5.136752197265625,-0.004408597014844418,0.0014301175251603127,0.0013973605819046497
1768576239574751000,5.1467509765625,-0.0017246630741283298,0.0009843043517321348,-0.011750399135053158
1768576239584751000,5.156751220703125,-0.005044293589890003,-0.0006226470577530563,-0.01507056225091219
1768576239594751200,5.166751220703125,-0.0002442118711769581,-0.0008633967954665422,-0.017071394249796867
1768576239604751000,5.176751220703125,0.005455485545098782,-0.0014793860027566552,-0.01665940321981907
1768576239614750000,5.18675,0.010341321118175983,-0.004464523401111364,-0.014945926144719124
1768576239624749800,5.196749755859375,0.01366467960178852,-0.0033779535442590714,-0.010086456313729286
1768576239634750200,5.206750244140625,0.01272964384406805,-0.0044996771030128,-0.010006029158830643
1768576239644750000,5.21675,0.009498430415987968,-0.0030415961518883705,-0.009771670214831829
1768576239654749000,5.2267490234375,0.004510329570621252,0.004476773552596569,-0.01684582605957985
1768576239664748800,5.236748779296875,-0.0008277104352600873,0.010509366169571877,-0.018066352233290672
1768576239674749000,5.2467490234375,-0.006597715429961681,0.013235378079116344,-0.021586252376437187
1768576239684749000,5.2567490234375,-0.00660677021369338,0.01440876629203558,-0.023138342425227165
1768576239694748000,5.266747802734375,-0.006534065585583448,0.008904279209673405,-0.022162560373544693
1768576239704748000,5.276748046875,-0.004866660572588444,0.008243548683822155,-0.02166801132261753
1768576239714748000,5.286747802734375,0.000008255799002654385,0.01179300993680954,-0.017103886231780052
1768576239724747800,5.296747802734375,0.008478972129523754,0.01170432660728693,-0.00791411567479372
1768576239734747000,5.306746826171875,0.014000237919390202,0.011150655336678028,-0.00003328951424919069
1768576239744747000,5.3167470703125,0.018369685858488083,0.015964319929480553,0.0019587550777941942
1768576239754747000,5.326746826171875,0.018123077228665352,0.01805143803358078,0.00862997304648161
1768576239764747000,5.3367470703125,0.01630653440952301,0.02039102464914322,0.011036405339837074
1768576239774745900,5.346745849609375,0.01145878341048956,0.021913820877671242,0.00920361839234829
1768576239784746000,5.35674609375,0.0059633501805365086,0.02015214040875435,0.001916410750709474
1768576239794745900,5.366745849609375,0.0016306535108014941,0.017785388976335526,-0.003430151380598545
1768576239804746000,5.37674609375,-0.0008191883680410683,0.008570585399866104,-0.007054447196424007
1768576239814744800,5.386744873046875,-0.004126567859202623,0.003796336008235812,-0.011523498222231865
1768576239824745000,5.396744873046875,-0.006943926215171814,-0.00010705907334340736,-0.01191125437617302
1768576239834744800,5.406744873046875,-0.008792692795395851,-0.0032320122700184584,-0.01047501154243946
1768576239844744000,5.416743896484375,-0.005880259443074465,-0.002344380598515272,-0.009351956658065319
1768576239854744000,5.426744140625,-0.006107959896326065,0.0007235808880068362,-0.009884322062134743
1768576239864744000,5.436743896484375,-0.004102067090570927,0.004987834487110376,-0.007124222349375486
1768576239874744000,5.446744140625,-0.0009323726990260184,0.006382265593856573,-0.005222458858042955
1768576239884743000,5.456742919921875,-0.0023635553661733866,0.004536961205303669,-0.007697600871324539
1768576239894743000,5.466742919921875,-0.002282062778249383,0.0028011128306388855,-0.011883823201060295
1768576239904743000,5.476742919921875,-0.00004021373388241045,0.002680737990885973,-0.012864133343100548
1768576239914743000,5.486742919921875,-0.0027153589762747288,0.002353435382246971,-0.013627128675580025
1768576239924742000,5.496741943359375,-0.0025473134592175484,0.0021025657188147306,-0.013666011393070221
1768576239934742000,5.506741943359375,-0.0015385081060230732,0.0018785938154906034,-0.01191285252571106
1768576239944742000,5.516741943359375,-0.0016666061710566282,0.0021515677217394114,-0.010318949818611145
1768576239954742000,5.526741943359375,-0.0025829998776316643,0.00010679275874281302,-0.009139169938862324
1768576239964740900,5.536740966796875,-0.004500742070376873,-0.004640291910618544,-0.0067721521481871605
1768576239974741000,5.546740966796875,-0.005870938766747713,-0.005124188028275967,-0.006593187805265188
1768576239984740900,5.556740966796875,-0.005579056218266487,-0.0028455876745283604,-0.0025009745731949806
1768576239994741000,5.566740966796875,-0.003974235150963068,-0.0024679512716829777,-0.0007933556917123497
1768576240004740000,5.576739990234375,-0.0043891556560993195,-0.0008977515972219408,-0.0012713931500911713
1768576240014740500,5.586740478515625,-0.0015954998089000583,-0.0006215817993506789,-0.0011704593198373914
1768576240024740400,5.596740234375,-0.0017787253018468618,0.0014788532862439752,0.0028067054226994514
1768576240034740500,5.606740478515625,-0.0031100395135581493,0.0013137373607605696,0.00762889115139842
1768576240044739600,5.616739501953125,-0.0021283982787281275,0.00042317630141042173,0.007644071243703365
1768576240054739500,5.626739501953125,-0.0035625104792416096,0.0026756778825074434,0.007305849809199572
1768576240064739600,5.636739501953125,-0.0031225562561303377,0.005590241402387619,0.003282346064224839
1768576240074739500,5.646739501953125,-0.004253068007528782,0.00803022924810648,0.001210939371958375
1768576240084738600,5.656738525390625,-0.0037465349305421114,0.0046845003962516785,-0.0013915016315877438
1768576240094738400,5.666738525390625,-0.004875182639807463,0.0006532734259963036,-0.002889796160161495
1768576240104738600,5.676738525390625,-0.0057351174764335155,0.0020218719728291035,-0.003963316325098276
1768576240114738400,5.686738525390625,-0.005291168577969074,0.005019525997340679,-0.002371012233197689
1768576240124737500,5.696737548828125,-0.0036453348584473133,0.0057590859942138195,-0.0009981527691707015
1768576240134737400,5.7067373046875,-0.005613943561911583,0.011179151013493538,0.0020780644845217466
1768576240144737500,5.716737548828125,-0.0034557178150862455,0.012914466671645641,0.008055263198912144
1768576240154737400,5.7267373046875,-0.003912982530891895,0.012921391054987907,0.011208712123334408
1768576240164736500,5.736736572265625,-0.0038309572264552116,0.011093663983047009,0.011021492071449757
1768576240174736400,5.746736328125,-0.0017449031583964825,0.008840896189212799,0.0028304075822234154
1768576240184736500,5.756736572265625,-0.004776379559189081,-0.0011347729014232755,-0.0036189695820212364
1768576240194736400,5.766736328125,-0.00261841993778944,0.0023307986557483673,-0.00635057408362627
1768576240204735500,5.776735595703125,-0.0013435647124424577,-0.003278883872553706,-0.0068176924251019955
1768576240214735600,5.786735595703125,-0.005109274294227362,-0.009728261269629002,-0.007203584536910057
1768576240224735500,5.796735595703125,-0.004156395327299833,-0.012596485204994678,-0.0021608888637274504
1768576240234735600,5.806735595703125,-0.004692223388701677,-0.01290647778660059,0.0019092201255261898
1768576240244734500,5.816734375,-0.007506652269512415,-0.015578960068523884,0.00538517814129591
1768576240254734600,5.826734619140625,-0.007494135294109583,-0.013697968795895576,0.005336442030966282
1768576240264734500,5.836734375,-0.004799016285687685,-0.010356500744819641,0.005022721830755472
1768576240274734600,5.846734619140625,-0.007897870615124702,-0.005573996342718601,0.0029236183036118746
1768576240284733400,5.8567333984375,-0.007349259220063686,-0.002597647253423929,0.003382214577868581
1768576240294733600,5.866733642578125,-0.007744472473859787,-0.006024869158864021,0.0010695254895836115
1768576240304733400,5.8767333984375,-0.007162838242948055,-0.005107410252094269,0.00213612150400877
1768576240314733600,5.886733642578125,-0.006059224251657724,0.0003009371866937727,0.004177434369921684
1768576240324732400,5.896732421875,-0.0034999263007193804,0.002252235310152173,0.0013494236627593637
1768576240334732500,5.906732666015625,-0.0024194817524403334,-0.007111439015716314,-0.003537210635840893
1768576240344732400,5.916732421875,0.0014924354618415236,-0.017430655658245087,-0.006632602773606777
1768576240354732500,5.926732666015625,0.0009123989730142057,-0.023846743628382683,-0.006365753710269928
1768576240364731600,5.936731689453125,0.002252768026664853,-0.027727501466870308,-0.008284827694296837
1768576240374731500,5.9467314453125,0.001145425601862371,-0.028727784752845764,-0.011388476006686687
1768576240384731600,5.956731689453125,0.001198688754811883,-0.030944600701332092,-0.012662265449762344
1768576240394731500,5.9667314453125,-0.00007590009045088664,-0.025477929040789604,-0.009929862804710865
1768576240404730600,5.976730712890625,-0.0008082693675532937,-0.022889869287610054,-0.010057960636913776
1768576240414730500,5.98673046875,-0.005988916382193565,-0.024446221068501472,-0.009621468372642994
1768576240424730600,5.996730712890625,-0.006561229936778545,-0.01961684413254261,-0.008851282298564911
1768576240434730500,6.00673046875,-0.008375375531613827,-0.015986956655979156,-0.001936650718562305
1768576240444729600,6.0167294921875,-0.009812151081860065,-0.006578274071216583,-0.0013259878614917397
1768576240454729500,6.0267294921875,-0.01130858063697815,0.0004748416249640286,-0.002046106616035104
1768576240464729600,6.0367294921875,-0.012968529015779495,0.009733321145176888,0.003762513864785433
1768576240474729500,6.0467294921875,-0.01161697506904602,0.013072126545011997,0.004412058740854263
1768576240484728600,6.056728515625,-0.011976501904428005,0.01173149049282074,0.002222407842054963
1768576240494728400,6.066728515625,-0.009987120516598225,0.008619320578873158,0.0006567355012521148
1768576240504728600,6.076728515625,-0.008241950534284115,0.007771902717649937,0.003862116253003478
1768576240514728400,6.086728515625,-0.010647851042449474,0.005305283237248659,0.0019473034190014005
1768576240524727600,6.0967275390625,-0.011056379415094852,0.006425142288208008,0.000049801110435510054
1768576240534727700,6.106727783203125,-0.0089966906234622,0.007919175550341606,0.0005400890368036926
1768576240544727600,6.1167275390625,-0.008333830162882805,0.003713245503604412,0.0044440170750021935
1768576240554727700,6.126727783203125,-0.00860440731048584,0.0024317323695868254,0.006666424684226513
1768576240564726500,6.1367265625,-0.00812157616019249,-0.0004093278548680246,0.005901032127439976
1768576240574726700,6.1467265625,-0.00947925541549921,-0.0006447513005696237,0.001017061178572476
1768576240584726500,6.1567265625,-0.012206332758069038,0.0017084177816286683,0.0007909588166512549
1768576240594726700,6.1667265625,-0.010897388681769371,0.00038535939529538155,0.00033209618413820863
1768576240604725500,6.1767255859375,-0.007859786972403526,0.004862399306148291,0.002183792181313038
1768576240614725600,6.1867255859375,-0.008199607022106647,0.002275671111419797,0.002796585438773036
1768576240624725500,6.1967255859375,-0.009920807555317879,-0.0027238810434937477,0.0006258428329601884
1768576240634725600,6.2067255859375,-0.011023090220987797,-0.009795106016099453,-0.004509796854108572
1768576240644724500,6.216724365234375,-0.01176451425999403,-0.00926140882074833,-0.005372394807636738
1768576240654724600,6.226724609375,-0.009560215286910534,-0.008698416873812675,-0.005155880004167557
1768576240664724500,6.236724365234375,-0.009371929802000523,-0.013104083947837353,-0.0015488944482058287
1768576240674724600,6.246724609375,-0.005578257143497467,-0.011658254079520702,0.00034168356796726584
1768576240684723700,6.2567236328125,-0.006742591038346291,-0.007390271872282028,0.0016791230300441384
1768576240694723600,6.2667236328125,-0.00649731419980526,-0.003841609926894307,-0.0009478190331719816
1768576240704723700,6.2767236328125,-0.0079133166000247,-0.0067423246800899506,-0.003463707398623228
1768576240714723600,6.2867236328125,-0.007489341776818037,-0.008643555454909801,-0.005243764258921146
1768576240724722700,6.29672265625,-0.010033459402620792,-0.009388175792992115,-0.004554271697998047
1768576240734722600,6.30672265625,-0.011472098529338837,-0.007654723711311817,-0.010929879732429981
1768576240744722700,6.31672265625,-0.006500243674963713,-0.0137802604585886,-0.01158714760094881
1768576240754722600,6.32672265625,-0.012195679359138012,-0.012338425032794476,-0.00869042705744505
1768576240764721700,6.3367216796875,-0.013148026540875435,-0.00461579067632556,-0.0026354643050581217
1768576240774721500,6.346721435546875,-0.012056129984557629,-0.00498064374551177,-0.0016168050933629274
1768576240784721700,6.3567216796875,-0.01245081052184105,-0.0027419906109571457,-0.005282646510750055
1768576240794721500,6.366721435546875,-0.009575129486620426,0.0017385114915668964,-0.0035659726709127426
1768576240804720400,6.376720458984375,-0.008102401159703732,0.0024346618447452784,-0.003832022426649928
1768576240814720500,6.386720458984375,-0.005333246197551489,0.001642371411435306,-0.007567904889583588
1768576240824720600,6.396720703125,-0.004667988512665033,-0.00035499935620464385,-0.002275671111419797
1768576240834720500,6.406720458984375,-0.004619252867996693,0.0006905576447024941,-0.0022945795208215714
1768576240844719400,6.41671923828125,-0.003891411004588008,-0.0023558323737233877,-0.0032708945218473673
1768576240854719500,6.426719482421875,-0.002633333671838045,-0.004609931726008654,-0.004526575095951557
1768576240864719600,6.4367197265625,-0.001493500778451562,-0.006834736559540033,-0.006625412032008171
1768576240874719700,6.4467197265625,-0.002326803747564554,-0.009365006349980831,-0.005872536450624466
1768576240884718300,6.45671826171875,-0.003287405939772725,-0.008768724277615547,-0.004595017991960049
1768576240894718500,6.466718505859375,-0.0050099384970963,-0.004203000571578741,-0.0018666095566004515
1768576240904718300,6.47671826171875,-0.00526586826890707,-0.0019206717843189836,0.0003760383406188339
1768576240914718700,6.48671875,-0.002704440150409937,0.0019489012192934752,0.002281796419993043
1768576240924717300,6.49671728515625,-0.0005552690709009767,0.002329467097297311,0.0013699301052838564
1768576240934717400,6.506717529296875,0.00008548746700398624,0.0048946235328912735,0.004376638680696487
1768576240944717300,6.51671728515625,0.0015603461069986224,0.008378837257623672,0.0013693973887711763
1768576240954717400,6.526717529296875,0.0014008227735757828,0.009394566528499126,-0.0006713828770443797
1768576240964716500,6.536716552734375,0.0008255799184553325,0.00370179396122694,-0.004311657976359129
1768576240974716400,6.54671630859375,-0.00015659387281630188,0.004551342222839594,-0.007791344076395035
1768576240984716300,6.55671630859375,-0.0011715245200321078,0.0000399474156438373,-0.009748767130076885
1768576240994715400,6.56671533203125,0.0037268276792019606,-0.003913515247404575,-0.012503008358180523
1768576241004715500,6.576715576171875,0.00026844663079828024,0.0007747135823592544,-0.011203385889530182
1768576241014714600,6.586714599609375,0.00006817692337790504,0.003192597534507513,-0.01056502666324377
1768576241024714800,6.59671484375,0.00018429075134918094,0.003257312346249819,-0.007513309828937054
1768576241034714600,6.606714599609375,7.989483492565341e-7,0.003644536016508937,-0.009244098328053951
1768576241044713700,6.616713623046875,-0.0003105245705228299,0.004580903332680464,-0.010427074506878853
1768576241054713600,6.626713623046875,0.0005526058957912028,0.003067961661145091,-0.008450742810964584
1768576241064713700,6.636713623046875,0.002159823663532734,0.0024972460232675076,-0.0049372343346476555
1768576241074713600,6.646713623046875,0.003960386849939823,0.00558278476819396,-0.005422462243586779
1768576241084712700,6.656712646484375,0.0038948729634284973,0.007926899008452892,-0.004047738388180733
1768576241094712800,6.666712890625,0.0038490667939186096,0.007601460441946983,-0.002296177437528968
1768576241104712700,6.676712646484375,0.00199310970492661,0.005278118886053562,-0.002098304685205221
1768576241114712800,6.686712890625,0.002098038326948881,-0.00010972223390126601,-0.003937750123441219
1768576241124711700,6.696711669921875,0.00145222176797688,-0.00010439591278554872,-0.0034764904994517565
1768576241134711800,6.7067119140625,-0.001538241864182055,-0.002621083054691553,-0.005391569808125496
1768576241144711700,6.716711669921875,-0.0017718010349199176,0.0025723471771925688,-0.010121876373887062
1768576241154711800,6.7267119140625,-0.0008189220097847283,0.0047116647474467754,-0.013439109548926353
1768576241164710400,6.73671044921875,-0.0010005496442317963,0.008415056392550468,-0.01683783531188965
1768576241174710800,6.746710693359375,-0.0007890945998951793,0.011952533386647701,-0.018189389258623123
1768576241184710700,6.756710693359375,0.0008636631537228823,0.010421215556561947,-0.014028467237949371
1768576241194710800,6.766710693359375,0.00024101608141791075,0.004966529086232185,-0.014085724949836731
1768576241204709600,6.776709716796875,0.0002300971100339666,0.0009451558580622077,-0.016647951677441597
1768576241214709800,6.786709716796875,-0.0015358449891209602,-0.0019739349372684956,-0.01871563121676445
1768576241224709600,6.796709716796875,-0.0009896307019516826,-0.004559065215289593,-0.016332367435097694
1768576241234709800,6.806709716796875,-0.0004799016169272363,-0.00800120085477829,-0.01512861903756857
1768576241244708600,6.81670849609375,-0.00173717993311584,-0.00993438996374607,-0.014742727391421795
1768576241254708500,6.82670849609375,0.00008948221511673182,-0.009414274245500565,-0.01593662239611149
1768576241264708900,6.836708984375,0.0035113778430968523,-0.012377041392028332,-0.01690894179046154
1768576241274708700,6.846708740234375,-0.0001882854849100113,-0.012957610189914703,-0.02094869129359722
1768576241284707600,6.85670751953125,0.0007102650706656277,-0.011906460858881474,-0.01901070959866047
1768576241294707500,6.86670751953125,-0.0013422331539914012,-0.011722169816493988,-0.01715528406202793
1768576241304707600,6.87670751953125,-0.0004191815387457609,-0.012575979344546795,-0.013738182373344898
1768576241314707700,6.886707763671875,-0.0028940571937710047,-0.011699799448251724,-0.008126369677484035
1768576241324706600,6.89670654296875,-0.0022213426418602467,-0.01251232996582985,-0.0007147924043238163
1768576241334706400,6.90670654296875,-0.004819788970053196,-0.015343003906309605,0.00043116576853208244
1768576241344706600,6.91670654296875,-0.0019837887957692146,-0.014231400564312935,0.0049372343346476555
1768576241354706400,6.92670654296875,-0.003229881636798382,-0.009740778245031834,0.007069627288728952
1768576241364705500,6.93670556640625,-0.002341451123356819,-0.007435545790940523,0.007476824801415205
1768576241374705700,6.94670556640625,-0.002100435085594654,-0.0028125643730163574,0.008087221533060074
1768576241384705500,6.95670556640625,-0.002025333931669593,-0.0010021475609391928,0.00646668765693903
1768576241394705400,6.966705322265625,-0.0038690404035151005,-0.00418435875326395,0.004197940696030855
1768576241404704500,6.97670458984375,-0.004667189903557301,-0.00264744833111763,0.00250523560680449
1768576241414704600,6.98670458984375,-0.00395719101652503,0.00009108010999625549,0.0002918824611697346
1768576241424704500,6.99670458984375,-0.004740160424262285,-0.00210602767765522,-0.0003312972257845104
1768576241434704600,7.00670458984375,-0.001797101111151278,-0.0030309436842799187,-0.0025161546654999256
1768576241444703500,7.016703369140625,0.00006631271389778703,-0.00421205535531044,-0.0008173241512849927
1768576241454703600,7.02670361328125,0.001814411603845656,-0.005147091578692198,-0.001100684516131878
1768576241464703500,7.036703369140625,0.004029895178973675,-0.0011683288030326366,-0.0023212111555039883
1768576241474703600,7.04670361328125,0.001056209672242403,0.0032509206794202328,-0.0006743124104104936
1768576241484702500,7.056702392578125,0.0018634138396009803,0.00047936898772604764,0.0008221178431995213
1768576241494702600,7.06670263671875,0.002014681464061141,0.0019385149935260415,-0.0016160061350092292
1768576241504702500,7.076702392578125,0.0020623519085347652,0.00637960247695446,-0.004771319217979908
1768576241514702600,7.08670263671875,0.0030722226947546005,0.00017177389236167073,-0.005245361942797899
1768576241524701700,7.09670166015625,0.0011182613670825958,-0.01028645969927311,-0.0068243504501879215
1768576241534701600,7.10670166015625,0.0006146575906313956,-0.006773483939468861,-0.007713579572737217
1768576241544701700,7.11670166015625,-0.001344363670796156,-0.008743956685066223,-0.005027248989790678
1768576241554701600,7.12670166015625,-0.0024311996530741453,-0.009122392162680626,-0.0028474517166614532
1768576241564700700,7.13670068359375,-0.004027498420327902,-0.0036493295338004827,0.0008953547803685069
1768576241574700500,7.146700439453125,-0.004399808589369059,0.00035686357296071947,0.0026879284996539354
1768576241584700700,7.15670068359375,-0.002886333968490362,0.004113518632948399,0.008194546215236187
1768576241594700500,7.166700439453125,-0.0021318604703992605,0.004976116586476564,0.012454538606107235
1768576241604699600,7.17669970703125,0.0019113506423309445,0.0013542174128815532,0.012752546928822994
1768576241614699500,7.186699462890625,0.0024458470288664103,-0.0015907060587778687,0.011596201919019222
1768576241624699600,7.19669970703125,0.0022064289078116417,0.0004601942200679332,0.013154151849448681
1768576241634699500,7.206699462890625,0.0012042814632877707,-0.0025033713318407536,0.010517622344195843
1768576241644698600,7.21669873046875,-0.0021899172570556402,-0.0011805793037638068,0.009663812816143036
1768576241654698500,7.226698486328125,-0.003028546692803502,0.00048602689639665186,0.0073263561353087425
1768576241664698600,7.23669873046875,-0.004265851341187954,0.002038117265328765,0.0038783615455031395
1768576241674698500,7.246698486328125,-0.002683401107788086,0.001811482128687203,0.003960386849939823
1768576241684697600,7.256697509765625,-0.00009960222087102011,0.0031372036319226027,0.003555586328729987
1768576241694697700,7.26669775390625,0.003453853540122509,0.0024559672456234694,0.002139050979167223
1768576241704697600,7.276697509765625,0.004810467828065157,0.0021667478140443563,0.001874332781881094
1768576241714697500,7.286697509765625,0.005247758701443672,0.002478603972122073,-0.0013116068439558148
1768576241724696600,7.296696533203125,0.003947603516280651,0.003510312642902136,-0.0016202671686187387
1768576241734696700,7.30669677734375,0.002213885774835944,0.0022101574577391148,-0.005554821342229843
1768576241744696600,7.316696533203125,0.0012290488230064511,0.0036578518338501453,-0.010831874795258045
1768576241754696700,7.32669677734375,0.0003304982965346426,0.005922870244830847,-0.01224335003644228
1768576241764696600,7.336696533203125,-0.0012564794160425663,0.004314321093261242,-0.011408715508878231
1768576241774695700,7.34669580078125,0.002162486780434847,0.0028075044974684715,-0.008085889741778374
1768576241784695600,7.356695556640625,0.0015446334145963192,-0.0025417208671569824,-0.006238721311092377
1768576241794695700,7.36669580078125,0.0018109495285898447,-0.010943727567791939,-0.0016202671686187387
1768576241804695600,7.376695556640625,0.0022005699574947357,-0.012023373506963253,-0.0012386362068355083
1768576241814694700,7.386694580078125,0.000011185276889591478,-0.007685882970690727,-0.001475391210988164
1768576241824694500,7.396694580078125,-0.000984836951829493,-0.0002913498319685459,-0.0023004384711384773
1768576241834694700,7.406694580078125,-0.0020277309231460094,0.0026844663079828024,-0.0028482507914304733
1768576241844694500,7.416694580078125,0.0008349010022357106,0.004671184346079826,-0.003626692807301879
1768576241854693600,7.426693603515625,0.0036967338528484106,0.005936718545854092,-0.005474926438182592
1768576241864693800,7.43669384765625,0.006712763570249081,0.004257329273968935,-0.004918325692415237
1768576241874693600,7.446693603515625,0.005299424286931753,0.001811748486943543,-0.007894674316048622
1768576241884693500,7.456693603515625,0.004945490043610334,-0.0010847054654732347,-0.00851199496537447
1768576241894692600,7.466692626953125,0.005516205448657274,0.0023065637797117233,-0.0070520504377782345
1768576241904692700,7.476692626953125,0.0032623722217977047,0.009221727959811687,-0.007744472473859787
1768576241914692600,7.486692626953125,0.004667189903557301,0.00740358792245388,-0.007191067561507225
1768576241924692700,7.496692626953125,-0.0005416869535110891,0.016746489331126213,-0.014281733892858028
1768576241934691600,7.506691650390625,-0.002852778183296323,0.013488378375768661,-0.014412228949368
1768576241944691700,7.516691650390625,-0.004827778320759535,0.01335894875228405,-0.014720356091856956
1768576241954691600,7.526691650390625,-0.004060788080096245,0.012296613305807114,-0.013467871583998203
1768576241964691700,7.536691650390625,-0.0036770266015082598,0.015145130455493927,-0.009502957575023174
1768576241974690600,7.546690673828125,-0.0023526365403085947,0.014166153036057949,-0.004545216914266348
1768576241984690700,7.556690673828125,-0.0006362291751429439,0.01636512391269207,-0.004239486064761877
1768576241994690600,7.566690673828125,-0.0024136228021234274,0.016500413417816162,-0.005544168874621391
1768576242004690700,7.576690673828125,-0.001324123702943325,0.015421832911670208,-0.007842476479709148
1768576242014690300,7.586690185546875,-0.0019156117923557758,0.015084144659340382,-0.006755374372005463
1768576242024690400,7.5966904296875,-0.0013006879016757011,0.01816409081220627,-0.004320180043578148
1768576242034690300,7.606690185546875,-0.0009289105655625463,0.018671421334147453,-0.0036701022181659937
1768576242044690400,7.6166904296875,-0.004489823244512081,0.02051139995455742,-0.001942509668879211
1768576242054689300,7.626689208984375,-0.0033691651187837124,0.021281586959958076,-0.001910285442136228
1768576242064689400,7.636689453125,-0.0035771578550338745,0.023486683145165443,-0.004823517519980669
1768576242074689300,7.646689208984375,-0.003935087006539106,0.023020630702376366,-0.0018218684708699584
1768576242084689400,7.656689453125,-0.002320412313565612,0.02490455098450184,-0.0021233384031802416
1768576242094688500,7.6666884765625,-0.0018663433147594333,0.02177347242832184,0.00009800432599149644
1768576242104688400,7.6766884765625,-0.0009113337146118283,0.01774171181023121,0.0004410194815136492
1768576242114688500,7.6866884765625,-0.0027627632953226566,0.01636752113699913,0.002030926523730159
1768576242124688400,7.6966884765625,-0.0013619405217468739,0.014957644045352936,0.003968376200646162
1768576242134687500,7.7066875,-0.0016982977977022529,0.010747186839580536,0.0016330503858625889
1768576242144687400,7.716687255859375,-0.0028458540327847004,0.01210007257759571,0.001674861996434629
1768576242154687500,7.7266875,-0.0035451999865472317,0.016457803547382355,0.004621649626642466
1768576242164687400,7.736687255859375,-0.0031121699139475822,0.022124210372567177,-0.0009568737586960196
1768576242174686500,7.7466865234375,-0.001776062068529427,0.023078421130776405,0.004785700235515833
1768576242184686300,7.756686279296875,-0.001386707997880876,0.022097311913967133,0.0010197244118899107
1768576242194686500,7.7666865234375,-0.001139300293289125,0.02076520025730133,0.0054613444954156876
1768576242204686300,7.776686279296875,0.0006540723843500018,0.018063955008983612,0.009297894313931465
1768576242214685400,7.786685546875,-0.003397927153855562,0.01750762015581131,0.008281898684799671
1768576242224685300,7.796685302734375,-0.005343632772564888,0.01534433476626873,0.004579837899655104
1768576242234685400,7.806685546875,-0.006136988289654255,0.015858592465519905,0.008330633863806725
1768576242244685300,7.816685302734375,-0.005435245577245951,0.0172029547393322,0.011901134625077248
1768576242254685400,7.826685546875,-0.0002031991898547858,0.02195536531507969,0.008816394954919815
1768576242264684500,7.8366845703125,0.0009294432238675654,0.022903185337781906,0.002567287301644683
1768576242274684400,7.846684326171875,0.004731638357043266,0.02064296044409275,-0.0003880225704051554
1768576242284684500,7.8566845703125,0.004024568945169449,0.013580523431301117,-0.003397927153855562
1768576242294684400,7.866684326171875,0.0032402679789811373,0.00049108691746369,-0.00971734244376421
1768576242304683500,7.87668359375,0.0022066952660679817,0.0005643238546326756,-0.0023816649336367846
1768576242314683400,7.886683349609375,-0.0014136058744043112,-0.004048271104693413,-0.002114816103130579
1768576242324683500,7.89668359375,-0.0025747441686689854,-0.007105313707143068,-0.00040480049210600555
1768576242334683400,7.906683349609375,-0.0017246630741283298,-0.0068091703578829765,-0.0007270429632626474
1768576242344682500,7.9166826171875,-0.002639725338667631,-0.006603041663765907,-0.001094559207558632
1768576242354682400,7.926682373046875,-0.002784334821626544,-0.0018924422329291701,-0.0008820389630272985
1768576242364682500,7.9366826171875,-0.0021046961192041636,0.0024647556710988283,0.0024085629265755415
1768576242374682400,7.946682373046875,0.0006234460161067545,0.00785339530557394,0.006461095064878464
1768576242384681500,7.956681396484375,-0.0019291938515380025,0.010815629735589027,0.00788535363972187
1768576242394681300,7.966681396484375,-0.0018362496048212051,0.014024206437170506,0.009840646758675575
1768576242404681500,7.976681396484375,-0.0034786208998411894,0.012234295718371868,0.006828344892710447
1768576242414681300,7.986681396484375,-0.004772917367517948,0.012842562049627304,0.003939347807317972
1768576242425305300,7.997305419921875,-0.005365204066038132,0.015599998645484447,0.005888515617698431
1768576242435305500,8.007305419921876,-0.006226204335689545,0.01575792394578457,0.008094144985079765
1768576242445305300,8.017305419921875,-0.0046610645949840546,0.008875250816345215,0.007714911364018917
1768576242455305200,8.02730517578125,-0.002674079965800047,0.0017379788914695382,0.008255266584455967
1768576242465305300,8.037305419921875,-0.0021670141723006964,-0.0009121326729655266,0.005309277679771185
1768576242475304400,8.047304443359375,-0.0012839100090786815,-0.0023158849216997623,0.0004495415778364986
1768576242485304300,8.05730419921875,-0.0018783274572342634,-0.0026059031952172518,-0.005520200356841087
1768576242495304400,8.067304443359374,-0.0023957795929163694,0.00008788431296125054,-0.0035441347863525152
1768576242505304300,8.07730419921875,-0.003876497270539403,0.0029020465444773436,-0.004780640359967947
1768576242515303400,8.087303466796875,-0.005008607171475887,0.00782649777829647,-0.007381217088550329
1768576242525303300,8.09730322265625,-0.005096225067973137,0.006863764952868223,-0.007920240983366966
1768576242535303400,8.107303466796875,-0.0014093448407948017,0.00936154369264841,-0.010010289959609509
1768576242545303300,8.11730322265625,-0.0018602180061861873,0.009182047098875046,-0.010588462464511395
1768576242555302400,8.127302490234374,-0.002172074280679226,0.006651777308434248,-0.010537861846387386
1768576242565302300,8.13730224609375,-0.0031127026304602623,0.0028884646017104387,-0.0065324679017066956
1768576242575302400,8.147302490234376,-0.004245345015078783,-0.0020639498252421618,-0.007555121555924416
1768576242585302300,8.15730224609375,-0.005829659756273031,-0.0017355820164084435,-0.008405735716223717
1768576242595301400,8.16730126953125,-0.00749227125197649,-0.001686579897068441,-0.008499478921294212
1768576242605301500,8.177301513671875,-0.006305566523224115,-0.005519134923815727,-0.008302138186991215
1768576242615301400,8.18730126953125,-0.004710865672677755,-0.005065065808594227,-0.006280532572418451
1768576242625301200,8.19730126953125,-0.0018644790397956967,-0.004689293913543224,-0.0032594427466392517
1768576242635300400,8.20730029296875,-0.002108957152813673,-0.004717523697763681,-0.001871136948466301
1768576242645300500,8.217300537109375,-0.0027680895291268826,-0.003471164032816887,-0.001868207473307848
1768576242655300400,8.22730029296875,-0.00037151097785681486,-0.005530586466193199,-0.006542587652802467
1768576242665300500,8.237300537109375,-0.0031670311000198126,-0.004592354875057936,-0.010412161238491535
1768576242675299300,8.24729931640625,-0.0033249566331505775,-0.0024810009635984898,-0.009148490615189075
1768576242685299500,8.257299560546874,-0.005367867648601532,-0.0017840516520664096,-0.009328787215054035
1768576242695299300,8.26729931640625,-0.004465588368475437,-0.0014801849611103535,-0.009748767130076885
1768576242705299500,8.277299560546876,-0.005967345088720322,-0.002490854589268565,-0.010715494863688946
1768576242715299300,8.28729931640625,-0.006983873434364796,-0.0043862261809408665,-0.010099772363901138
1768576242725298400,8.29729833984375,-0.005869074258953333,-0.004157460760325193,-0.007686149328947067
1768576242735298300,8.30729833984375,-0.00449861166998744,-0.002031725598499179,-0.0029089709278196096
1768576242745298400,8.31729833984375,-0.00481446273624897,-0.0023150858469307423,-0.001990180229768157
1768576242755298300,8.32729833984375,-0.0049223206005990505,0.0005488775204867125,-0.001061802264302969
1768576242765297400,8.33729736328125,-0.005317267496138811,-0.000021305288100847974,-0.0038280277512967587
1768576242775297300,8.34729736328125,-0.004796885885298252,0.001392566948197782,-0.003519101068377495
1768576242785297400,8.35729736328125,-0.005259742960333824,0.0027174896094948053,-0.003311907174065709
1768576242795297300,8.36729736328125,-0.005111937876790762,0.0011906992876902223,-0.0031198931392282248
1768576242805296400,8.37729638671875,-0.005019259639084339,-0.00004793690095539205,-0.0017113472567871213
1768576242815921400,8.38792138671875,-0.002926813904196024,-0.002418949268758297,-0.002353701740503311
1768576242825921300,8.39792138671875,-0.004130030050873756,-0.0019893813878297806,-0.001933987601660192
1768576242835921400,8.40792138671875,-0.003916444722563028,-0.0032716933637857437,-0.0026525084394961596
1768576242845920300,8.417920166015625,-0.0020354539155960083,-0.0026402578223496675,-0.0021252024453133345
1768576242855920400,8.42792041015625,-0.004342284053564072,-0.00407596817240119,-0.0012658004416152835
1768576242865920300,8.437920166015624,-0.004580104257911444,-0.0028690234757959843,0.0003281014505773783
1768576242875920400,8.44792041015625,-0.0062403189949691296,-0.0016820525052025914,0.0006202502408996224
1768576242885919200,8.457919189453126,-0.007555121555924416,-0.002292981604114175,0.0030778152868151665
1768576242895919400,8.46791943359375,-0.008914931677281857,-0.005941246170550585,0.0023086944129318
1768576242905919200,8.477919189453125,-0.005750563926994801,-0.004553206264972687,-0.0006258428329601884
1768576242915919400,8.48791943359375,-0.004699414130300283,-0.0015688681742176414,-0.00379021093249321
1768576242925919200,8.497919189453125,-0.0058080879971385,0.0037979339249432087,-0.003897269954904914
1768576242935918300,8.50791845703125,-0.004072772338986397,0.003394731320440769,0.001141963410191238
1768576242945918200,8.517918212890624,-0.0029313412960618734,0.0007265103631652892,-0.003037867834791541
1768576242955918300,8.52791845703125,-0.002138784620910883,-0.0006862966110929847,-0.0035896748304367065
1768576242965918200,8.537918212890625,-0.003156378399580717,0.002104163635522127,-0.0025651566684246063
1768576242975917300,8.547917236328125,-0.0011867046123370528,0.005150021053850651,-0.00461765518411994
1768576242985917400,8.55791748046875,0.0004676510870922357,0.010031328536570072,-0.0021582257468253374
1768576242995917300,8.567917236328125,0.002037051832303405,0.012927250005304813,-0.005564941558986902
1768576243005917200,8.577917236328124,0.004050401505082846,0.013132046908140182,-0.00759933004155755
1768576243015916300,8.587916259765626,0.0020562265999615192,0.004947620443999767,-0.0042719766497612
1768576243025916400,8.59791650390625,0.00036911413189955056,-0.0006072007236070931,-0.006099437829107046
1768576243035916300,8.607916259765625,-0.001978995045647025,-0.002156361471861601,-0.0067820060066878796
1768576243045916400,8.61791650390625,-0.004309527110308409,-0.003808320267125964,-0.009502158500254154
1768576243055916300,8.627916259765625,-0.005876531358808279,-0.0038187066093087196,-0.007193730678409338
1768576243065915400,8.637915283203125,-0.006906908005475998,-0.0022684806026518345,-0.006867493502795696
1768576243075915300,8.647915283203124,-0.005995041690766811,0.00020133497309871018,-0.005751628894358873
1768576243085915400,8.657915283203126,-0.004433630499988794,0.0011323761427775025,-0.0027651600539684296
1768576243095915300,8.667915283203126,-0.0003123887872789055,-0.0006018743733875453,-0.0007709851488471031
1768576243105914400,8.677914306640625,0.0016908409306779504,-0.002198972040787339,0.0016098808264359832
1768576243115914200,8.687914306640625,0.0003073287953156978,-0.006253102328628302,0.002629871480166912
1768576243125914400,8.697914306640625,0.00032623723382130265,-0.002671150490641594,0.0006476807757280767
1768576243135914200,8.707914306640625,-0.002055427758023143,-0.006162820849567652,0.0014349111588671803
1768576243145913300,8.717913330078124,-0.002942526713013649,-0.007719438523054123,-0.0034756914246827364
1768576243155913500,8.72791357421875,-0.00490314606577158,-0.0035358788445591927,-0.0034439999144524336
1768576243165913300,8.737913330078126,-0.003569967346265912,-0.005479986313730478,-0.0024434502702206373
1768576243175913200,8.747913330078125,-0.002837864449247718,-0.006358030717819929,-0.00016405072528868914
1768576243185913300,8.757913330078125,-0.004543086513876915,-0.00806032307446003,0.0023790018167346716
1768576243195912400,8.767912353515625,-0.004295678809285164,-0.0054509579204022884,0.002290318487212062
1768576243205912300,8.777912353515624,-0.004328435752540827,-0.006088519003242254,0.0028061727061867714
1768576243215912400,8.787912353515624,-0.006193713750690222,-0.006215285509824753,-0.0002569950302131474
1768576243225912300,8.797912353515626,-0.008290953002870083,-0.005681854207068682,0.0003217098710592836
1768576243235911400,8.807911376953125,-0.00914502888917923,-0.005255482159554958,-0.0018042916199192405
1768576243245911300,8.817911376953125,-0.008058193139731884,-0.0017728663515299559,-0.0015893745003268123
1768576243255911400,8.827911376953125,-0.006163886282593012,-0.0007494135061278939,-0.002787530655041337
1768576243265911300,8.837911376953125,-0.005213137716054916,0.0010311759542673826,-0.0005760417552664876
1768576243275911400,8.847911376953125,-0.004263188224285841,-0.0004732437082566321,0.0043561323545873165
1768576243285910300,8.85791015625,-0.003832555143162608,-0.004064782522618771,0.005270662251859903
1768576243295910400,8.867910400390626,-0.004864530172199011,-0.003875964554026723,0.002091646660119295
1768576243305910300,8.87791015625,-0.007182279136031866,-0.0057737333700060844,0.0017779263434931636
1768576243315910400,8.887910400390625,-0.007985754869878292,-0.005320996046066284,0.0022738068364560604
1768576243325909500,8.897909423828125,-0.007601194549351931,-0.0026258768048137426,0.00013875069271307439
1768576243335909400,8.907909423828125,-0.008066448383033276,-0.002389654517173767,0.0035087147261947393
1768576243345909200,8.9179091796875,-0.005634183529764414,-0.0020881847012788057,0.007796936668455601
1768576243355909400,8.927909423828124,-0.004276237916201353,0.0005006743012927473,0.0057526943273842335
1768576243365909200,8.9379091796875,-0.0034932682756334543,0.001186970854178071,0.0019052254501730204
1768576243375908400,8.947908447265625,-0.000003462109361862531,0.0015547533985227346,0.00024474450037814677
1768576243385908500,8.957908447265625,-0.00028309403569437563,0.003605653764680028,-0.002897785510867834
1768576243395908400,8.967908447265625,0.0009507485083304346,0.0016471651615574956,-0.002126534003764391
1768576243405908200,8.977908203125,-0.001811482128687203,0.0027326694689691067,-0.005303685087710619
1768576243415907300,8.9879072265625,-0.0019267969764769077,0.004340686369687319,-0.00563977612182498
1768576243425907500,8.997907470703124,-0.0011635350529104471,0.002651176881045103,-0.005632585845887661
1768576243435907300,9.0079072265625,0.0017622136510908604,0.003055711043998599,-0.007472030818462372
1768576243445907500,9.017907470703125,0.0014982944121584296,0.0015696671325713396,-0.00418435875326395
1768576243455907300,9.0279072265625,0.0018690064316615462,0.003611779073253274,-0.0004950816510245204
1768576243465906400,9.037906494140625,0.0014125406742095947,0.007455253042280674,-0.0016330503858625889
1768576243475906300,9.04790625,0.0024474449455738068,0.010017747059464455,-0.0025302693247795105
1768576243485906400,9.057906494140624,0.0023877902422100306,0.014645787887275219,-0.0036578518338501453
1768576243495906300,9.06790625,0.002552639925852418,0.01944746822118759,-0.004057858604937792
1768576243505905200,9.0779052734375,0.005022988189011812,0.017596038058400154,-0.0018277274211868644
1768576243515905300,9.0879052734375,0.005603823345154524,0.019063705578446388,0.0011124024167656898
1768576243525905400,9.097905517578125,0.006981743033975363,0.018323080614209175,0.0018852517241612077
1768576243535905300,9.1079052734375,0.005037635564804077,0.015563246794044971,0.0036674391012638807
1768576243545905400,9.117905517578125,0.009574596770107746,0.01685274951159954,0.006139917764812708
1768576243555904300,9.127904296875,0.010231864638626575,0.018638931214809418,0.008704009465873241
1768576243565904400,9.137904296875,0.005861351266503334,0.016712401062250137,0.005133242812007666
1768576243575904300,9.147904296875,0.005726329050958157,0.01173362135887146,0.008467786945402622
1768576243585904400,9.157904296875,-0.001782187377102673,0.006073605269193649,0.00720411678776145
1768576243595903200,9.1679033203125,-0.0015209312550723553,0.005428587552160025,0.011347996070981026
1768576243605903000,9.177903076171875,-0.0034650389570742846,0.007340470794588327,0.01215839572250843
1768576243615903500,9.187903564453125,-0.006054696626961231,0.008421980775892735,0.008345814421772957
1768576243625903400,9.1979033203125,-0.006783603690564632,0.010701113380491734,0.0067636300809681416
1768576243635903200,9.2079033203125,-0.005440571811050177,0.012441756203770638,0.006724481470882893
1768576243645902000,9.217902099609375,-0.004008057527244091,0.012083826586604118,0.005247758701443672
1768576243655902200,9.227902099609375,-0.00018375810759607702,0.004249606281518936,-0.00009028115891851485
1768576243665902300,9.23790234375,-0.007375624496489763,0.013390639796853065,0.0027779433876276016
1768576243675902500,9.24790234375,-0.003376888344064355,0.012473713606595993,0.0024074974935501814
1768576243685901000,9.257901123046874,-0.004975583869963884,0.019184879958629608,0.00023861923546064645
1768576243695901200,9.267901123046874,-0.0036847495939582586,0.01872308738529682,0.00004207794336252846
1768576243705901000,9.277901123046876,-0.004815527703613043,0.016977917402982712,-0.00022903185163158923
1768576243715901400,9.2879013671875,-0.004237355664372444,0.01082814671099186,-0.0004546015989035368
1768576243725901300,9.2979013671875,-0.005844839382916689,0.0009560748003423214,-0.00330205331556499
1768576243735900200,9.307900146484375,-0.009326656349003315,-0.005569735076278448,-0.001534779672510922
1768576243745900000,9.317900146484375,-0.01034744642674923,-0.004107393324375153,-0.00006684534309897572
1768576243755900400,9.327900390625,-0.013893445022404194,-0.012968262657523155,0.0015765913994982839
1768576243765900300,9.337900390625,-0.014256966300308704,-0.018492192029953003,0.0006649913266301155
1768576243775899100,9.347899169921876,-0.01270061545073986,-0.021733524277806282,-0.00026604978484101593
1768576243785899300,9.357899169921875,-0.011088870465755463,-0.026434803381562233,-0.0029909962322562933
1768576243795899100,9.367899169921875,-0.010362093336880207,-0.026037726551294327,-0.00487092137336731
1768576243805899300,9.377899169921875,-0.009298160672187805,-0.022433936595916748,-0.00603419030085206
1768576243815899400,9.3878994140625,-0.009610815905034542,-0.022372949868440628,-0.005317800212651491
1768576243825898200,9.397898193359374,-0.008054996840655804,-0.018966766074299812,-0.006481335032731295
1768576243835898000,9.407898193359374,-0.010640127584338188,-0.012404471635818481,0.000258859246969223
1768576243845898200,9.417898193359376,-0.007211307529360056,-0.010104299522936344,0.0028972530271857977
1768576243855898400,9.4278984375,-0.007879761047661304,-0.009677127934992313,0.00461765518411994
1768576243865897200,9.437897216796875,-0.006112753413617611,-0.0057316552847623825,0.0023787354584783316
1768576243875897000,9.44789697265625,-0.0044200485572218895,-0.005760417319834232,0.0037798245903104544
1768576243885897200,9.457897216796875,-0.00395692465826869,-0.0012551478575915098,0.001796834752894938
1768576243895897000,9.46789697265625,-0.003007774008437991,0.0005597964627668262,0.00033635724685154855
1768576243905897500,9.4778974609375,-0.002177666872739792,-0.0011922972043976188,-0.0010002832859754562
1768576243915896000,9.48789599609375,0.00000852211542223813,-0.003970240708440542,-0.0009992180857807398
1768576243925896200,9.497896240234375,-0.0033459956757724285,-0.0035169704351574183,-0.00627094553783536
1768576243935896000,9.50789599609375,-0.0014788532862439752,0.002213619416579604,-0.007242466323077679
1768576243945896200,9.517896240234375,-0.0009366337326355278,0.011159444227814674,-0.003369697602465749
1768576243955895300,9.527895263671875,-0.0030208237003535032,0.017892980948090553,-0.007056045345962048
1768576243965895200,9.537895263671874,-0.0039015309885144234,0.022494124248623848,-0.006877879612147808
1768576243975895000,9.54789501953125,-0.0009747169679030776,0.02744893543422222,-0.0021544971968978643
1768576243985895200,9.557895263671876,0.004743356257677078,0.027451863512396812,0.0014303837670013309
1768576243995895000,9.56789501953125,-0.0008562062866985798,0.028235632926225662,0.0016013587592169642
1768576244005894100,9.57789404296875,0.0035217641852796078,0.03351428359746933,-0.0018868496408686042
1768576244015894300,9.587894287109375,0.003995007835328579,0.03340855613350868,-0.0022708773612976074
1768576244025894000,9.597893798828125,0.0006117281154729426,0.032579779624938965,-0.0004551342281047255
1768576244035894000,9.60789404296875,-0.003850131994113326,0.034689269959926605,0.003418966196477413
1768576244045892900,9.617892822265626,-0.004510862287133932,0.033058881759643555,0.0062581622041761875
1768576244055893000,9.62789306640625,-0.004235225263983011,0.029118737205863,0.006962834391742945
1768576244065892900,9.637892822265625,-0.005314604379236698,0.024750886484980583,0.007135141175240278
1768576244075893000,9.64789306640625,-0.004352404270321131,0.022943399846553802,0.006709568202495575
1768576244085892900,9.657892822265625,-0.0035444011446088552,0.023720242083072662,0.006807039491832256
1768576244095892000,9.66789208984375,-0.003434146288782358,0.022433137521147728,0.009131446480751038
1768576244105891800,9.677891845703124,-0.004151069093495607,0.021327126771211624,0.008899219334125519
1768576244115892000,9.68789208984375,-0.0023401195649057627,0.016883907839655876,0.004476507660001516
1768576244125891800,9.697891845703126,-0.0049161952920258045,0.01239328645169735,0.001133174984715879
1768576244135891000,9.707890869140625,-0.007129548583179712,0.015976568683981895,0.004533765371888876
1768576244145891000,9.71789111328125,-0.005705023650079966,0.016717461869120598,0.006099970545619726
1768576244155891000,9.727890869140625,-0.005289570428431034,0.014285461977124214,0.004095409065485001
1768576244165890800,9.737890869140625,-0.0043923514895141125,0.011554124765098095,0.004956408869475126
1768576244175891000,9.747890869140624,-0.004662395920604467,0.006491188891232014,0.004351605195552111
1768576244185890000,9.75789013671875,-0.003025350859388709,0.00504003232344985,0.0026130937039852142
1768576244195890000,9.767889892578125,-0.0020793962758034468,0.002287122653797269,-0.0005954828229732811
1768576244205890000,9.77789013671875,-0.005787848029285669,0.0041153826750814915,-0.0033534523099660873
1768576244215890000,9.787889892578125,-0.0062616243958473206,0.0021632856223732233,-0.004031493328511715
1768576244225889000,9.797888916015625,-0.006493052933365107,0.0031427964568138123,-0.003447728231549263
1768576244235889000,9.807888916015624,-0.007644870318472385,0.0038746329955756664,-0.00794394314289093
1768576244245889000,9.817888916015624,-0.007453389000147581,0.0036330842413008213,-0.012285960838198662
1768576244255889000,9.827888916015626,-0.00821771565824747,-0.0029467877466231585,-0.013073723763227463
1768576244265889000,9.837888916015626,-0.005594502668827772,-0.0015073491958901286,-0.012083561159670353
1768576244275887900,9.847887939453125,-0.006874417886137962,0.00036458674003370106,-0.00993172638118267
1768576244285888000,9.857887939453125,-0.008042213506996632,0.003129480639472604,-0.0022450448013842106
1768576244295888000,9.867887939453125,-0.00914422981441021,0.00509782275184989,-0.0014572817599400878
1768576244305888000,9.877887939453124,-0.008802812546491623,0.00631994754076004,-0.002526541007682681
1768576244315886800,9.887886962890626,-0.007355650886893272,0.003858920419588685,-0.0062248725444078445
1768576244325887000,9.897886962890626,-0.005113269202411175,0.00101120222825557,-0.006672017276287079
1768576244335886800,9.907886962890625,0.00001917476038215682,-0.0004415521107148379,-0.009340505115687847
1768576244345887000,9.917886962890625,-0.0002591255761217326,-0.0033894050866365433,-0.006683735176920891
1768576244355886800,9.927886962890625,0.002650910522788763,-0.0036517265252768993,-0.008926116861402988
1768576244365886000,9.937885986328125,0.004600344225764275,-0.0035063179675489664,-0.010389789938926697
1768576244375886000,9.947885986328124,0.0049034119583666325,-0.003463707398623228,-0.010966630652546883
1768576244385886000,9.957885986328124,0.006074403878301382,-0.0018815232906490564,-0.010717093013226986
1768576244395885800,9.9678857421875,0.007211573887616396,-0.00017976337403524667,-0.00884941779077053
1768576244405885000,9.977885009765625,0.006418484263122082,-0.0038341530598700047,-0.009340238757431507
1768576244415885000,9.987885009765625,0.00603419030085206,-0.007685350254178047,-0.012656672857701778
1768576244425885000,9.997885009765625,0.0038922098465263844,-0.011845740489661694,-0.014933675527572632
1768576244435885000,10.007885009765625,0.0015600797487422824,-0.01152642723172903,-0.010775149799883366
1768576244445885000,10.017885009765624,0.0004324973560869694,-0.011547466740012169,-0.01233203336596489
1768576244455884000,10.027884033203126,-0.0015028218040242791,-0.009695237502455711,-0.01583302579820156
1768576244465884000,10.0378837890625,0.000010120012120751198,-0.00620995881035924,-0.009663812816143036
1768576244475884000,10.047884033203125,-0.001359277404844761,-0.004277302883565426,-0.005663211923092604
1768576244485884000,10.0578837890625,-0.0016098808264359832,-0.0003153182624373585,-0.009251289069652557
1768576244495883000,10.067883056640625,-0.0013853764394298196,-0.0005174521938897669,-0.01401888020336628
1768576244505883000,10.0778828125,-0.0006554039428010583,-0.0005073322099633515,-0.012632171623408794
1768576244515883000,10.087883056640624,0.00003781688792514615,-0.0019917781464755535,-0.015974706038832664
1768576244525883000,10.0978828125,-0.0015164038632065058,-0.006619286723434925,-0.019467175006866455
1768576244535883000,10.107883056640626,-0.0020216056145727634,-0.006981210317462683,-0.017894579097628593
1768576244545882000,10.117882080078125,-0.0033654365688562393,-0.005321528296917677,-0.01666606217622757
1768576244555882000,10.127882080078125,-0.002974484581500292,-0.004393683280795813,-0.014449512585997581
1768576244565881900,10.1378818359375,0.0012034825049340725,0.00021438446128740907,-0.00911520142108202
1768576244575882000,10.147882080078125,-0.00008122641156660393,-0.0012096078135073185,-0.0071066454984247684
1768576244585881000,10.157881103515624,0.0026908579748123884,-0.004941229242831469,-0.007454986684024334
1768576244595881000,10.167880859375,0.0008945558220148087,-0.007366836071014404,-0.009079248644411564
1768576244605881000,10.177881103515626,-0.001202150946483016,-0.006309028714895248,-0.008786301128566265
1768576244615881000,10.187880859375,-0.002290052128955722,-0.004818190820515156,-0.006284527480602264
1768576244625880000,10.197880126953125,-0.0020660804584622383,-0.005263471510261297,-0.002840261207893491
1768576244635880000,10.2078798828125,-0.003224289044737816,-0.004878644831478596,-0.0046512107364833355
1768576244645880000,10.217880126953125,-0.002641589380800724,-0.006786799523979425,-0.003919906914234161
1768576244655880000,10.2278798828125,0.00020746025256812572,-0.006077067460864782,0.001585646066814661
1768576244665880000,10.237880126953126,-0.0004974784678779542,-0.004379035905003548,0.005859486758708954
1768576244675879000,10.24787890625,-0.001567802974022925,-0.0023723437916487455,0.005558549892157316
1768576244685879000,10.257879150390625,-0.005115133244544268,-0.0019883159548044205,0.00646748673170805
1768576244695879000,10.26787890625,-0.00777509855106473,0.00088976213010028,0.006741792429238558
1768576244705879000,10.277879150390625,-0.007878162898123264,0.003754524514079094,0.004930576309561729
1768576244715878000,10.2878779296875,-0.00818203017115593,0.0032205607276409864,0.003826962551102042
1768576244725878000,10.2978779296875,-0.006115949247032404,0.006612362805753946,0.004908205941319466
1768576244735878000,10.3078779296875,-0.006699447985738516,0.006386526394635439,0.0029529130551964045
1768576244745878000,10.3178779296875,-0.004744687583297491,0.005276521202176809,-0.0009560748003423214
1768576244755878000,10.3278779296875,-0.0019355855183675885,0.0021614215802401304,-0.0019864519126713276
1768576244765877000,10.337876953125,-0.0021824603900313377,-0.0007909588166512549,-0.0051894355565309525
1768576244775877000,10.347877197265625,0.00025486451340839267,0.0013994910987094045,-0.002691656816750765
1768576244785877000,10.357876953125,-0.0015592807903885841,0.002237321576103568,-0.0011289139511063695
1768576244795876900,10.367876953125,-0.0008588694618083537,0.0016964336391538382,-0.0025901903863996267
1768576244805876000,10.3778759765625,-0.0009920274605974555,0.0005696501466445625,-0.002141980454325676
1768576244815876000,10.3878759765625,-0.0018034926615655422,0.0033047166652977467,-0.005008607171475887
1768576244825876000,10.3978759765625,-0.0021811288315802813,0.005368932615965605,-0.0049433596432209015
1768576244835876000,10.4078759765625,-0.004211256746202707,0.003376621985808015,-0.0022146848496049643
1768576244845876000,10.4178759765625,-0.0034376082476228476,0.002513757674023509,-0.0023499734234064817
1768576244855875000,10.427875,-0.005155880004167557,0.0057652113027870655,-0.002240517409518361
1768576244865875000,10.437875,-0.0029640982393175364,0.003962517250329256,-0.004318315535783768
1768576244875875000,10.447875,-0.0027326694689691067,0.00170788518153131,-0.00797403696924448
1768576244885875000,10.457875,0.0004897553008049726,0.00023276027059182525,-0.012135758996009827
1768576244895874000,10.4678740234375,0.0013145363191142678,-0.002375007141381502,-0.011742942035198212
1768576244905874000,10.4778740234375,0.003921770956367254,-0.0035430695861577988,-0.009579923003911972
1768576244915874000,10.4878740234375,0.003413107246160507,-0.004636829718947411,-0.008557002991437912
1768576244925874000,10.4978740234375,0.00293320557102561,-0.002650377806276083,-0.01290408056229353
1768576244935874000,10.5078740234375,0.0020849888678640127,-0.00024447820032946765,-0.017172861844301224
1768576244945873000,10.517872802734376,0.0009214537567459047,-0.0013816480059176683,-0.01962110586464405
1768576244955873000,10.527873046875,-0.0004884237423539162,-0.0012452941155061126,-0.018571820110082626
1768576244965873000,10.537872802734375,-0.0016383767360821366,0.0009361011325381696,-0.01817341148853302
1768576244975873000,10.547873046875,-0.0030312100425362587,0.007195328362286091,-0.015122493728995323
1768576244985872100,10.5578720703125,-0.0034732946660369635,0.008441953919827938,-0.016980847343802452
1768576244995872000,10.5678720703125,-0.0031015174463391304,0.006327138282358646,-0.013861486688256264
1768576245005872000,10.5778720703125,-0.0005941512063145638,0.004027232062071562,-0.012528308667242527
1768576245015872000,10.5878720703125,-0.0027201527263969183,0.001945439144037664,-0.008207063190639019
1768576245025872400,10.597872314453125,-0.001407480682246387,0.0001347559446003288,-0.007122890558093786
1768576245035871500,10.60787158203125,-0.0018402442801743746,-0.0002383529208600521,-0.009160208515822887
1768576245045871600,10.61787158203125,-0.002715625334531069,-0.0038895467296242714,-0.011607919819653034
1768576245055871500,10.62787158203125,-0.002079928759485483,0.0008764463127590716,-0.015475096181035042
1768576245065871400,10.637871337890624,-0.003683151677250862,0.0023513049818575382,-0.0148623026907444
1768576245075870500,10.647870361328126,-0.0034466630313545465,0.0014852449530735612,-0.01182070653885603
1768576245085870600,10.65787060546875,-0.002924949862062931,0.004432831425219774,-0.009167132899165154
1768576245095870500,10.667870361328125,0.0004926847759634256,0.008902947418391705,-0.009495766833424568
1768576245105870600,10.67787060546875,0.0006311691831797361,0.011420699767768383,-0.013460149057209492
1768576245115870500,10.687870361328125,0.002519350266084075,0.011227620765566826,-0.013516874052584171
1768576245125869600,10.69786962890625,0.0031529164407402277,0.012909140437841415,-0.012942164205014706
1768576245135869400,10.707869384765624,0.0054357778280973434,0.011358648538589478,-0.014884141273796558
1768576245145869600,10.71786962890625,0.004791559185832739,0.004825914278626442,-0.013098757714033127
1768576245155869400,10.727869384765626,0.002412557601928711,0.001264735241420567,-0.013373329304158688
1768576245165868500,10.73786865234375,0.00020133497309871018,0.0016564861871302128,-0.011656655929982662
1768576245175868400,10.747868408203125,-0.0002282329078298062,0.0010138654615730047,-0.010337059386074543
1768576245185868500,10.75786865234375,-0.0030013825744390488,0.007012369576841593,-0.011841479688882828
1768576245195868400,10.767868408203125,-0.003634682158008218,0.008192948997020721,-0.011720571666955948
1768576245205868500,10.77786865234375,-0.0008548747282475233,0.010124805383384228,-0.013025786727666855
1768576245215867400,10.787867431640626,-0.0013930995482951403,0.01312325894832611,-0.013140569441020489
1768576245225867500,10.797867431640626,-0.0003563309437595308,0.016023973003029823,-0.009710684418678284
1768576245235867400,10.807867431640625,-0.0006886934279464185,0.013877732679247856,-0.002781671704724431
1768576245245867500,10.817867431640625,-0.0006671218434348702,0.011461712419986725,-0.00013555490295402706
1768576245255866600,10.82786669921875,-0.0009270463488064706,0.012081430293619633,-0.0014671353856101632
1768576245265866500,10.837866455078125,-0.0034317492973059416,0.015113173052668571,-0.004257595632225275
1768576245275866600,10.84786669921875,-0.005678658373653889,0.012706740759313107,-0.0040943436324596405
1768576245285866500,10.857866455078126,-0.004531102254986763,0.011511247605085373,-0.003950266633182764
1768576245295866400,10.867866455078126,-0.0030511836521327496,0.008164453320205212,-0.004225371405482292
1768576245305865500,10.877865478515625,-0.0009190568816848099,0.007456052117049694,-0.003600061172619462
1768576245315865600,10.887865478515625,0.00166633992921561,0.008313057012856007,-0.005711948033422232
1768576245325865500,10.897865478515625,0.004343882203102112,0.004720719531178474,-0.00350392097607255
1768576245335865600,10.907865478515625,0.0015251922886818647,0.0020692760590463877,-0.0011914982460439205
1768576245345864400,10.917864501953124,0.0013771206140518188,0.0033939324785023928,-0.005962018854916096
1768576245355864600,10.927864501953126,-0.001487375469878316,0.006616090890020132,-0.00962572917342186
1768576245365864400,10.937864501953126,-0.0023470439482480288,0.006434197071939707,-0.010629208758473396
1768576245375864600,10.947864501953125,-0.0011036139912903309,0.01170485932379961,-0.006658968050032854
1768576245385864400,10.957864501953125,-0.0007968177669681609,0.011813782155513763,-0.003820038167759776
1768576245395863600,10.967863525390625,0.0004577973741106689,0.010542921721935272,-0.002686330582946539
1768576245405863400,10.977863525390624,0.0002556634717620909,0.008503473363816738,-0.0006087986403144896
1768576245415863600,10.987863525390624,-0.000737695605494082,0.007694138679653406,0.0029878003988415003
1768576245425863400,10.997863525390626,-0.0003981425834354013,0.009063802659511566,-0.0005060005933046341
1768576245435862500,11.007862548828125,-0.004524710588157177,0.005565207917243242,-0.0004695153038483113
1768576245445862700,11.017862548828125,-0.004200870171189308,0.0035539884120225906,-0.0034879420418292284
1768576245455862500,11.027862548828125,-0.004553738981485367,0.0054581486620008945,-0.002977680414915085
1768576245465862400,11.0378623046875,-0.0036432044580578804,0.008451541885733604,-0.0003174488083459437
1768576245475862500,11.047862548828125,-0.0014141384745016694,0.008534366264939308,-0.003736681304872036
1768576245485861600,11.057861572265624,0.002216815249994397,0.009645436890423298,-0.0007339671719819307
1768576245495861500,11.067861572265626,0.00005219795639277436,0.008852614089846611,0.0009020126308314502
1768576245505861600,11.077861572265626,0.0019377160351723433,0.011169830337166786,-0.000031691615731688216
1768576245515861500,11.087861572265625,0.002111886627972126,0.010482735000550747,-0.0020354539155960083
1768576245525860600,11.097860595703125,0.0006767092272639275,0.009241435676813126,-0.006294913589954376
1768576245535860500,11.107860595703125,0.00045060686534270644,0.012514193542301655,-0.005221393425017595
1768576245545860600,11.117860595703124,-0.002807770622894168,0.005934055428951979,-0.0034527883399277925
1768576245555860500,11.127860595703124,-0.0051995557732880116,0.004535629414021969,-0.003540406236425042
1768576245565860600,11.137860595703126,-0.0023403859231621027,0.0008343683439306915,-0.0018109495285898447
1768576245575859500,11.147859375,-0.0013166668359190226,0.015422631986439228,-0.0043563987128436565
1768576245585859600,11.157859619140625,-0.002162753138691187,0.006953247357159853,-0.002956641372293234
1768576245595859500,11.167859375,-0.002758235903456807,0.009036637842655182,-0.0035582494456321
1768576245605859600,11.177859619140625,-0.0007976167253218591,0.010397247038781643,-0.0054544201120734215
1768576245615858400,11.1878583984375,-0.002326004905626178,0.012035357765853405,-0.00800173357129097
1768576245625858600,11.197858642578124,-0.0019678096286952496,0.01053253561258316,-0.0046935551799833775
1768576245635858400,11.2078583984375,-0.0007864314829930663,0.009732255712151527,-0.0019140138756483793
1768576245645858600,11.217858642578125,-0.0003563309437595308,0.010605772957205772,-0.006359362509101629
1768576245655858400,11.2278583984375,-0.0020578245166689157,0.011801797896623611,-0.00875088106840849
1768576245665857500,11.237857421875,-0.003908189013600349,0.013379987329244614,-0.009128251112997532
1768576245675857700,11.247857666015625,-0.0031643679831176996,0.017963288351893425,-0.003427221905440092
1768576245685857500,11.257857421875,-0.004658135119825602,0.01600426621735096,-0.004756671842187643
1768576245695857400,11.267857421875,-0.0009861685102805495,0.016647951677441597,-0.007730091456323862
1768576245705856500,11.2778564453125,0.001764077926054597,0.01623942330479622,-0.0030133668333292007
1768576245715856600,11.287856689453125,0.00031638352083973587,0.015622102655470371,-0.004882107023149729
1768576245725856500,11.2978564453125,0.0011835087789222598,0.014246313832700253,-0.006081860978156328
1768576245735856600,11.307856689453125,0.00004926848123432137,0.011973039247095585,-0.002669020090252161
1768576245745856500,11.3178564453125,-0.0015355786308646202,0.014153103344142437,-0.0009179916232824326
1768576245755855600,11.327855712890624,-0.0007086671539582312,0.015293202362954617,-0.0050701261498034
1768576245765855500,11.33785546875,-0.0016586167039349675,0.01321167591959238,-0.005786782596260309
1768576245775855600,11.347855712890626,-0.0005930859479121864,0.014790929853916168,-0.002537193475291133
1768576245785855500,11.35785546875,-0.0013230583863332868,0.014758173376321793,-0.006417152937501669
1768576245795854600,11.3678544921875,-0.0028008464723825455,0.015152587555348873,-0.008416121825575829
1768576245805854500,11.3778544921875,-0.0014527543680742383,0.014790663495659828,-0.007767375558614731
1768576245815854600,11.3878544921875,-0.000011717908819264267,0.014390656724572182,-0.0041036647744476795
1768576245825854500,11.3978544921875,-0.003996872343122959,0.013187707401812077,-0.0011094729416072369
1768576245835854600,11.4078544921875,-0.003020557342097163,0.015330220572650433,0.00040533312130719423
1768576245845853400,11.417853515625,-0.003251453395932913,0.016805078834295273,-0.003096723696216941
1768576245855853600,11.427853515625,-0.0022596921771764755,0.017977934330701828,-0.0035025894176214933
1768576245865853400,11.437853515625,-0.0014775217277929187,0.02106373943388462,-0.000059388490626588464
1768576245875853600,11.447853515625,0.001931058126501739,0.021033646538853645,-0.0023004384711384773
1768576245885852700,11.457852783203125,0.003463441040366888,0.022222215309739113,-0.007125020958483219
1768576245895852500,11.4678525390625,0.0035989959724247456,0.02004534751176834,-0.009090966545045376
1768576245905852700,11.477852783203126,0.002482066163793206,0.009519735351204872,-0.009533584117889404
1768576245915852500,11.4878525390625,0.0013989584986120462,-0.00024394555657636374,-0.00646722037345171
1768576245925851600,11.4978515625,-0.0005587312043644488,-0.004073305055499077,-0.004771052859723568
1768576245935851500,11.5078515625,-0.003376355627551675,-0.006372145377099514,-0.007927964441478252
1768576245945851600,11.5178515625,-0.00452870549634099,-0.0014554174849763513,-0.006717291194945574
1768576245955851500,11.5278515625,-0.0037790255155414343,0.0029113676864653826,-0.007693339604884386
1768576245965851600,11.5378515625,-0.000988032785244286,0.0018522285390645266,-0.006783337332308292
1768576245975850500,11.5478505859375,-0.0011408982099965215,0.009469668380916119,-0.006771087180823088
1768576245985850600,11.5578505859375,-0.002560895634815097,0.007552458439022303,-0.005589442327618599
1768576245995850500,11.5678505859375,-0.006160424090921879,0.012291287072002888,-0.004287955816835165
1768576246005850600,11.5778505859375,-0.00612287363037467,0.009851032868027687,-0.004130030050873756
1768576246015849500,11.587849365234375,-0.004837632179260254,0.00980575941503048,-0.0051508196629583836
1768576246025849300,11.597849365234374,-0.004992894362658262,0.005967078730463982,-0.00484322477132082
1768576246035849200,11.60784912109375,-0.005076517816632986,0.0054853130131959915,-0.004825115203857422
1768576246045849300,11.617849365234376,-0.0035486621782183647,0.0037465349305421114,-0.004688761197030544
1768576246055849200,11.62784912109375,-0.004680239129811525,0.0033036512322723866,-0.002817624481394887
1768576246065848300,11.637848388671875,-0.0016192019684240222,0.00378967821598053,-0.0021752698812633753
1768576246075848400,11.647848388671875,-0.0027076357509940863,-0.001374723738990724,0.001728924224153161
1768576246085848300,11.657848388671875,-0.003837615018710494,-0.004257329273968935,0.0026290726382285357
1768576246095848400,11.667848388671874,-0.004860002547502518,-0.0011606055777519941,0.003983556292951107
1768576246105847300,11.677847412109376,-0.0070187607780098915,0.000031158982892520726,0.001728391507640481
1768576246115847400,11.687847412109376,-0.00917219277471304,0.0037199032958596945,-0.0008420915110036731
1768576246125847300,11.697847412109375,-0.0075761605985462666,0.006998787168413401,-0.0030210898257791996
1768576246135847400,11.707847412109375,-0.004814994987100363,0.008931975811719894,-0.002772616920992732
1768576246145847300,11.717847412109375,-0.001660480978898704,0.009623599238693714,-0.00130920996889472
1768576246155846400,11.727846435546875,-0.0013877731980755925,0.01025556679815054,-0.002463157754391432
