time,seconds_elapsed,z,y,x
1768576234514897200,0.086897216796875,-0.018655505031347275,0.03410842642188072,0.03456651791930199
1768576234524897000,0.09689697265625,-0.017826195806264877,0.03530444949865341,0.04176238179206848
1768576234534896000,0.106896240234375,-0.015817655250430107,0.03484440594911575,0.052519895136356354
1768576234544896000,0.11689599609375,-0.015451736748218536,0.03314211592078209,0.052761174738407135
1768576234554896100,0.126896240234375,-0.013274086639285088,0.03387437015771866,0.04458281397819519
1768576234564895200,0.136895263671875,-0.011166993528604507,0.033372364938259125,0.0309761930257082
1768576234574895000,0.14689501953125,-0.007486382964998484,0.026362422853708267,0.01947559416294098
1768576234584895200,0.156895263671875,-0.0031105424277484417,0.02499648742377758,0.01574264094233513
1768576234594895000,0.16689501953125,0.0037957848981022835,0.010919204913079739,0.019902586936950684
1768576234604894200,0.176894287109375,0.010649695992469788,0.0019803051836788654,0.026002291589975357
1768576234614894000,0.18689404296875,0.01417365949600935,-0.008122112601995468,0.029157254844903946
1768576234624894200,0.196894287109375,0.01698143035173416,-0.01908554695546627,0.03279220312833786
1768576234634893000,0.20689306640625,0.02138437144458294,-0.016519518569111824,0.02871120348572731
1768576234644893200,0.21689306640625,0.02175002358853817,-0.005783251486718655,0.021577393636107445
1768576234654893000,0.22689306640625,0.023024782538414,-0.008398633450269699,0.021761596202850342
1768576234664892000,0.236891845703125,0.019130708649754524,-0.007996495813131332,0.01609252393245697
1768576234674892000,0.24689208984375,0.01553296484053135,-0.00745538342744112,0.01600966975092888
1768576234684892000,0.256891845703125,0.006773561239242554,-0.007082806900143623,0.019665922969579697
1768576234694891000,0.26689111328125,-0.0008084583096206188,-0.008771783672273159,0.02101534605026245
1768576234704891000,0.276890869140625,-0.007863438688218594,-0.009331580251455307,0.02456107921898365
1768576234714891000,0.28689111328125,-0.007466627284884453,-0.021850034594535828,0.032651230692863464
1768576234724891000,0.296890869140625,-0.010289167985320091,-0.030378839001059532,0.034339677542448044
1768576234734890000,0.306889892578125,-0.0032333144918084145,-0.04287843406200409,0.03002011403441429
1768576234744889900,0.316889892578125,0.0031574731692671776,-0.048712357878685,0.018534699454903603
1768576234754890000,0.326889892578125,0.0041006687097251415,-0.04718545824289322,0.012150478549301624
1768576234764889000,0.33688916015625,0.007876764982938766,-0.04135899245738983,0.0076244366355240345
1768576234774889000,0.346888916015625,0.008241729810833931,-0.03775545954704285,-0.0019151228480041027
1768576234784889000,0.35688916015625,0.008238001726567745,-0.036437198519706726,-0.006075778976082802
1768576234794888000,0.366887939453125,0.008255567401647568,-0.0383448451757431,-0.0038787848316133022
1768576234804888000,0.37688818359375,0.01100181881338358,-0.0442621186375618,0.005011378787457943
1768576234814888000,0.386887939453125,0.011681678704917431,-0.04860252887010574,0.008212264627218246
1768576234824888000,0.39688818359375,0.011399650014936924,-0.04478222504258156,0.010536406189203262
1768576234834887000,0.406886962890625,0.010244212113320827,-0.0388631671667099,0.00802631489932537
1768576234844887000,0.416886962890625,0.006506199948489666,-0.036605071276426315,0.002726358361542225
1768576234854887000,0.426886962890625,0.0074587925337255,-0.02968398854136467,-0.00027076760306954384
1768576234864886000,0.436885986328125,0.008384507149457932,-0.019255584105849266,-0.0031379270367324352
1768576234874886100,0.44688623046875,0.008162010461091995,-0.007390965707600117,-0.007111893501132727
1768576234884886000,0.456885986328125,0.008066670037806034,-0.004623408429324627,-0.0068815299309790134
1768576234894885000,0.466885009765625,0.00828800443559885,-0.005607306957244873,-0.006098653189837933
1768576234904885000,0.476885009765625,0.010986852459609509,-0.00859484076499939,-0.005982539616525173
1768576234914885000,0.486885009765625,0.009655951522290707,-0.007551886141300201,-0.00834614783525467
1768576234924884000,0.496884033203125,0.009425855241715908,-0.0057119084522128105,-0.009288374334573746
1768576234934884000,0.506884033203125,0.008318477310240269,-0.014837817288935184,-0.011526025831699371
1768576234944884000,0.516884033203125,0.00865190476179123,-0.020105550065636635,-0.011237871833145618
1768576234954884000,0.526884033203125,0.008418941870331764,-0.02165292017161846,-0.013821166008710861
1768576234964883200,0.53688330078125,0.008787523955106735,-0.019570060074329376,-0.016614289954304695
1768576234974883000,0.546883056640625,0.011123382486402988,-0.023252947255969048,-0.015403881669044495
1768576234984883000,0.556883056640625,0.009560734033584595,-0.026407305151224136,-0.021157819777727127
1768576234994882000,0.566882080078125,0.00792138371616602,-0.029902368783950806,-0.02285011298954487
1768576235004882200,0.576882080078125,0.004635309334844351,-0.027513515204191208,-0.022464487701654434
1768576235014882000,0.586882080078125,-0.0019838500302284956,-0.02493385598063469,-0.020758522674441338
1768576235024881200,0.596881103515625,-0.003856052178889513,-0.025679539889097214,-0.024061376228928566
1768576235034881000,0.606881103515625,-0.0039090062491595745,-0.02527714893221855,-0.023097876459360123
1768576235044881200,0.616881103515625,0.000051646726205945015,-0.02152635157108307,-0.017458900809288025
1768576235054881000,0.626881103515625,0.0019926587119698524,-0.017393676564097404,-0.013893689960241318
1768576235064880000,0.636880126953125,0.0024395370855927467,-0.020239531993865967,-0.015012750402092934
1768576235074880000,0.6468798828125,0.003435943741351366,-0.02389717660844326,-0.01601431518793106
1768576235084880100,0.656880126953125,0.0008337689796462655,-0.0220798347145319,-0.02261309325695038
1768576235094879000,0.66687890625,0.000545591814443469,-0.02063724957406521,-0.027015525847673416
1768576235104878800,0.67687890625,-0.0019639048259705305,-0.01805318333208561,-0.027130044996738434
1768576235114879200,0.686879150390625,-0.005121976137161255,-0.016179274767637253,-0.026443568989634514
1768576235124877800,0.6968779296875,-0.00607086019590497,-0.006811339408159256,-0.027587929740548134
1768576235134878000,0.7068779296875,-0.006037543062120676,0.00843326561152935,-0.02797311544418335
1768576235144877800,0.7168779296875,-0.004923009779304266,0.020930947735905647,-0.028553418815135956
1768576235154877000,0.726876953125,-0.0024849455803632736,0.028352275490760803,-0.026445552706718445
1768576235164877000,0.736876953125,-0.0010367186041548848,0.028309397399425507,-0.028135327622294426
1768576235174877000,0.746876953125,0.0013774209655821323,0.02653561905026436,-0.030911201611161232
1768576235184876800,0.756876708984375,0.00028126384131610394,0.022189073264598846,-0.0313868448138237
1768576235194876000,0.7668759765625,0.00039977452252060175,0.021692395210266113,-0.03224624693393707
1768576235204876000,0.7768759765625,0.0009790121112018824,0.0036002094857394695,-0.028080793097615242
1768576235214876000,0.7868759765625,0.0003548105014488101,-0.003217495046555996,-0.024683166295289993
1768576235224875000,0.796875,-0.00011150899808853865,-0.006638858467340469,-0.023073019459843636
1768576235234875000,0.806875,0.0008671386749483645,-0.006340511608868837,-0.02531617134809494
1768576235244875000,0.816875,-0.0007624495774507523,-0.006349566392600536,-0.023292968049645424
1768576235254874000,0.8268740234375,0.00030006119050085545,-0.0028009710367769003,-0.02229788899421692
1768576235264874000,0.8368740234375,0.0010228430619463325,-0.002267007250338793,-0.02236766368150711
1768576235274873900,0.846873779296875,-0.0009472206002101302,-0.0014739474281668663,-0.020459506660699844
1768576235284874000,0.8568740234375,-0.0013416347792372108,-0.001949588069692254,-0.019512219354510307
1768576235294873000,0.866873046875,-0.0007024920778349042,-0.006827016826719046,-0.014785168692469597
1768576235304873000,0.876873046875,0.000006974092684686184,-0.009758624248206615,-0.013148389756679535
1768576235314873000,0.886873046875,-0.0008973918156698346,-0.016913484781980515,-0.009163801558315754
1768576235324872000,0.896871826171875,-0.0029538851231336594,-0.0216472540050745,-0.007817307487130165
1768576235334872000,0.9068720703125,-0.0022765155881643295,-0.01882098615169525,-0.009778516367077827
1768576235344872000,0.916871826171875,-0.0008442673133686185,-0.01905534416437149,-0.011168686673045158
1768576235354871000,0.92687109375,0.001995413564145565,-0.02291247993707657,-0.008860703557729721
1768576235364871000,0.936870849609375,0.0027277828194200993,-0.02375377155840397,-0.0037389113567769527
1768576235374871000,0.94687109375,0.004741084761917591,-0.023088328540325165,-0.0036030025221407413
1768576235384870100,0.9568701171875,0.001670460100285709,-0.017709806561470032,-0.007436090614646673
1768576235394870000,0.9668701171875,0.0047433748841285706,-0.012212424539029598,-0.0025251596234738827
1768576235404870100,0.9768701171875,0.0036022099666297436,-0.005844007711857557,-0.0052655525505542755
1768576235414870000,0.9868701171875,0.00412218552082777,-0.00025151344016194344,-0.008738372474908829
1768576235424869000,0.996869140625,0.004285437520593405,-0.0014049287419766188,-0.007017703726887703
1768576235434869000,1.006868896484375,0.0020098607055842876,-0.012023859657347202,-0.0040806797333061695
1768576235444869000,1.016869140625,0.0010412691626697779,-0.014242539182305336,0.0008344503585249186
1768576235454868000,1.026867919921875,-0.0001828301465138793,-0.010007054544985294,0.00014587398618459702
1768576235464868000,1.0368681640625,-0.0017570247873663902,-0.012399371713399887,-0.0018243324011564255
1768576235474868000,1.046867919921875,-0.0014104769797995687,-0.02715076133608818,0.004400680307298899
1768576235484867000,1.0568671875,-0.0014988937182351947,-0.034482441842556,0.006742930039763451
1768576235494867200,1.0668671875,-0.0021836943924427032,-0.033721670508384705,0.003191612660884857
1768576235504867000,1.0768671875,-0.004419418051838875,-0.02815566211938858,0.0019577702041715384
1768576235514867000,1.086866943359375,-0.0018011729698628187,-0.038243118673563004,0.004494576249271631
1768576235524866000,1.096865966796875,0.002142435871064663,-0.040595486760139465,0.008282390423119068
1768576235534866200,1.1068662109375,0.0005187701899558306,-0.0361158549785614,0.002809033263474703
1768576235544866000,1.116865966796875,-0.0008207997307181358,-0.029301095753908157,-0.00009620934724807739
1768576235554865200,1.126865234375,-0.0011887416476383805,-0.02893020026385784,0.004822853486984968
1768576235564865000,1.136864990234375,-0.004418090917170048,-0.02958560548722744,0.00990736111998558
1768576235574865200,1.146865234375,-0.005597604904323816,-0.019100740551948547,0.01059472281485796
1768576235584864000,1.156864013671875,-0.007513216696679592,-0.018247995525598526,0.010717494413256645
1768576235594864000,1.166864013671875,-0.00793066993355751,-0.010659105144441128,0.011878786608576775
1768576235604864000,1.176864013671875,-0.008868635632097721,-0.007381819188594818,0.01112564466893673
1768576235614864100,1.186864013671875,-0.006102993153035641,-0.008576150983572006,0.007414939813315868
1768576235624863000,1.196863037109375,-0.005502716172486544,-0.011737056076526642,0.00403938302770257
1768576235634862800,1.20686279296875,-0.0038929427973926067,-0.0157796498388052,0.003132371697574854
1768576235644863200,1.21686328125,-0.006386726628988981,-0.016166606917977333,0.006068506743758917
1768576235654861800,1.22686181640625,-0.004891048185527325,-0.016759879887104034,0.007415445521473885
1768576235664862000,1.236862060546875,-0.007432236801832914,-0.017079725861549377,0.005560021381825209
1768576235674861800,1.24686181640625,-0.0064808158203959465,-0.020514793694019318,0.004049533512443304
1768576235684861000,1.25686083984375,-0.008274189196527004,-0.017128318548202515,0.0033137022983282804
1768576235694861000,1.266861083984375,-0.008420035243034363,-0.011971746571362019,0.005846458952873945
1768576235704861000,1.27686083984375,-0.0054314350709319115,-0.007389511913061142,0.007301343604922295
1768576235714860000,1.286860107421875,-0.006268514785915613,-0.00449047377333045,0.006195686757564545
1768576235724860000,1.29685986328125,-0.0065470808185637,-0.00449100648984313,0.0049554528668522835
1768576235734860000,1.306860107421875,-0.007307743653655052,-0.006553818471729755,0.0073283580131828785
1768576235744860000,1.31685986328125,-0.004883468151092529,-0.009837496094405651,0.005243901629000902
1768576235754859000,1.32685888671875,-0.0045075686648488045,-0.014745580963790417,0.0019481827039271593
1768576235764859000,1.33685888671875,-0.0034143412485718727,-0.014417745172977448,0.005240915343165398
1768576235774859000,1.34685888671875,-0.000013957265764474869,-0.011758476495742798,0.0072492314502596855
1768576235784858000,1.356858154296875,0.003655878594145179,-0.0124298594892025,0.003216406563296914
1768576235794858000,1.36685791015625,0.005554246250540018,-0.007720306981354952,-0.0027387714944779873
1768576235804857900,1.37685791015625,0.006983298342674971,-0.010152305476367474,-0.008763641119003296
1768576235814858000,1.38685791015625,0.007947530597448349,-0.011724352836608887,-0.009496312588453293
1768576235824857000,1.396857177734375,0.006820480804890394,-0.012891349382698536,-0.015481233596801758
1768576235834857000,1.40685693359375,0.007566106505692005,-0.010871177539229393,-0.01857318915426731
1768576235844857000,1.416857177734375,0.004205996170639992,-0.007879381999373436,-0.01898438110947609
1768576235854856000,1.42685595703125,0.0007584569975733757,-0.010072711855173111,-0.018977811560034752
1768576235864856000,1.43685595703125,0.0027478383854031563,-0.01395267155021429,-0.01487414538860321
1768576235874856000,1.44685595703125,0.004385980311781168,-0.012555081397294998,-0.014243124052882195
1768576235884855000,1.45685498046875,0.005651248153299093,-0.009291909635066986,-0.014368824660778046
1768576235894855000,1.46685498046875,0.005435685161501169,-0.004361964296549559,-0.014609135687351227
1768576235904855000,1.47685498046875,0.0074921781197190285,-0.011884595267474651,-0.016827549785375595
1768576235914854100,1.486854248046875,0.0064926655031740665,-0.011265016160905361,-0.016607746481895447
1768576235924854000,1.49685400390625,0.006308374460786581,-0.0056295013055205345,-0.014847664162516594
1768576235934854100,1.506854248046875,0.005842102225869894,-0.007189502008259296,-0.016949251294136047
1768576235944854000,1.51685400390625,0.006738788448274136,-0.009992212057113647,-0.012838928028941154
1768576235954853000,1.52685302734375,0.006174919195473194,-0.00855938345193863,-0.01309441402554512
1768576235964853000,1.53685302734375,0.004304314963519573,-0.007910370826721191,-0.015543987974524498
1768576235974853000,1.54685302734375,0.0037867058999836445,-0.009423398412764072,-0.009824112057685852
1768576235984852000,1.55685205078125,0.0002953018993139267,-0.006859307177364826,-0.0023912289179861546
1768576235994852000,1.56685205078125,0.0022098012268543243,-0.011822452768683434,0.000980154611170292
1768576236004852000,1.57685205078125,0.0014247013023123145,-0.012016329914331436,0.0009002597071230412
1768576236014851300,1.586851318359375,0.0007496055914089084,-0.013300124555826187,-0.0023332913406193256
1768576236024851200,1.596851318359375,0.0017080772668123245,-0.008430801331996918,-0.007972002029418945
1768576236034851300,1.606851318359375,0.0026828707195818424,-0.007428436540067196,-0.011794084683060646
1768576236044851200,1.616851318359375,0.001072723651304841,-0.00688355416059494,-0.00916607677936554
1768576236054850300,1.626850341796875,0.0020736188162118196,-0.006312529556453228,-0.011065945029258728
1768576236064850400,1.636850341796875,0.0034709793981164694,-0.004718095064163208,-0.008635811507701874
1768576236074850300,1.646850341796875,0.0019436421571299434,0.00034614838659763336,-0.005312302149832249
1768576236084849400,1.656849365234375,0.0013870415277779102,0.0011765221133828163,-0.004728270694613457
1768576236094849300,1.666849365234375,0.001013258472084999,0.003362208604812622,-0.0048859310336411
1768576236104849400,1.676849365234375,0.0019006237853318453,0.007478124462068081,-0.003286703024059534
1768576236114849300,1.686849365234375,0.0015147288795560598,0.0003242483362555504,-0.005620376206934452
1768576236124848400,1.696848388671875,-0.00030128052458167076,-0.009111065417528152,-0.00458200927823782
1768576236134848300,1.70684814453125,-0.001791614107787609,-0.01136183924973011,-0.003130494151264429
1768576236144848400,1.716848388671875,-0.0025745832826942205,-0.008600408211350441,-0.005660763941705227
1768576236154847500,1.726847412109375,-0.003209623508155346,-0.006571849808096886,-0.0052229417487978935
1768576236164847400,1.736847412109375,-0.004125217907130718,-0.008321279659867287,-0.00186203233897686
1768576236174847500,1.746847412109375,-0.004957003053277731,-0.008407608605921268,0.0018338712397962809
1768576236184846000,1.75684619140625,-0.0023250007070600986,-0.007007318548858166,0.01021803542971611
1768576236194846200,1.76684619140625,0.0002488842001184821,-0.006754154339432716,0.011974096298217773
1768576236204846300,1.776846435546875,0.0026326796505600214,-0.011978477239608765,0.005051475949585438
1768576236214846500,1.786846435546875,0.0017671363893896341,-0.012909101322293282,0.0034868097864091396
1768576236224845000,1.796844970703125,-0.0010134701151400805,-0.01590089499950409,0.008206996135413647
1768576236234845200,1.80684521484375,-0.0033539494033902884,-0.016995787620544434,0.008726432919502258
1768576236244845000,1.816844970703125,-0.003943040035665035,-0.020554570481181145,0.007075539790093899
1768576236254844200,1.82684423828125,-0.003665601834654808,-0.02281205914914608,0.0006413711234927177
1768576236264844300,1.83684423828125,-0.004075728356838226,-0.018433822318911552,0.0016784060280770063
1768576236274844200,1.84684423828125,-0.001549829845316708,-0.020473450422286987,0.001531726447865367
1768576236284843300,1.85684326171875,0.0018488962668925524,-0.018890202045440674,0.004432441666722298
1768576236294843100,1.866843017578125,0.0018264317186549306,-0.019282642751932144,0.006335713900625706
1768576236304843300,1.87684326171875,0.0014724975917488337,-0.0208246149122715,0.009933112189173698
1768576236314843100,1.886843017578125,0.001332571730017662,-0.017756832763552666,0.006334442645311356
1768576236324842200,1.89684228515625,-0.001017934293486178,-0.015226563438773155,0.004354381933808327
1768576236334842000,1.906842041015625,-0.0009762475965544581,-0.017816077917814255,0.0005383966490626335
1768576236344842200,1.91684228515625,-0.0007016757735982537,-0.01761367730796337,-0.003605482168495655
1768576236354841300,1.92684130859375,-0.0006881406297907233,-0.017226532101631165,-0.0048911673948168755
1768576236364841200,1.93684130859375,0.0012810006737709045,-0.019221507012844086,-0.007641147822141647
1768576236374841000,1.946841064453125,0.004186837002635002,-0.022587906569242477,-0.0036596949212253094
1768576236384840200,1.956840087890625,0.003908004146069288,-0.018537770956754684,0.00011507002636790276
1768576236394840300,1.96684033203125,0.004802122246474028,-0.01661578193306923,0.0020048823207616806
1768576236404840200,1.976840087890625,0.00466656731441617,-0.01668555848300457,-0.0001373644918203354
1768576236414840300,1.98684033203125,0.0006422802107408643,-0.018219249323010445,0.0027272473089396954
1768576236424839200,1.996839111328125,7.246853783726692e-7,-0.01837184838950634,0.00459305802360177
1768576236434839300,2.00683935546875,-0.002753783017396927,-0.01607673615217209,0.0036801262758672237
1768576236444839200,2.016839111328125,-0.0005683929193764925,-0.012075603008270264,-0.00007572956383228302
1768576236454838300,2.02683837890625,-0.0020198156125843525,-0.005037309601902962,-0.003381568007171154
1768576236464838100,2.036838134765625,-0.0014155443059280515,-0.004189625382423401,-0.005262026097625494
1768576236474838300,2.04683837890625,0.0001615164801478386,-0.0007898539770394564,-0.0037332861684262753
1768576236484838100,2.056838134765625,0.0011101344134658575,0.0004557063803076744,-0.0041676475666463375
1768576236494837200,2.066837158203125,0.001376983243972063,0.002985975705087185,-0.005080845672637224
1768576236504837400,2.07683740234375,-0.00016445433720946312,0.006273115053772926,-0.00816691666841507
1768576236514837200,2.086837158203125,-0.0012647167313843966,0.008531203493475914,-0.011059259064495564
1768576236524836400,2.09683642578125,-0.001968323951587081,0.009272094815969467,-0.010856060311198235
1768576236534836200,2.106836181640625,-0.0013088146224617958,0.008084331639111042,-0.009286509826779366
1768576236544836400,2.11683642578125,-0.001798037439584732,0.0036802617833018303,-0.009111540392041206
1768576236554835200,2.126835205078125,-0.0027581374160945415,0.0026372303254902363,-0.01071440614759922
1768576236564835300,2.13683544921875,-0.0029805111698806286,0.0021298984065651894,-0.013387421146035194
1768576236574835200,2.146835205078125,-0.0012100731255486608,0.0034322193823754787,-0.013116695918142796
1768576236584835300,2.15683544921875,-0.000990628614090383,0.006833608262240887,-0.011982721276581287
1768576236594834400,2.16683447265625,-0.002315457444638014,0.006461723707616329,-0.010857179760932922
1768576236604834300,2.176834228515625,-0.002339692320674658,0.003514403011649847,-0.01285508368164301
1768576236614834400,2.18683447265625,-0.0010890252888202667,0.0024747843854129314,-0.014200601726770401
1768576236624833300,2.196833251953125,0.0023424578830599785,0.005668447352945805,-0.01340538077056408
1768576236634833400,2.20683349609375,0.0040776957757771015,0.010786733590066433,-0.0120429378002882
1768576236644833300,2.216833251953125,0.0030334703624248505,0.016920791938900948,-0.009975792840123177
1768576236654833400,2.22683349609375,0.0017137799877673388,0.02225973829627037,-0.012307478114962578
1768576236664832300,2.236832275390625,0.00029005412943661213,0.021131357178092003,-0.015295280143618584
1768576236674832400,2.246832275390625,0.0004328293725848198,0.016985487192869186,-0.017327895388007164
1768576236684832300,2.256832275390625,-0.0009863692102953792,0.018301621079444885,-0.018231771886348724
1768576236694831400,2.266831298828125,-0.0017612383235245943,0.02056877687573433,-0.01410345733165741
1768576236704831500,2.27683154296875,-0.003746891161426902,0.02346096932888031,-0.008122529834508896
1768576236714831400,2.286831298828125,-0.00772095425054431,0.02787536010146141,-0.00809391401708126
1768576236724830200,2.296830322265625,-0.009018179029226303,0.03052254021167755,-0.009683554992079735
1768576236734830300,2.306830322265625,-0.007729789242148399,0.021998217329382896,-0.01382734440267086
1768576236744830500,2.31683056640625,-0.005518566817045212,0.023721281439065933,-0.009436857886612415
1768576236754830300,2.326830322265625,-0.004975610412657261,0.017704473808407784,-0.007934806868433952
1768576236764829200,2.3368291015625,-0.002565982285887003,0.01882593147456646,-0.006140634883195162
1768576236774829000,2.3468291015625,0.000385535997338593,0.01658957451581955,-0.009689857251942158
1768576236784829400,2.356829345703125,-0.000816348590888083,0.015824712812900543,-0.007364917546510696
1768576236794828300,2.366828369140625,-0.0002633519470691681,0.016365189105272293,-0.010746657848358154
1768576236804828200,2.376828125,-0.0013688299804925919,0.013776331208646297,-0.016117455437779427
1768576236814828000,2.386828125,0.0017911678878590465,0.005965981632471085,-0.015256013721227646
1768576236824828200,2.396828125,0.0037339439149945974,0.004777146503329277,-0.011304682120680809
1768576236834827300,2.4068271484375,0.003081720322370529,0.006334805861115456,-0.011657134629786015
1768576236844827100,2.4168271484375,0.004252179525792599,0.005461023189127445,-0.014691007323563099
1768576236854827300,2.4268271484375,-0.000130946165882051,0.0004946943372488022,-0.01524615753442049
1768576236864826000,2.436826171875,-0.002216467633843422,-0.004179685842245817,-0.01653246209025383
1768576236874826200,2.446826171875,-0.004252848215401173,-0.005055628251284361,-0.013445327058434486
1768576236884826000,2.456826171875,-0.005119174253195524,-0.001170608913525939,-0.011492963880300522
1768576236894826200,2.466826171875,-0.004187785089015961,0.0027092075906693935,-0.011888563632965088
1768576236904825000,2.4768251953125,-0.003110802499577403,0.0027124034240841866,-0.012316267937421799
1768576236914825200,2.4868251953125,0.000698394956998527,0.004267199896275997,-0.009991031140089035
1768576236924825000,2.4968251953125,-0.00017165974713861942,0.007025169208645821,-0.008599795401096344
1768576236934824200,2.50682421875,0.0024222107604146004,0.0028085997328162193,-0.009990202262997627
1768576236944824300,2.51682421875,0.0023311306722462177,0.0038102148100733757,-0.010713515803217888
1768576236954824200,2.52682421875,0.0033205433283001184,0.0012405170127749443,-0.005451939534395933
1768576236964823300,2.5368232421875,0.002206276636570692,-0.001911067869514227,-0.007134524639695883
1768576236974823200,2.5468232421875,-0.0013927830150350928,-0.00046693673357367516,-0.007031755056232214
1768576236984823300,2.5568232421875,-0.002670834306627512,0.004466036334633827,-0.004632247146219015
1768576236994823200,2.5668232421875,-0.002113574417307973,0.005025769583880901,-0.005083597265183926
1768576237004822300,2.576822265625,-0.001956980675458908,0.008271098136901855,-0.00393257848918438
1768576237014822000,2.58682177734375,-0.003497510217130184,0.005066082812845707,-0.0007460145279765129
1768576237024822000,2.596822021484375,0.00066820636857301,-0.0020088707096874714,0.002712100278586149
1768576237034821000,2.606821044921875,-0.002455148845911026,-0.0016448167152702808,0.007330554071813822
1768576237044821000,2.616821044921875,-0.0034530353732407093,0.002180281560868025,0.00964910164475441
1768576237054821000,2.626821044921875,-0.004512173589318991,0.001558074727654457,0.007943937554955482
1768576237064821000,2.636821044921875,-0.004758515860885382,-0.00016499077901244164,0.003608843544498086
1768576237074820000,2.646820068359375,-0.004351162351667881,0.0016353921964764595,0.0033636270090937614
1768576237084820000,2.656820068359375,-0.0023394101299345493,0.0029645757749676704,0.005128503777086735
1768576237094820000,2.666820068359375,-0.00212341221049428,-0.0019970450084656477,0.00506917480379343
1768576237104819000,2.67681884765625,-0.0019481765339151025,-0.0020977123640477657,0.0038704858161509037
1768576237114819000,2.686819091796875,-0.0007644480792805552,0.003455431666225195,0.00423276424407959
1768576237124819000,2.69681884765625,0.00016845716163516045,0.006194759160280228,0.0004702501464635134
1768576237134819000,2.706819091796875,-0.0011697657173499465,0.009555251337587833,0.002691918285563588
1768576237144818200,2.716818115234375,-0.002537565305829048,0.007166662253439426,0.005502618383616209
1768576237154818000,2.726818115234375,-0.0023397859185934067,0.004305469803512096,0.007542776875197887
1768576237164818200,2.736818115234375,-0.004548877943307161,0.0018207407556474209,0.005468440242111683
1768576237174817000,2.746817138671875,-0.0038042268715798855,0.004050569608807564,0.005930351093411446
1768576237184817200,2.756817138671875,-0.004423678386956453,0.00682585034519434,0.006934629753232002
1768576237194817000,2.766817138671875,-0.0012934779515489936,0.014509918168187141,0.009685320779681206
1768576237204817200,2.776817138671875,0.0016509128035977483,0.024452297016978264,0.010440060868859291
1768576237214816000,2.78681591796875,0.0012090944219380617,0.02538467012345791,0.009725268930196762
1768576237224816000,2.796816162109375,0.0002620742889121175,0.025364164263010025,0.008857876993715763
1768576237234816000,2.80681591796875,-0.0005050430772826076,0.029689639806747437,0.01440870389342308
1768576237244815000,2.816815185546875,-0.0007018508622422814,0.028340749442577362,0.011247532442212105
1768576237254815000,2.82681494140625,-0.002528590150177479,0.031264327466487885,0.009777703322470188
1768576237264815000,2.836815185546875,-0.0006537246517837048,0.027965465560555458,0.007311349734663963
1768576237274815000,2.84681494140625,-0.002143404446542263,0.011550167575478554,0.001799760852009058
1768576237284814000,2.85681396484375,-0.003747160080820322,0.006285363808274269,0.003146521281450987
1768576237294814200,2.866814208984375,-0.0013374669943004847,-0.0076916031539440155,0.005448853597044945
1768576237304814000,2.87681396484375,-0.0014759511686861515,-0.011992874555289745,0.00599293690174818
1768576237314813000,2.88681298828125,-0.001181514817290008,-0.014734338968992233,0.003293407615274191
1768576237324813000,2.89681298828125,-0.0013612780021503568,-0.010791528970003128,0.006036729551851749
1768576237334813200,2.906813232421875,0.0007169267628341913,-0.00867834035307169,0.0025844755582511425
1768576237344812000,2.91681201171875,0.00041359267197549343,-0.005688942037522793,-0.00078548863530159
1768576237354812000,2.92681201171875,-0.0033296847250312567,-0.0029403662774711847,0.00337007874622941
1768576237364811800,2.936811767578125,-0.0033983939792960882,0.001030673272907734,0.005288087297230959
1768576237374812200,2.946812255859375,-0.004521167371422052,0.006356578320264816,0.0032931724563241005
1768576237384811000,2.95681103515625,-0.003805842250585556,0.0092359883710742,0.001144267851486802
1768576237394811000,2.966810791015625,-0.001696977997198701,0.006817147135734558,0.0011873217299580574
1768576237404811000,2.97681103515625,-0.002850126940757036,0.006018998101353645,-0.0012113875709474087
1768576237414809900,2.986809814453125,0.0011888854205608368,0.002326718997210264,-0.0020391270518302917
1768576237424810000,2.99681005859375,0.002483448013663292,0.0005501243285834789,0.0011087290477007627
1768576237434809900,3.006809814453125,0.005832938011735678,-0.0015602931380271912,0.000222871545702219
1768576237444810000,3.01681005859375,0.0038504810072481632,-0.0019954536110162735,0.0015411365311592817
1768576237454808800,3.026808837890625,0.004110261332243681,-0.0005973458755761385,-0.0026659751310944557
1768576237464809000,3.03680908203125,0.004350212402641773,0.0035052536986768246,-0.0038438914343714714
1768576237474808800,3.046808837890625,0.0024087238125503063,0.000605432316660881,-0.005024058744311333
1768576237484808000,3.056807861328125,0.0005402500974014401,-0.00033706030808389187,-0.0035484004765748978
1768576237494808000,3.06680810546875,0.0007402664050459862,0.0014301547780632973,-0.0026035094633698463
1768576237504808000,3.076807861328125,0.0007546475389972329,0.0032072821632027626,0.0017291870899498463
1768576237514808000,3.08680810546875,0.0026369336992502213,0.0020673125982284546,0.004184977151453495
1768576237524807000,3.096806884765625,0.002190321683883667,-0.0000709393061697483,0.003660866990685463
1768576237534807000,3.10680712890625,0.0030617080628871918,-0.0018062549643218517,0.001533533912152052
1768576237544807000,3.116806884765625,0.00013384921476244926,0.0030034352093935013,-0.001927658449858427
1768576237554806000,3.126805908203125,-0.0013745496980845928,0.0027436260133981705,-0.004155599977821112
1768576237564806000,3.136805908203125,-0.002959663048386574,0.001548931933939457,-0.0029372037388384342
1768576237574806000,3.146805908203125,-0.0005034897476434708,-0.0030572921968996525,-0.004604788031429052
1768576237584806000,3.156805908203125,0.0007335486588999629,0.0007076184265315533,-0.004300388973206282
1768576237594805000,3.166804931640625,-0.0006351757328957319,0.00370151549577713,-0.005012783221900463
1768576237604805000,3.17680517578125,-0.002810445614159107,0.0017030793242156506,-0.006397627294063568
1768576237614805000,3.186804931640625,-0.0026103162672370672,-0.0017749802209436893,-0.0021914313547313213
1768576237624804000,3.19680419921875,-0.004247095435857773,-0.006595301907509565,-0.002050550188869238
1768576237634804000,3.206803955078125,-0.0053121717646718025,-0.011840440332889557,-0.003308923915028572
1768576237644804000,3.21680419921875,-0.0065915547311306,-0.009704318828880787,-0.0040639303624629974
1768576237654804000,3.226803955078125,-0.005159228108823299,-0.006422462873160839,-0.002183974254876375
1768576237664803000,3.236802978515625,-0.003485963912680745,-0.008451791480183601,0.0003260546363890171
1768576237674803000,3.246802978515625,-0.003800859907642007,-0.012538858689367771,0.0011570211499929428
1768576237684803000,3.256802978515625,-0.0020761964842677116,-0.01087385043501854,0.004019919317215681
1768576237694802000,3.266802001953125,-0.004086819477379322,-0.00845799595117569,0.005565379746258259
1768576237704802000,3.276802001953125,-0.005059672519564629,-0.008048135787248611,0.0036303268279880285
1768576237714802000,3.286802001953125,-0.0051452540792524815,-0.008898640051484108,0.0008810556028038263
1768576237724802000,3.296802001953125,-0.0043092877604067326,-0.008543640375137329,0.0039010802283883095
1768576237734801200,3.30680126953125,-0.005162850487977266,-0.010324425995349884,0.004042320419102907
1768576237744801000,3.316801025390625,-0.0030320552177727222,-0.01400305051356554,0.004340860527008772
1768576237754801200,3.32680126953125,-0.0005162592278793454,-0.015439984388649464,0.0038491522427648306
1768576237764800000,3.336800048828125,0.0011591354850679636,-0.01580457016825676,0.00638155173510313
1768576237774800100,3.346800048828125,0.001113339327275753,-0.014045877382159233,0.006194864399731159
1768576237784800000,3.356800048828125,0.0015437060501426458,-0.016829412430524826,-0.00016369856894016266
1768576237794800000,3.366800048828125,0.0007406133227050304,-0.0166410394012928,-0.0003615729510784149
1768576237804799000,3.376799072265625,0.003928417339920998,-0.016370996832847595,0.0021641692146658897
1768576237814799000,3.386799072265625,-0.0006150625413283706,-0.0133097218349576,0.0015734811313450336
1768576237824799000,3.396799072265625,-0.0009122713236138225,-0.01105588860809803,0.0011313962750136852
1768576237834798000,3.406798095703125,-0.0031477438751608133,-0.008401630446314812,-0.0013470007106661797
1768576237844798200,3.416798095703125,-0.0021413355134427547,-0.006612785160541534,-0.0019044000655412674
1768576237854798000,3.426798095703125,-0.004393949173390865,-0.003497599856927991,-0.0015631900168955326
1768576237864798000,3.4367978515625,-0.0007030745036900043,-0.00022377585992217064,-0.006017592735588551
1768576237874797000,3.446797119140625,-0.0004901755601167679,0.0018222448416054249,-0.008575884625315666
1768576237884797200,3.456797119140625,0.0013146486598998308,-0.0010172175243496895,-0.007733527105301619
1768576237894797000,3.466797119140625,0.0015013517113402486,-0.0058869593776762486,-0.001767188310623169
1768576237904797200,3.476797119140625,0.0030129619408398867,-0.006349284201860428,0.0008917117957025766
1768576237914796000,3.486796142578125,0.0022352568339556456,-0.0037726040463894606,0.00020411284640431404
1768576237924796200,3.496796142578125,0.0006975475698709488,0.0009467834606766701,-0.0007341187447309494
1768576237934796000,3.506796142578125,0.0011161189759150147,0.0027720723301172256,-0.0012292307801544666
1768576237944795100,3.516795166015625,0.002456221729516983,0.004627230577170849,-0.0009546587243676186
1768576237954795000,3.526794921875,-0.00299356272444129,0.0058256592601537704,0.0028554080054163933
1768576237964795100,3.536795166015625,-0.0019687782041728497,0.004305526614189148,0.003324923338368535
1768576237974795000,3.546794921875,-0.002775812754407525,0.00734386220574379,0.003973788116127253
1768576237984793900,3.5567939453125,-0.0017443704418838024,0.01098706666380167,0.0014666884671896696
1768576237994794200,3.566794189453125,-0.0021323738619685173,0.01342201791703701,-0.0014157993718981743
1768576238004794000,3.576794189453125,0.0013036365853622556,0.017041519284248352,-0.0016986271366477013
1768576238014793500,3.58679345703125,0.002440069569274783,0.021565359085798264,-0.0033743176609277725
1768576238024793300,3.59679345703125,0.00012551620602607727,0.021978415548801422,-0.0038235923275351524
1768576238034793500,3.60679345703125,0.003558441763743758,0.009142957627773285,-0.00022732000797986984
1768576238044793300,3.61679345703125,-0.0022432547993957996,0.014445845037698746,-0.0016371975652873516
1768576238054792400,3.62679248046875,-0.0036756754852831364,0.0033483440056443214,-0.0032720225863158703
1768576238064792300,3.636792236328125,-0.0030975034460425377,-0.008759452030062675,-0.006871551740914583
1768576238074792400,3.64679248046875,-0.003208728739991784,-0.007116216234862804,-0.009890364482998848
1768576238084791300,3.656791259765625,-0.006810387596487999,-0.004595001693814993,-0.00977984257042408
1768576238094791400,3.66679150390625,-0.005312643479555845,0.004111648537218571,-0.005946339573711157
1768576238104791300,3.676791259765625,-0.007484717760235071,0.00939882267266512,-0.006652609910815954
1768576238114791400,3.68679150390625,-0.008244896307587624,0.010802926495671272,-0.005431490484625101
1768576238124790300,3.696790283203125,-0.00016672909259796143,0.00988493487238884,-0.00404132017865777
1768576238134790400,3.706790283203125,0.0038329181261360645,0.003269291017204523,-0.0018141786567866802
1768576238144790500,3.71679052734375,0.008029527962207794,-0.007975373417139053,0.00037147756665945053
1768576238154789000,3.7267890625,0.01179081853479147,-0.013047091662883759,0.002268595853820443
1768576238164789200,3.736789306640625,0.009767347946763039,-0.010206563398241997,0.0029871168080717325
1768576238174789000,3.7467890625,0.008653348311781883,-0.006200104020535946,0.004925898276269436
1768576238184789500,3.75678955078125,0.006684739142656326,-0.002520947251468897,0.004069957882165909
1768576238194788000,3.7667880859375,0.0055618686601519585,0.0017803758382797241,0.003076776396483183
1768576238204788200,3.776788330078125,0.005900355987250805,0.006737584248185158,0.005219822283834219
1768576238214788000,3.7867880859375,0.0013598715886473656,0.006708892993628979,0.0049660527147352695
1768576238224787200,3.796787109375,0.0008645236375741661,0.012901009060442448,0.0022171379532665014
1768576238234787300,3.806787353515625,-0.00166995613835752,0.014914877712726593,-0.0016402145847678185
1768576238244787200,3.816787109375,-0.0051821330562233925,0.013803007081151009,-0.004888471681624651
1768576238254787300,3.826787353515625,-0.005648124497383833,0.01285511627793312,-0.00456599285826087
1768576238264786200,3.8367861328125,-0.0058108433149755,0.014490030705928802,-0.006209429819136858
1768576238274786300,3.846786376953125,-0.004026341252028942,0.017572423443198204,-0.005065690726041794
1768576238284786200,3.8567861328125,-0.00031282939016819,0.01328287087380886,-0.003180971834808588
1768576238294786300,3.866786376953125,0.00035547069273889065,0.010253437794744968,-0.007403206080198288
1768576238304785200,3.87678515625,-0.0001635794760659337,0.008410796523094177,-0.010375027544796467
1768576238314785300,3.886785400390625,0.004705682396888733,0.003835824318230152,-0.01129032764583826
1768576238324785200,3.89678515625,0.0036755716428160667,-0.0008015376515686512,-0.009305473417043686
1768576238334784300,3.9067841796875,0.007076756097376347,0.0021989732049405575,-0.007217584177851677
1768576238344784400,3.916784423828125,0.00890528317540884,0.007917579263448715,-0.006952599622309208
1768576238354784300,3.9267841796875,0.011282368563115597,0.013303571380674839,-0.00510273827239871
1768576238364784000,3.9367841796875,0.012250694446265697,0.014664179645478725,-0.0023247948847711086
1768576238374783200,3.946783203125,0.014475882053375244,0.017932763323187828,-0.00544974859803915
1768576238384783400,3.956783447265625,0.0146295465528965,0.015887988731265068,-0.010873275808990002
1768576238394783200,3.966783203125,0.012194869108498096,0.003195248544216156,-0.016120560467243195
1768576238404782300,3.9767822265625,0.0060453638434410095,-0.0015774024650454521,-0.015275540761649609
1768576238414782200,3.9867822265625,0.0021817428059875965,-0.0015575375873595476,-0.010977908968925476
1768576238425407500,3.997407470703125,0.00005014869384467602,-0.0018395662773400545,-0.0117510249838233
1768576238435407400,4.007407470703125,-0.003292481182143092,-0.004153119400143623,-0.011664353311061859
1768576238445406200,4.01740625,-0.005090381018817425,-0.0012318978551775217,-0.010241692885756493
1768576238455406000,4.027406005859375,-0.00606663478538394,-0.0006916141137480736,-0.006282133050262928
1768576238465406500,4.037406494140625,-0.006629094481468201,0.0010500932112336159,-0.004328172653913498
1768576238475406300,4.04740625,-0.0038983195554465055,0.0031819897703826427,-0.006963222753256559
1768576238485405200,4.0574052734375,-0.0021217248868197203,0.0025425651110708714,-0.0063925073482096195
1768576238495405300,4.0674052734375,-0.002681517507880926,-0.003227799665182829,-0.007987948134541512
1768576238505405200,4.0774052734375,-0.0054847607389092445,-0.0057410248555243015,-0.005634513217955828
1768576238515404300,4.087404296875,-0.00408629234880209,-0.004370655864477158,-0.0011299229227006435
1768576238525404200,4.097404052734375,-0.005634387955069542,-0.0076500722207129,0.006331189069896936
1768576238535404300,4.107404296875,-0.004427628125995398,-0.010264014825224876,0.0063677625730633736
1768576238545404200,4.117404052734375,0.0011463676346465945,-0.011281076818704605,0.0063736215233802795
1768576238555403300,4.1274033203125,0.0017459255177527666,-0.0024887006729841232,0.012944260612130165
1768576238565403100,4.137403076171875,0.0034290433395653963,0.003014455083757639,0.012748251669108868
1768576238575403300,4.1474033203125,0.0011132934596389532,0.011324381455779076,0.012958583422005177
1768576238585403100,4.157403076171875,-0.0009392048232257366,0.006604460999369621,0.008960379287600517
1768576238595402200,4.16740234375,0.0025485167279839516,-0.003738112049177289,0.002780425827950239
1768576238605402000,4.177402099609375,-0.0016198628582060337,-0.01432817243039608,-0.003825012594461441
1768576238615402200,4.18740234375,-0.005014512222260237,-0.01877783238887787,-0.005086729768663645
1768576238625401300,4.1974013671875,-0.004374820739030838,-0.016824934631586075,-0.0059999278746545315
1768576238635401200,4.207401123046875,-0.003013879992067814,-0.011710233986377716,-0.00984523631632328
1768576238645401300,4.2174013671875,0.0036035424564033747,-0.0025750589556992054,-0.005974598694592714
1768576238655401200,4.227401123046875,0.007637039292603731,0.007340393029153347,0.00021192524582147598
1768576238665400300,4.237400390625,0.00921229925006628,0.009666398167610168,0.006731077097356319
1768576238675400200,4.247400146484375,0.013121655210852623,0.012828470207750797,0.010799143463373184
1768576238685400300,4.257400390625,0.011665971018373966,0.019291430711746216,0.015548625960946083
1768576238695400200,4.267400146484375,0.011247701942920685,0.013754632323980331,0.014736036770045757
1768576238705399300,4.2773994140625,0.008131537586450577,0.008951886557042599,0.014646554365754128
1768576238715399200,4.287399169921875,0.008351985365152359,0.011049997061491013,0.00962412916123867
1768576238725399300,4.2973994140625,0.009764259681105614,0.01184787880629301,0.009274987503886223
1768576238735398400,4.3073984375,0.01164645329117775,0.012867575511336327,0.006165214814245701
1768576238745398300,4.317398193359375,0.010709553025662899,0.009974317625164986,0.003660511691123247
1768576238755398400,4.3273984375,0.013200894929468632,0.006757938303053379,0.0010411152616143227
1768576238765398300,4.337398193359375,0.012753750197589397,0.0094384104013443,-0.001964528113603592
1768576238775397400,4.3473974609375,0.01255720853805542,0.011983859352767467,-0.005792822688817978
1768576238785397200,4.357397216796875,0.011066105216741562,0.011564145796000957,-0.009200602769851685
1768576238795397400,4.3673974609375,0.008476507849991322,0.010187485255300999,-0.009951645508408546
1768576238805396200,4.377396240234375,0.007547863759100437,0.010883902199566364,-0.00706903962418437
1768576238815396400,4.387396240234375,0.006565378047525883,0.015461795963346958,-0.010560886934399605
1768576238826021000,4.398021240234375,0.008666345849633217,0.01749405637383461,-0.006536051165312529
1768576238836021500,4.408021484375,0.007494280114769936,0.021293414756655693,-0.0037898607552051544
1768576238846020000,4.41802001953125,0.007069772109389305,0.03167601674795151,-0.003017543815076351
1768576238856020200,4.428020263671875,0.005517179612070322,0.0388670489192009,-0.0024733422324061394
1768576238866020000,4.43802001953125,0.003345371689647436,0.039934173226356506,-0.00042856717482209206
1768576238876020200,4.448020263671875,0.003558720927685499,0.041642822325229645,0.0024799893144518137
1768576238886019300,4.458019287109375,0.0031200984958559275,0.04624662920832634,0.001963069662451744
1768576238896019200,4.468019287109375,0.002525567775592208,0.052239589393138885,-0.0008309986442327499
1768576238906019300,4.478019287109375,0.00495277252048254,0.052952516824007034,-0.0009380574338138103
1768576238916018200,4.48801806640625,0.006842514034360647,0.0531206950545311,0.0005395524203777313
1768576238926018300,4.498018310546875,0.0038768178783357143,0.05510767921805382,0.006959102116525173
1768576238936018200,4.50801806640625,0.003659062087535858,0.052347734570503235,0.006384479813277721
1768576238946018300,4.518018310546875,-0.0003021238371729851,0.04752422124147415,0.004845971707254648
1768576238956017200,4.52801708984375,0.002049653325229883,0.044102929532527924,0.005123503506183624
1768576238966017300,4.538017333984375,0.0028632490430027246,0.040551602840423584,0.0045205638743937016
1768576238976017200,4.54801708984375,0.00435258261859417,0.03791544586420059,0.0056373123079538345
1768576238986017300,4.558017333984375,0.00455018924549222,0.03472471237182617,0.007517503574490547
1768576238996016400,4.568016357421875,0.007382055278867483,0.032299187034368515,0.0017690747044980526
1768576239006016300,4.578016357421875,0.008772491477429867,0.026031171903014183,-0.002885331865400076
1768576239016016100,4.58801611328125,0.007598500233143568,0.016049012541770935,-0.005363966803997755
1768576239026016000,4.59801611328125,0.006286893505603075,0.011193802580237389,-0.004857966210693121
1768576239036015000,4.60801513671875,0.004441940691322088,0.008957760408520699,-0.008007330819964409
1768576239046015000,4.618014892578125,0.0038179620169103146,0.0024250266142189503,-0.00676443288102746
1768576239056015000,4.62801513671875,0.0036854813806712627,-0.00198049726895988,-0.002213031519204378
1768576239066015000,4.638014892578125,0.001097687752917409,-0.009846676141023636,-0.0013448409736156464
1768576239076014000,4.64801416015625,-0.0014083823189139366,-0.009666571393609047,-0.0020393086597323418
1768576239086014000,4.658013916015625,-0.0015481982845813036,-0.007210071664303541,-0.004397803917527199
1768576239096014000,4.66801416015625,-0.004076662473380566,-0.005362565163522959,-0.0072321766056120396
1768576239106013200,4.67801318359375,-0.0024880871642380953,-0.00472287368029356,-0.005150915589183569
1768576239116013000,4.688012939453125,-0.002966038417071104,-0.0035447438713163137,-0.004091685637831688
1768576239126013000,4.698012939453125,-0.0028789532370865345,-0.0021268767304718494,-0.002528943121433258
1768576239136013000,4.708012939453125,-0.0011792461154982448,-0.0028794968966394663,-0.006760946940630674
1768576239146012200,4.71801220703125,-0.0006617939798161387,-0.0028986716642975807,-0.009235288947820663
1768576239156012000,4.728011962890625,-0.0008814322063699365,-0.0012106618378311396,-0.005951313301920891
1768576239166012200,4.73801220703125,0.0008118055993691087,0.00031319912523031235,-0.0048080189153552055
1768576239176012000,4.748011962890625,0.003165715839713812,-0.001580558717250824,-0.005763267632573843
1768576239186011100,4.75801123046875,-0.001248473534360528,-0.001292671076953411,-0.0027115517295897007
1768576239196011000,4.768010986328125,-0.0022417299915105104,-0.0004920617211610079,0.003498291363939643
1768576239206011100,4.77801123046875,-0.0038771771360188723,0.0029825647361576557,0.004089246969670057
1768576239216011000,4.788010986328125,-0.006370684131979942,0.005271989852190018,0.0012248125858604908
1768576239226010000,4.798010009765625,-0.0037176432088017464,0.0031334715895354748,-0.0004391302354633808
1768576239236010000,4.808010009765625,-0.004544670227915049,0.003091746475547552,-0.0005530561320483685
1768576239246010000,4.818010009765625,-0.0045862155966460705,0.007583167403936386,0.000055476557463407516
1768576239256010000,4.828010009765625,-0.0024192826822400093,0.011780321598052979,-0.00046173669397830963
1768576239266009000,4.838009033203125,-0.00012976315338164568,0.018081361427903175,0.0010133881587535143
1768576239276009000,4.848009033203125,0.0006578095490112901,0.023185353726148605,0.003246211912482977
1768576239286009000,4.858009033203125,0.0010391741525381804,0.02628154307603836,0.0020664315670728683
1768576239296009000,4.868009033203125,0.00016597402282059193,0.024365423247218132,0.001439166022464633
1768576239306008000,4.878008056640625,0.00003095180727541447,0.02580912411212921,0.009118657559156418
1768576239316008200,4.88800830078125,0.0007231223862618208,0.02595757693052292,0.013862338848412037
1768576239326008000,4.898008056640625,0.0013436388690024614,0.028340041637420654,0.01626690663397312
1768576239336007200,4.908007080078125,0.0024663698859512806,0.03032704070210457,0.014076748862862587
1768576239346007000,4.918007080078125,0.0008788594277575612,0.027170129120349884,0.010190931148827076
1768576239356007200,4.928007080078125,-0.0019244912546128035,0.02401353232562542,0.00838116928935051
1768576239366007000,4.938007080078125,-0.006767981685698032,0.01800304464995861,0.007969977334141731
1768576239376006100,4.948006103515625,-0.010082226246595383,0.013239909894764423,0.007922809571027756
1768576239386006000,4.958006103515625,-0.010378103703260422,0.015853002667427063,0.008804848417639732
1768576239396006100,4.968006103515625,-0.0077554224990308285,0.009650234133005142,0.010610738769173622
1768576239406006000,4.978006103515625,-0.007450756151229143,0.005074657499790192,0.009902071207761765
1768576239416004900,4.9880048828125,-0.0067849368788301945,0.008051502518355846,0.0058778864331543446
1768576239426005200,4.998005126953125,-0.00732822110876441,0.007879195734858513,0.005990537814795971
1768576239436005000,5.008005126953125,-0.0055089411325752735,0.006140195764601231,0.009773321449756622
1768576239446005000,5.0180048828125,-0.006356624886393547,0.000003473367542028427,0.003633136861026287
1768576239456003800,5.02800390625,-0.007188626565039158,0.000005107372999191284,0.0007924912497401237
1768576239466004200,5.038004150390625,-0.006448267959058285,-0.0026476671919226646,0.00717715360224247
1768576239476004000,5.048004150390625,-0.009217276237905025,-0.0012240651994943619,0.004842686466872692
1768576239486004200,5.058004150390625,-0.012598692439496517,-0.00038570212200284004,0.0064254030585289
1768576239496002800,5.0680029296875,-0.010904017835855484,0.0009323046542704105,0.00829801894724369
1768576239506003000,5.0780029296875,-0.013811123557388783,0.0008010109886527061,0.005577333737164736
1768576239516003000,5.088003173828125,-0.00962705910205841,0.0015128548257052898,0.005763100925832987
1768576239526003200,5.098003173828125,-0.004521779716014862,-0.0016810745000839233,0.0026717036962509155
1768576239536002000,5.108001953125,-0.00024233129806816578,-0.005238410551100969,0.002676023170351982
1768576239546002000,5.118001953125,-0.001388822216540575,-0.0028293149080127478,0.006210037972778082
1768576239556001800,5.128001708984375,0.000035152886994183064,-0.003466669237241149,0.009586337953805923
1768576239566002200,5.138002197265625,-0.002323076594620943,-0.001994740217924118,0.0050890580751001835
1768576239576001000,5.1480009765625,0.0009439432178623974,-0.005679100751876831,-0.008919762447476387
1768576239586001000,5.1580009765625,-0.0025048505049198866,-0.005614385940134525,-0.011314475908875465
1768576239596001000,5.1680009765625,0.0025627021677792072,-0.004818740300834179,-0.013428406789898872
1768576239606001000,5.1780009765625,0.008018453605473042,-0.006398793309926987,-0.012165535241365433
1768576239616000000,5.188,0.01290794275701046,-0.009338700212538242,-0.010671263560652733
1768576239626000000,5.197999755859375,0.015966316685080528,-0.008789289742708206,-0.0060703870840370655
1768576239636000000,5.208,0.014087175950407982,-0.009323902428150177,-0.005443272180855274
1768576239645999900,5.217999755859375,0.011009094305336475,-0.006524920463562012,-0.006135427393019199
1768576239655999000,5.2279990234375,0.005321255419403315,0.0011819349601864815,-0.013263581320643425
1768576239665998800,5.237998779296875,0.0006127868546172976,0.005793464370071888,-0.01498425006866455
1768576239675999000,5.2479990234375,-0.005426574498414993,0.009184764698147774,-0.01719355210661888
1768576239685998800,5.257998779296875,-0.004788214806467295,0.009010061621665955,-0.019034329801797867
1768576239695998000,5.267998046875,-0.004449344240128994,0.00497368723154068,-0.01810814067721367
1768576239705997800,5.277997802734375,-0.002066081389784813,0.004390987567603588,-0.01649586111307144
1768576239715998000,5.287998046875,0.002254852559417486,0.007100407965481281,-0.01130553800612688
1768576239725997800,5.297997802734375,0.0105085214599967,0.007792564108967781,-0.0034726494923233986
1768576239735997000,5.307996826171875,0.015863237902522087,0.007705681025981903,0.005087932106107473
1768576239745997000,5.3179970703125,0.020306721329689026,0.013119088485836983,0.006543615832924843
1768576239755997000,5.327996826171875,0.020490074530243874,0.014130908064544201,0.014924587681889534
1768576239765997000,5.3379970703125,0.01727297529578209,0.016891274601221085,0.015098491683602333
1768576239775996000,5.347995849609375,0.012532745487987995,0.01806456409394741,0.013472335413098335
1768576239785996000,5.35799609375,0.0077670179307460785,0.015604602172970772,0.005295365117490292
1768576239795996000,5.367995849609375,0.0033308295533061028,0.012769939377903938,0.00040408410131931305
1768576239805996000,5.37799609375,0.000493497820571065,0.004285109229385853,-0.0028630816377699375
1768576239815995000,5.387994873046875,-0.002115289680659771,-0.0012097109574824572,-0.007604129612445831
1768576239825995000,5.3979951171875,-0.005520940292626619,-0.005065169185400009,-0.00741877406835556
1768576239835995000,5.407994873046875,-0.007946338504552841,-0.007635103538632393,-0.00565360439941287
1768576239845994000,5.417993896484375,-0.004950814880430698,-0.005994330160319805,-0.0040535773150622845
1768576239855994000,5.427994140625,-0.003271236550062895,-0.002786275465041399,-0.005211545154452324
1768576239865994000,5.437993896484375,-0.001181187923066318,0.001161061692982912,-0.0026306756772100925
1768576239875993900,5.447993896484375,0.000571752549149096,0.003173370845615864,-0.0008661579340696335
1768576239885993000,5.457992919921875,-0.0003947087097913027,-0.00003627082332968712,-0.0032142670825123787
1768576239895993000,5.4679931640625,-0.0009180197957903147,-0.0017255139537155628,-0.0070438929833471775
1768576239905993000,5.477992919921875,0.0004423229256644845,-0.0010650500189512968,-0.00884711928665638
1768576239915993000,5.4879931640625,-0.0009357009548693895,-0.0018259226344525814,-0.00885019451379776
1768576239925992000,5.497991943359375,-0.0004635225050151348,-0.0022664093412458897,-0.009342079982161522
1768576239935992000,5.507991943359375,-0.0001726489281281829,-0.0021191537380218506,-0.006818496622145176
1768576239945992000,5.517991943359375,0.000817780673969537,-0.0019138238858431578,-0.005583588965237141
1768576239955992000,5.527991943359375,-0.0006148049142211676,-0.0037986424285918474,-0.00439638365060091
1768576239965991000,5.537990966796875,-0.002599925035610795,-0.009022699669003487,-0.0019159149378538132
1768576239975991000,5.547990966796875,-0.0033588511869311333,-0.008918525651097298,-0.002025342546403408
1768576239985991000,5.557990966796875,-0.0038283667527139187,-0.007391469087451696,0.002351829083636403
1768576239995991000,5.567990966796875,-0.0022589541040360928,-0.006534292828291655,0.003135127015411854
1768576240005990100,5.577990234375,-0.0027945158071815968,-0.00474837701767683,0.002778529655188322
1768576240015990500,5.587990478515625,0.0005767828552052379,-0.004318598657846451,0.0031819953583180904
1768576240025990400,5.597990478515625,-0.0007569283479824662,-0.0020194915123283863,0.007670220918953419
1768576240035990500,5.607990478515625,-0.0008029887685552239,-0.0033431779593229294,0.012213902547955513
1768576240045989600,5.61798974609375,-0.0005835444899275899,-0.0037024382036179304,0.012323624454438686
1768576240055989500,5.627989501953125,-0.001383648719638586,-0.0013624769635498524,0.011023914441466331
1768576240065989400,5.6379892578125,-0.0010472913272678852,0.0023869872093200684,0.007310934364795685
1768576240075989500,5.647989501953125,-0.00201224023476243,0.0037748124450445175,0.005843709222972393
1768576240085988600,5.657988525390625,-0.002331287134438753,-0.0006686721462756395,0.0028979864437133074
1768576240095988500,5.667988525390625,-0.003489349503070116,-0.004025444388389587,0.0020809886045753956
1768576240105988600,5.677988525390625,-0.004705881699919701,-0.0021654926240444183,0.000672709196805954
1768576240115988500,5.687988525390625,-0.00365171255543828,0.0011170124635100365,0.00162754044868052
1768576240125987600,5.697987548828125,-0.0029832590371370316,0.002315168734639883,0.003233692841604352
1768576240135987500,5.707987548828125,-0.0036348747089505196,0.0071181077510118484,0.007222811691462994
1768576240145987600,5.717987548828125,-0.0019722627475857735,0.008819867856800556,0.01340187806636095
1768576240155987500,5.727987548828125,-0.0016889926046133041,0.009278305806219578,0.01519622839987278
1768576240165986600,5.737986572265625,-0.002233076374977827,0.007360297255218029,0.014728842303156853
1768576240175986400,5.747986328125,-0.0005526369204744697,0.0031723612919449806,0.006332369986921549
1768576240185986600,5.757986572265625,-0.002787028905004263,-0.005702623166143894,0.000586067559197545
1768576240195986400,5.767986328125,-0.0010791438398882747,-0.002521743532270193,-0.0020973337814211845
1768576240205985500,5.777985595703125,0.001460979226976633,-0.009732784703373909,-0.0031575378961861134
1768576240215985700,5.787985595703125,-0.0029740992467850447,-0.01370959635823965,-0.0023939525708556175
1768576240225985500,5.797985595703125,-0.002342930296435952,-0.01650564931333065,0.0020966697484254837
1768576240235985400,5.8079853515625,-0.0028827080968767405,-0.017856590449810028,0.0064279455691576
1768576240245984500,5.817984619140625,-0.005437212064862251,-0.019759152084589005,0.010029338300228119
1768576240255984600,5.827984619140625,-0.006051250267773867,-0.01824786141514778,0.010157261043787003
1768576240265984500,5.837984619140625,-0.0025949999690055847,-0.01372048631310463,0.009152449667453766
1768576240275984600,5.847984619140625,-0.006179524585604668,-0.009127972647547722,0.00782947987318039
1768576240285983500,5.8579833984375,-0.00476618530228734,-0.006788386031985283,0.007244116626679897
1768576240295983600,5.867983642578125,-0.006074757780879736,-0.010999102145433426,0.0050623356364667416
1768576240305983500,5.8779833984375,-0.004919478669762611,-0.008187336847186089,0.006373410113155842
1768576240315983600,5.887983642578125,-0.0033160834573209286,-0.0031817625276744366,0.008912915363907814
1768576240325982500,5.897982421875,-0.0006838151020929217,-0.002492536325007677,0.005512591451406479
1768576240335982600,5.907982666015625,0.0001956248888745904,-0.011987898498773575,0.00029249629005789757
1768576240345982500,5.917982421875,0.002782353200018406,-0.02205517888069153,-0.002517671324312687
1768576240355982600,5.927982666015625,0.001847584149800241,-0.029409285634756088,-0.0015083374455571175
1768576240365981700,5.937981689453125,0.004645767621695995,-0.03273477777838707,-0.004324098117649555
1768576240375981600,5.947981689453125,0.003637257730588317,-0.03351293504238129,-0.007187139708548784
1768576240385981400,5.9579814453125,0.0033293962478637695,-0.03466315194964409,-0.007320031989365816
1768576240395981600,5.967981689453125,0.0010294753592461348,-0.028903648257255554,-0.006556030362844467
1768576240405980700,5.977980712890625,-0.00030956207774579525,-0.02761920727789402,-0.005252146162092686
1768576240415980500,5.98798046875,-0.005205963272601366,-0.02834416925907135,-0.005898404400795698
1768576240425980700,5.997980712890625,-0.005208093672990799,-0.02323170006275177,-0.003696769941598177
1768576240435980500,6.00798046875,-0.007278921082615852,-0.019836146384477615,0.0023463827092200518
1768576240445979600,6.017979736328125,-0.008935673162341118,-0.010129456408321857,0.002891531679779291
1768576240455979500,6.0279794921875,-0.008830567821860313,-0.0022429306991398335,0.0031590922735631466
1768576240465979600,6.037979736328125,-0.010470808483660221,0.006773999892175198,0.00788593664765358
1768576240475979500,6.0479794921875,-0.009279310703277588,0.009478972293436527,0.00806490145623684
1768576240485978600,6.057978515625,-0.01010941807180643,0.0067977020516991615,0.006439307704567909
1768576240495978500,6.067978515625,-0.008116708137094975,0.004481579177081585,0.00536738708615303
1768576240505978600,6.077978515625,-0.006460222415626049,0.003595544956624508,0.00762201938778162
1768576240515978500,6.087978515625,-0.008561322465538979,0.0014186492189764977,0.00620494969189167
1768576240525977600,6.0979775390625,-0.008587154559791088,0.0020002839155495167,0.004510380327701569
1768576240535977700,6.107977783203125,-0.006600439548492432,0.003192103933542967,0.006404955871403217
1768576240545977600,6.1179775390625,-0.006682198494672775,-0.0010761443991214037,0.009200209751725197
1768576240555977500,6.1279775390625,-0.006371347699314356,-0.002020839136093855,0.01175894495099783
1768576240565976600,6.1379765625,-0.006444317754358053,-0.0039915782399475574,0.009747193194925785
1768576240575976700,6.147976806640625,-0.008991410955786705,-0.004484875127673149,0.004610577132552862
1768576240585976600,6.1579765625,-0.010957355611026287,-0.002898962702602148,0.004791139625012875
1768576240595976700,6.167976806640625,-0.007120626047253609,-0.004080022219568491,0.00544032733887434
1768576240605975600,6.1779755859375,-0.005869473330676556,0.0013134116306900978,0.006786555517464876
1768576240615975700,6.1879755859375,-0.005767399445176125,-0.0022756876423954964,0.006710417568683624
1768576240625975600,6.1979755859375,-0.009309936314821243,-0.0072768377140164375,0.0045279571786522865
1768576240635975700,6.2079755859375,-0.008930630050599575,-0.013292286545038223,-0.0005703666247427464
1768576240645974300,6.217974365234375,-0.009583370760083199,-0.013069113716483116,-0.0006561200134456158
1768576240655974700,6.227974609375,-0.00744816567748785,-0.013789943419396877,0.00020733382552862167
1768576240665974500,6.237974609375,-0.007921408861875534,-0.016988134011626244,0.0036619864404201508
1768576240675974700,6.247974609375,-0.0039793564938008785,-0.01592060551047325,0.005417988635599613
1768576240685973500,6.257973388671875,-0.005018521565943956,-0.011055807583034039,0.006185511592775583
1768576240695973400,6.267973388671875,-0.005063038319349289,-0.00772965420037508,0.0031551867723464966
1768576240705973500,6.277973388671875,-0.0062886252999305725,-0.011762479320168495,0.000038489699363708496
1768576240715973600,6.2879736328125,-0.006788899190723896,-0.012292742729187012,-0.00026990659534931183
1768576240725972500,6.297972412109375,-0.00817187875509262,-0.013018719851970673,-0.0014219903387129307
1768576240735972400,6.307972412109375,-0.009646440856158733,-0.012623541988432407,-0.007023299112915993
1768576240745972700,6.31797265625,-0.00415127445012331,-0.019509144127368927,-0.006640336476266384
1768576240755972600,6.32797265625,-0.011508538387715816,-0.015464983880519867,-0.0023226123303174973
1768576240765971500,6.337971435546875,-0.011611335910856724,-0.00838204100728035,0.002176798414438963
1768576240775971300,6.347971435546875,-0.010547196492552757,-0.008272247388958931,0.0018732286989688873
1768576240785971500,6.357971435546875,-0.009823882021009922,-0.006360364146530628,-0.0019239061512053013
1768576240795971600,6.3679716796875,-0.007461613044142723,-0.002244901843369007,0.0008717903401702642
1768576240805970400,6.377970458984375,-0.005952400155365467,-0.001873390981927514,0.000026236753910779953
1768576240815970300,6.38797021484375,-0.0038470239378511906,-0.0029875142499804497,-0.003545000683516264
1768576240825970400,6.397970458984375,-0.0033154566772282124,-0.004997135605663061,0.0019869173411279917
1768576240835970300,6.40797021484375,-0.003628926118835807,-0.0038765929639339447,0.0014201374724507332
1768576240845969400,6.417969482421875,-0.002988169202581048,-0.00661751814186573,0.000514928949996829
1768576240855969500,6.427969482421875,-0.0022532991133630276,-0.008656425401568413,0.0004663399886339903
1768576240865969400,6.437969482421875,-0.0005890898173674941,-0.01045219600200653,-0.002209604252129793
1768576240875969500,6.447969482421875,-0.0008226645877584815,-0.012950941920280457,-0.0017031352035701275
1768576240885968400,6.457968505859375,-0.0011084215948358178,-0.01266917958855629,0.00004017027094960213
1768576240895968500,6.467968505859375,-0.003423758316785097,-0.008528061211109161,0.002512979321181774
1768576240905968400,6.477968505859375,-0.0038384124636650085,-0.005852383561432362,0.003873854409903288
1768576240915968500,6.487968505859375,-0.0007281363941729069,-0.0030331260059028864,0.006808539852499962
1768576240925967400,6.49796728515625,0.0010497898329049349,-0.0015103304758667946,0.006434897892177105
1768576240935967500,6.507967529296875,0.002670988207682967,0.0011323518119752407,0.008524416014552116
1768576240945967400,6.51796728515625,0.004354905337095261,0.005364913493394852,0.00550625566393137
1768576240955967500,6.527967529296875,0.0028552208095788956,0.004929237067699432,0.0028979824855923653
1768576240965966300,6.53796630859375,0.002711410168558359,-0.0008269194513559341,-0.0006834366358816624
1768576240975966500,6.547966552734375,0.0010877986205741763,0.0006310734897851944,-0.0040177712216973305
1768576240985966300,6.55796630859375,0.0007495771860703826,-0.004912296310067177,-0.005411136895418167
1768576240995965400,6.56796533203125,0.006529683247208595,-0.009620025753974915,-0.007816559635102749
1768576241005965600,6.577965576171875,0.0017935176147148013,-0.003306203754618764,-0.006718538701534271
1768576241015964700,6.587964599609375,0.002011708915233612,-0.0010694265365600586,-0.0047629536129534245
1768576241025964800,6.59796484375,0.0016223546117544174,-0.000561561668291688,-0.0034747826866805553
1768576241035964700,6.607964599609375,0.0008807815029285848,0.00018669897690415382,-0.00413876585662365
1768576241045963500,6.617963623046875,0.001699703512713313,-0.000022891908884048462,-0.005790192633867264
1768576241055963600,6.627963623046875,0.003388015553355217,-0.0009760649409145117,-0.003387223929166794
1768576241065963800,6.6379638671875,0.003945948090404272,-0.0017324027139693499,-0.00012591667473316193
1768576241075963600,6.647963623046875,0.0056901113130152225,0.0017821001820266247,-0.0002599041908979416
1768576241085962500,6.65796240234375,0.00511833094060421,0.0032452410086989403,0.0007502329535782337
1768576241095962600,6.667962646484375,0.005695600062608719,0.00283057801425457,0.0020763403736054897
1768576241105962800,6.677962646484375,0.003422059118747711,0.0005083018913865089,0.002624685410410166
1768576241115962600,6.687962646484375,0.003938105423003435,-0.004525915253907442,0.0005356727633625269
1768576241125961500,6.69796142578125,0.0026928111910820007,-0.0041589317843317986,0.0014659150037914515
1768576241135961600,6.707961669921875,0.0004767199279740453,-0.005708402954041958,-0.0015594642609357834
1768576241145961500,6.71796142578125,-0.0002812157617881894,-0.0010401478502899408,-0.005779776256531477
1768576241155961900,6.7279619140625,-0.00047819875180721283,0.00117064593359828,-0.009073756635189056
1768576241165960400,6.73796044921875,0.0002709485124796629,0.005406137555837631,-0.012053567916154861
1768576241175960600,6.747960693359375,0.0020722071640193462,0.007532130926847458,-0.013404201716184616
1768576241185960400,6.75796044921875,0.0022841948084533215,0.005287619307637215,-0.009959403425455093
1768576241195960600,6.767960693359375,0.0015132087282836437,-0.00008110189810395241,-0.00989069975912571
1768576241205959700,6.777959716796875,0.0017273268895223737,-0.003870780114084482,-0.012487015686929226
1768576241215959600,6.78795947265625,-0.00013087864499539137,-0.00664506433531642,-0.014289642684161663
1768576241225959400,6.79795947265625,0.0010678101098164916,-0.00922433566302061,-0.01252077054232359
1768576241235959600,6.80795947265625,0.0016442816704511642,-0.011610858142375946,-0.009969079867005348
1768576241245958700,6.817958740234375,0.0001348019577562809,-0.014885214157402515,-0.009995179250836372
1768576241255958500,6.82795849609375,0.0025387187488377094,-0.014114885590970516,-0.011924846097826958
1768576241265958700,6.837958740234375,0.0043797618709504604,-0.01573328860104084,-0.012028709053993225
1768576241275958500,6.84795849609375,0.0017005323898047209,-0.016440782696008682,-0.017188403755426407
1768576241285957600,6.85795751953125,0.0029993560165166855,-0.01563331112265587,-0.014327369630336761
1768576241295957500,6.86795751953125,-0.00003256346099078655,-0.016684623435139656,-0.012655620463192463
1768576241305957600,6.87795751953125,0.0007032679859548807,-0.017155736684799194,-0.009175668470561504
1768576241315957500,6.88795751953125,-0.0009475067490711808,-0.01566658541560173,-0.003155382815748453
1768576241325956600,6.89795654296875,-0.0008511001942679286,-0.01782853901386261,0.003735546488314867
1768576241335956500,6.90795654296875,-0.0027929889038205147,-0.019868094474077225,0.005140184890478849
1768576241345956600,6.91795654296875,-0.000213717226870358,-0.017998289316892624,0.008905895054340363
1768576241355956500,6.92795654296875,-0.0021392712369561195,-0.014325417578220367,0.011764178052544594
1768576241365955600,6.93795556640625,-0.0003275227500125766,-0.011408723890781403,0.011672032997012138
1768576241375955500,6.94795556640625,-0.0005737030878663063,-0.006447050720453262,0.012291066348552704
1768576241385955600,6.95795556640625,-0.0007135190535336733,-0.005745840258896351,0.010261205956339836
1768576241395955500,6.96795556640625,-0.0022826530039310455,-0.008152218535542488,0.008453190326690674
1768576241405954600,6.97795458984375,-0.002519674599170685,-0.005499177612364292,0.00719777587801218
1768576241415954700,6.98795458984375,-0.0024920671712607145,-0.004001309163868427,0.004962763749063015
1768576241425954600,6.99795458984375,-0.0032782324124127626,-0.006753952242434025,0.0036807178985327482
1768576241435954700,7.00795458984375,0.0002506494056433439,-0.0073639145120978355,0.0014905019197613
1768576241445953500,7.01795361328125,0.0021204547956585884,-0.008309336379170418,0.0036362106911838055
1768576241455953700,7.02795361328125,0.00420399010181427,-0.00885109230875969,0.003858115989714861
1768576241465953500,7.03795361328125,0.005323582794517279,-0.0042664604261517525,0.0030357318464666605
1768576241475953700,7.04795361328125,0.0039553577080369,-0.0017825772520154715,0.004246548283845186
1768576241485952500,7.057952392578125,0.003911416046321392,-0.0038766206707805395,0.004842297174036503
1768576241495952600,7.06795263671875,0.003235535230487585,-0.0010837989393621683,0.002367805689573288
1768576241505952500,7.077952392578125,0.0030648265965282917,0.002926388755440712,-0.0005483557470142841
1768576241515952600,7.08795263671875,0.004820736590772867,-0.004576853476464748,-0.0007756976410746574
1768576241525951700,7.09795166015625,0.003365851938724518,-0.015425239689648151,-0.0031536337919533253
1768576241535951600,7.10795166015625,0.0020303064957261086,-0.010101670399308205,-0.002542325295507908
1768576241545951500,7.117951416015625,0.0001362663460895419,-0.01242394745349884,-0.00038889329880476
1768576241555951600,7.12795166015625,0.0002682978520169854,-0.013092649169266224,0.0018569747917354107
1768576241565950700,7.13795068359375,-0.002963980659842491,-0.007763397879898548,0.005476477090269327
1768576241575950600,7.14795068359375,-0.0015911187510937452,-0.0034476923756301403,0.008277063257992268
1768576241585950700,7.15795068359375,-0.00020387826953083277,-0.0005357922054827213,0.012540783733129501
1768576241595950600,7.16795068359375,0.0005665299249812961,0.00048118969425559044,0.016937486827373505
1768576241605949700,7.17794970703125,0.004143954254686832,-0.004178543109446764,0.016437610611319542
1768576241615949600,7.187949462890625,0.0047178929671645164,-0.004970656242221594,0.015062199905514717
1768576241625949700,7.19794970703125,0.003948771860450506,-0.00380472419783473,0.018073968589305878
1768576241635949600,7.207949462890625,0.0024278864730149508,-0.007059452123939991,0.014592073857784271
1768576241645948700,7.21794873046875,-0.0009625839302316308,-0.005024264566600323,0.014298326335847378
1768576241655948500,7.227948486328125,-0.000958354095928371,-0.0030674459412693977,0.010307185351848602
1768576241665948700,7.23794873046875,-0.0022933967411518097,-0.0019209550227969885,0.008791579864919186
1768576241675948500,7.247948486328125,-0.0011872807517647743,-0.002164838369935751,0.00823300052434206
1768576241685947600,7.25794775390625,0.0017091733170673251,-0.0022098456975072622,0.007502495311200619
1768576241695947500,7.267947509765625,0.005835002288222313,-0.0015110501553863287,0.005760762840509415
1768576241705947600,7.27794775390625,0.005791326519101858,-0.0021813679486513138,0.006007371470332146
1768576241715947500,7.287947509765625,0.006091952323913574,-0.0010653708595782518,0.0029445544350892305
1768576241725946600,7.297946533203125,0.005216837394982576,-0.0010025203227996826,0.002085685031488538
1768576241735946800,7.30794677734375,0.0031737792305648327,-0.001567198196426034,-0.002161580603569746
1768576241745946600,7.317946533203125,0.0025306260213255882,-0.0002888808958232403,-0.00642929645255208
1768576241755946800,7.32794677734375,0.0030062664300203323,0.0008783824741840363,-0.008196037262678146
1768576241765946600,7.337946533203125,0.0015516480198130012,-0.00037143868394196033,-0.007082037162035704
1768576241775945700,7.34794580078125,0.004228864796459675,-0.0017735224682837725,-0.0027980455197393894
1768576241785945600,7.357945556640625,0.0029750484973192215,-0.007481209002435207,-0.0014321100898087025
1768576241795945700,7.36794580078125,0.001983464229851961,-0.014284733682870865,0.004092525225132704
1768576241805945600,7.377945556640625,0.004166457336395979,-0.016048545017838478,0.002472790889441967
1768576241815944700,7.38794482421875,0.0012889851350337267,-0.011050546541810036,0.0030768236611038446
1768576241825944600,7.397944580078125,0.000920936290640384,-0.0032299081794917583,0.0010711969807744026
1768576241835944700,7.40794482421875,-0.0001345624914392829,-0.001645752927288413,0.0017297095619142056
1768576241845944600,7.417944580078125,0.003391196485608816,0.0004994235932826996,0.00020132167264819145
1768576241855943700,7.427943603515625,0.005208597052842379,0.002081856597214937,-0.001196596771478653
1768576241865943600,7.437943603515625,0.008616643957793713,0.0003215069882571697,-0.0008913986384868622
1768576241875943700,7.447943603515625,0.007172027137130499,-0.002421194687485695,-0.004362506326287985
1768576241885943600,7.457943603515625,0.007393335923552513,-0.005499009974300861,-0.003528670873492956
1768576241895942700,7.467942626953125,0.007587375584989786,-0.0015384189318865538,-0.0026547727175056934
1768576241905942800,7.47794287109375,0.004395310766994953,0.006397801451385021,-0.005455619189888239
1768576241915942700,7.487942626953125,0.00582673167809844,0.003012747038155794,-0.003357959445565939
1768576241925942800,7.49794287109375,0.0007781771710142493,0.011684265919029713,-0.01030375063419342
1768576241935941600,7.507941650390625,-0.0014980422565713525,0.009315215051174164,-0.009834032505750656
1768576241945941800,7.517941650390625,-0.00292309932410717,0.009571410715579987,-0.010584244504570961
1768576241955941600,7.527941650390625,-0.002441986696794629,0.008361625485122204,-0.009682442992925644
1768576241965941800,7.537941650390625,-0.0025471814442425966,0.01129190158098936,-0.004543074406683445
1768576241975940600,7.547940673828125,-0.0010046025272458792,0.010227001272141933,-0.0003373767249286175
1768576241985940700,7.557940673828125,0.0010439009638503194,0.01236711721867323,-0.0003304528072476387
1768576241995940600,7.567940673828125,-0.000922295730561018,0.012107894755899906,-0.0009101587347686291
1768576242005940700,7.577940673828125,-0.00030044768936932087,0.010181630030274391,-0.003737636376172304
1768576242015940400,7.5879404296875,-0.0012379393447190523,0.01223148126155138,-0.0018188036046922207
1768576242025940500,7.5979404296875,0.0008947199676185846,0.014305285178124905,-0.00017536664381623268
1768576242035940400,7.6079404296875,0.0007870839908719063,0.014888971112668514,0.0006537646986544132
1768576242045940500,7.6179404296875,-0.002475820714607835,0.01687915250658989,0.0030183852650225163
1768576242055939300,7.627939208984375,-0.0007240379927679896,0.01728040911257267,0.002020322484895587
1768576242065939500,7.637939453125,-0.0018473592353984714,0.01920640841126442,-0.0001924983225762844
1768576242075939300,7.647939208984375,-0.0023341854102909565,0.018389349803328514,0.0030075563117861748
1768576242085939500,7.657939453125,-0.0014505482977256179,0.02052360773086548,0.0018821044359356165
1768576242095938600,7.6679384765625,-0.0005640857852995396,0.0168423131108284,0.004082527942955494
1768576242105938400,7.6779384765625,0.0012684355024248362,0.012674997560679913,0.004702512174844742
1768576242115938300,7.687938232421875,-0.002194429514929652,0.012356774881482124,0.006761573255062103
1768576242125938400,7.6979384765625,-0.00017175870016217232,0.008961244486272335,0.008350148797035217
1768576242135937500,7.7079375,-0.000003076856955885887,0.007381307892501354,0.005427218973636627
1768576242145937400,7.7179375,-0.000646230299025774,0.009023945778608322,0.005897266790270805
1768576242155937500,7.7279375,-0.0018016565591096878,0.01253731083124876,0.008379272185266018
1768576242165937400,7.7379375,-0.00018458522390574217,0.019256465137004852,0.005050587002187967
1768576242175936500,7.7479365234375,-0.00020090746693313122,0.018536197021603584,0.008405065163969994
1768576242185936400,7.757936279296875,0.0006467766361311078,0.017771869897842407,0.00516426470130682
1768576242195936500,7.7679365234375,0.0005251024849712849,0.016345497220754623,0.010843846015632153
1768576242205936400,7.777936279296875,0.0016593427862972021,0.01365543995052576,0.013673987239599228
1768576242215935500,7.787935546875,-0.0019590347073972225,0.01300880592316389,0.012089647352695465
1768576242225935400,7.797935302734375,-0.0036671864800155163,0.011061769910156727,0.008960166946053505
1768576242235935500,7.807935546875,-0.004240773618221283,0.010844596661627293,0.012048065662384033
1768576242245935400,7.817935302734375,-0.003703347174450755,0.013291776180267334,0.016100598499178886
1768576242255935500,7.827935546875,0.001336760469712317,0.01843869686126709,0.012366613373160362
1768576242265934600,7.8379345703125,0.0036904620938003063,0.018592894077301025,0.005970499478280544
1768576242275934500,7.8479345703125,0.006642931140959263,0.015498782508075237,0.003693588776513934
1768576242285934300,7.857934326171875,0.005760625936090946,0.007855243049561977,0.000533215468749404
1768576242295934500,7.8679345703125,0.004268530756235123,-0.005220833700150251,-0.006000555586069822
1768576242305933600,7.87793359375,0.0032959445379674435,-0.0030133393593132496,0.001816621283069253
1768576242315933400,7.887933349609375,-0.00010597752407193184,-0.0075471047312021255,0.002250183839350939
1768576242325933600,7.89793359375,-0.0018037427216768265,-0.011439314112067223,0.004090428352355957
1768576242335933400,7.907933349609375,0.00020752102136611938,-0.010356659069657326,0.0034559734631329775
1768576242345932500,7.9179326171875,-0.0007530811708420515,-0.011112464591860771,0.00326129631139338
1768576242355932400,7.927932373046875,0.00006126903463155031,-0.006171582266688347,0.002682414837181568
1768576242365932500,7.9379326171875,0.00007032370194792747,-0.001333950087428093,0.007699277717620134
1768576242375932400,7.947932373046875,0.0021784957498311996,0.004123195074498653,0.010934805497527122
1768576242385931500,7.957931640625,0.00036594830453395844,0.007359468378126621,0.011782223358750343
1768576242395931400,7.967931396484375,-0.00039723864756524563,0.010440576821565628,0.013660850934684277
1768576242405931500,7.977931640625,-0.0018446666654199362,0.008176357485353947,0.01109436247497797
1768576242415931400,7.987931396484375,-0.0037133945152163506,0.009441954083740711,0.008593440987169743
1768576242426555400,7.998555419921875,-0.0040862369351089,0.0119320098310709,0.010121296159923077
1768576242436555300,8.00855517578125,-0.004530317150056362,0.010499522089958191,0.012263281270861626
1768576242446555400,8.018555419921874,-0.003558263648301363,0.003083950374275446,0.013063827529549599
1768576242456555300,8.02855517578125,-0.0011175204999744892,-0.002059492515400052,0.012726759538054466
1768576242466554400,8.038554443359375,-0.00018887629266828299,-0.00606968067586422,0.008609246462583542
1768576242476554500,8.048554443359375,0.0008437797660008073,-0.006203494966030121,0.004139191936701536
1768576242486554400,8.058554443359375,0.0006906479829922318,-0.006968887522816658,-0.0014846050180494785
1768576242496554500,8.068554443359375,0.000057984027080237865,-0.0031578957568854094,0.00016164034605026245
1768576242506554400,8.078554443359375,-0.0023551059421151876,-0.0021192629355937243,-0.0005339770577847958
1768576242516553500,8.088553466796874,-0.00364475604146719,0.0038115084171295166,-0.0033082482405006886
1768576242526553300,8.09855322265625,-0.0024287570267915726,0.0027643530629575253,-0.003258713521063328
1768576242536553500,8.108553466796875,0.0004456371534615755,0.005133581347763538,-0.005531544331461191
1768576242546553300,8.11855322265625,0.00006613670848309994,0.0055847205221652985,-0.0054857381619513035
1768576242556552400,8.128552490234375,0.00007866823580116034,0.0024518929421901703,-0.005618837662041187
1768576242566552300,8.13855224609375,-0.001987944822758436,-0.00196442729793489,-0.0027471506036818027
1768576242576552400,8.148552490234374,-0.003234955482184887,-0.006885539274662733,-0.0023625288158655167
1768576242586552300,8.15855224609375,-0.004416067153215408,-0.0062783388420939445,-0.0035175420343875885
1768576242596551400,8.168551513671876,-0.005890171509236097,-0.00569524010643363,-0.004620272200554609
1768576242606551300,8.17855126953125,-0.004360451828688383,-0.009455090388655663,-0.004727864172309637
1768576242616551400,8.188551513671875,-0.002596034435555339,-0.0087309330701828,-0.001480644103139639
1768576242626551300,8.19855126953125,-0.0002527188044041395,-0.009080606512725353,0.0018959781154990196
1768576242636550400,8.20855029296875,-0.00013808603398501873,-0.009029882028698921,0.0020232151728123426
1768576242646550500,8.218550537109374,-0.0011452934704720974,-0.008318284526467323,0.002840273082256317
1768576242656550400,8.22855029296875,0.0010797774884849787,-0.008707638829946518,-0.0030378559604287148
1768576242666550300,8.23855029296875,-0.0020266789942979813,-0.008179303258657455,-0.005500798113644123
1768576242676549400,8.24854931640625,-0.0022113421000540257,-0.0068022990599274635,-0.005228513851761818
1768576242686549500,8.258549560546875,-0.0036217523738741875,-0.006399629171937704,-0.005861813202500343
1768576242696549400,8.26854931640625,-0.0028354814276099205,-0.005258667748421431,-0.005301864352077246
1768576242706549500,8.278549560546875,-0.004071720875799656,-0.00657799793407321,-0.007486455608159304
1768576242716548400,8.28854833984375,-0.0051279012113809586,-0.008739988319575787,-0.005707612726837397
1768576242726548500,8.298548583984376,-0.004492470994591713,-0.007840905338525772,-0.0025930460542440414
1768576242736548400,8.30854833984375,-0.0032538105733692646,-0.006792773026973009,0.0020106045994907618
1768576242746548500,8.318548583984375,-0.0029928209260106087,-0.006470530293881893,0.0016995472833514214
1768576242756547300,8.32854736328125,-0.0025347520131617785,-0.004826508462429047,0.0032322038896381855
1768576242766547500,8.33854736328125,-0.004331853240728378,-0.004717585165053606,0.00014133891090750694
1768576242776547300,8.34854736328125,-0.0022528553381562233,-0.0032746577635407448,0.0005589257925748825
1768576242786547500,8.35854736328125,-0.0033460832200944424,-0.0011763530783355236,0.001114194979891181
1768576242796547300,8.36854736328125,-0.0028300383128225803,-0.003946937154978514,0.0019812858663499355
1768576242806546400,8.37854638671875,-0.003477719146758318,-0.00482844328507781,0.0030430881306529045
1768576242817171500,8.38917138671875,-0.0012875793036073446,-0.006568100303411484,0.0017139941919595003
1768576242827171300,8.39917138671875,-0.0023038415238261223,-0.005952110979706049,0.0030003010760992765
1768576242837170400,8.40917041015625,-0.002617886755615473,-0.006979487836360931,0.0021776813082396984
1768576242847170300,8.41917041015625,0.00022477144375443459,-0.007532093673944473,0.001884467201307416
1768576242857170400,8.42917041015625,-0.0021326919086277485,-0.008912160992622375,0.0027442784048616886
1768576242867170300,8.43917041015625,-0.0036469651386141777,-0.007321988232433796,0.004954968579113483
1768576242877170400,8.44917041015625,-0.004362140316516161,-0.00623820535838604,0.004887119401246309
1768576242887169300,8.459169189453124,-0.005961635150015354,-0.006695736199617386,0.0077857039868831635
1768576242897169400,8.46916943359375,-0.007404593750834465,-0.009884268045425415,0.006680257152765989
1768576242907169300,8.479169189453126,-0.004225312266498804,-0.008802492171525955,0.004322826862335205
1768576242917169400,8.48916943359375,-0.003738074330613017,-0.004489148035645485,0.0005419927183538675
1768576242927168300,8.499168212890625,-0.004433426074683666,-0.0002952020149677992,0.0015031273942440748
1768576242937168400,8.50916845703125,-0.002163497731089592,-0.0014982933644205332,0.004937211517244577
1768576242947168300,8.519168212890625,-0.00042392092291265726,-0.00394041184335947,0.00140958814881742
1768576242957168400,8.52916845703125,-0.00045996042899787426,-0.0044724056497216225,0.0006917801219969988
1768576242967167500,8.53916748046875,-0.0013148351572453976,-0.0015716904308646917,0.0018393362406641245
1768576242977167400,8.54916748046875,0.00041105784475803375,0.0017378111369907856,-0.001377641223371029
1768576242987167200,8.559167236328125,0.0027690206188708544,0.006245478056371212,0.001155823701992631
1768576242997167400,8.56916748046875,0.004240944050252438,0.008795135654509068,-0.0013145320117473602
1768576243007167200,8.579167236328125,0.0052681248635053635,0.00808886531740427,-0.003881287295371294
1768576243017166300,8.589166259765625,0.0036097026895731688,-0.00045273639261722565,0.00021116575226187706
1768576243027166500,8.59916650390625,0.001388360047712922,-0.00505228154361248,-0.0012642256915569305
1768576243037166300,8.609166259765624,-0.0000448812497779727,-0.006312444806098938,-0.002665020991116762
1768576243047166500,8.61916650390625,-0.0035219043493270874,-0.007638698909431696,-0.005074383225291967
1768576243057165000,8.6291650390625,-0.0042688921093940735,-0.00803368166089058,-0.002776490058749914
1768576243067165400,8.63916552734375,-0.0050515951588749886,-0.006098894402384758,-0.0027021877467632294
1768576243077165300,8.649165283203125,-0.002853004727512598,-0.002779122907668352,-0.0014901207759976387
1768576243087165400,8.65916552734375,-0.0020274247508496046,-0.003243312006816268,0.0024228617548942566
1768576243097165300,8.669165283203125,0.0016728721093386412,-0.005473699886351824,0.0035021195653826
1768576243107164400,8.679164306640626,0.0023786097299307585,-0.0074154105968773365,0.006796982139348984
1768576243117164300,8.689164306640626,0.0022738610859960318,-0.01019218284636736,0.006639770232141018
1768576243127164400,8.699164306640625,0.001884773257188499,-0.007066963240504265,0.0051081860437989235
1768576243137164300,8.709164306640625,-0.0009022969752550125,-0.010815407149493694,0.004203216638416052
1768576243147163100,8.7191630859375,-0.001700978958979249,-0.01253341231495142,-0.00011083809658885002
1768576243157163300,8.729163330078125,-0.0024996823631227016,-0.007816588506102562,0.0011301282793283463
1768576243167163400,8.739163330078124,-0.0018693123711273074,-0.009324204176664352,0.002401787554845214
1768576243177163300,8.749163330078124,-0.0001497953198850155,-0.011327061802148819,0.005553020164370537
1768576243187162000,8.759162109375,-0.0030371947214007378,-0.01262854877859354,0.006629203446209431
1768576243197162200,8.769162353515625,-0.0028248834423720837,-0.00978942308574915,0.0064289020374417305
1768576243207162400,8.779162353515625,-0.0032850774005055428,-0.010573990643024445,0.006647281348705292
1768576243217162500,8.78916259765625,-0.004938533995300531,-0.00980219617486,0.0041946545243263245
1768576243227162400,8.799162353515625,-0.0062698484398424625,-0.010000335983932018,0.004070551134645939
1768576243237161200,8.8091611328125,-0.0072690946981310844,-0.0091150663793087,0.0029364600777626038
1768576243247161000,8.8191611328125,-0.004901545122265816,-0.005977862048894167,0.002473070053383708
1768576243257161500,8.829161376953126,-0.004256879445165396,-0.00550637673586607,0.00044685089960694313
1768576243267161300,8.839161376953125,-0.003392950166016817,-0.003558274358510971,0.004533471539616585
1768576243277160200,8.84916015625,-0.002374096307903528,-0.005186841823160648,0.009091710671782494
1768576243287160000,8.85916015625,-0.0030087274499237537,-0.009092101827263832,0.008991044014692307
1768576243297160200,8.86916015625,-0.003751368261873722,-0.007857334800064564,0.00653794314712286
1768576243307160300,8.879160400390624,-0.004872825462371111,-0.010804655030369759,0.006000783294439316
1768576243317160400,8.889160400390624,-0.006112879607826471,-0.009494008496403694,0.00671575590968132
1768576243327159000,8.899158935546875,-0.006210617255419493,-0.007517675869166851,0.005416133441030979
1768576243337159200,8.9091591796875,-0.0065361568704247475,-0.006092627998441458,0.0077843377366662025
1768576243347159000,8.919158935546875,-0.0038157375529408455,-0.006483313627541065,0.012408916838467121
1768576243357159400,8.929159423828125,-0.0028410283848643303,-0.004826080519706011,0.009124431759119034
1768576243367158300,8.939158203125,-0.0005813362076878548,-0.0030356370843946934,0.0050010597333312035
1768576243377158100,8.949158203125,0.0012205953244119883,-0.002635880373418331,0.004336993675678968
1768576243387158300,8.959158203125,0.0015822526765987277,-0.001210290240123868,0.001890081213787198
1768576243397158100,8.969158203125,0.0018797996453940868,-0.0014723003841936588,0.0015452287625521421
1768576243407158300,8.979158203125,0.0006768498569726944,-0.0017245018389075994,-0.0013775904662907124
1768576243417157000,8.9891572265625,-0.00007760943844914436,0.0006021512672305107,-0.000881916843354702
1768576243427157200,8.9991572265625,0.0005524945445358753,-0.0009882885497063398,-0.001474736724048853
1768576243437157000,9.0091572265625,0.0028195283375680447,-0.0017010753508657217,-0.0032179797999560833
1768576243447157500,9.019157470703124,0.0033337846398353577,-0.003719485132023692,0.0010558613575994968
1768576243457156000,9.029156005859376,0.0028819614090025425,-0.00002741999924182892,0.00442416500300169
1768576243467156200,9.03915625,0.0036446908488869667,0.003667715936899185,0.00262839556671679
1768576243477156000,9.049156005859375,0.004278717562556267,0.005834419280290604,0.0008262069895863533
1768576243487156200,9.05915625,0.004678457975387573,0.011012669652700424,-0.00009285006672143936
1768576243497156400,9.06915625,0.00468846969306469,0.014694961719214916,0.0007448275573551655
1768576243507155200,9.0791552734375,0.006673323456197977,0.013155653141438961,0.0032609819900244474
1768576243517155000,9.089155029296874,0.007127651944756508,0.014162532053887844,0.005328343249857426
1768576243527155200,9.0991552734375,0.008841661736369133,0.012943069450557232,0.0059166355058550835
1768576243537155000,9.109155029296875,0.007616932038217783,0.011836987920105457,0.007899060845375061
1768576243547154200,9.119154296875,0.011732049286365509,0.012842332012951374,0.011320690624415874
1768576243557154300,9.129154296875,0.010889416560530663,0.01539918128401041,0.012307649478316307
1768576243567154200,9.139154296875,0.006864314898848534,0.011426543816924095,0.009462594985961914
1768576243577154000,9.149154052734374,0.007231384515762329,0.006897998042404652,0.012991368770599365
1768576243587154200,9.159154296875,-0.0004209427861496806,0.0005279835313558578,0.01235220953822136
1768576243597153300,9.1691533203125,-0.0009393584914505482,0.0016853907145559788,0.016675954684615135
1768576243607153200,9.179153076171875,-0.0020672071259468794,0.0035530654713511467,0.015578199177980423
1768576243617153300,9.1891533203125,-0.004002585541456938,0.0036871060729026794,0.012683950364589691
1768576243627153200,9.199153076171875,-0.005298479925841093,0.006779835559427738,0.010876195505261421
1768576243637152300,9.20915234375,-0.004140541888773441,0.008344111032783985,0.010004759766161442
1768576243647152000,9.219152099609374,-0.0036190953105688095,0.00819231104105711,0.008633231744170189
1768576243657152300,9.22915234375,0.00020828458946198225,0.00044664833694696426,0.004158651456236839
1768576243667152100,9.239152099609376,-0.005157186184078455,0.0095413438975811,0.006638587452471256
1768576243677152300,9.24915234375,-0.0017940741963684559,0.009185057133436203,0.006558187305927277
1768576243687151000,9.259151123046875,-0.002583967987447977,0.014628292061388493,0.005181333050131798
1768576243697151200,9.269151123046875,-0.001349530415609479,0.014780085533857346,0.0041259401477873325
1768576243707151000,9.279151123046875,-0.0022920232731848955,0.012550754472613335,0.0035927752032876015
1768576243717151200,9.289151123046874,-0.0025010141544044018,0.005904283374547958,0.0037908924277871847
1768576243727150000,9.299150146484376,-0.0038839937187731266,-0.0048002926632761955,0.0010795281268656254
1768576243737150200,9.309150146484376,-0.007959667593240738,-0.009254997596144676,0.0027712853625416756
1768576243747150000,9.319150146484375,-0.009132789447903633,-0.009251002222299576,0.00501020485535264
1768576243757150200,9.329150146484375,-0.01113676093518734,-0.017886638641357422,0.0057649132795631886
1768576243767150000,9.339150146484375,-0.012767148204147816,-0.02354372665286064,0.00526423892006278
1768576243777149200,9.349149169921875,-0.010565166361629963,-0.02678309753537178,0.003359315451234579
1768576243787149300,9.3591494140625,-0.008917202241718769,-0.03070034086704254,0.0009283819235861301
1768576243797149200,9.369149169921876,-0.00795064028352499,-0.028894178569316864,-0.000957257580012083
1768576243807149000,9.379149169921876,-0.007255555130541325,-0.02628481015563011,-0.001254466362297535
1768576243817148200,9.389148193359375,-0.00827019102871418,-0.025782842189073563,-0.0014540860429406166
1768576243827148300,9.399148193359375,-0.007040876429527998,-0.022682655602693558,-0.0017137443646788597
1768576243837148200,9.409148193359375,-0.009098800830543041,-0.0167589969933033,0.005711004603654146
1768576243847148300,9.419148193359375,-0.005517115816473961,-0.013972263783216476,0.0074415262788534164
1768576243857148200,9.429148193359374,-0.005946576129645109,-0.012935168109834194,0.008424651809036732
1768576243867147300,9.439147216796876,-0.004014452453702688,-0.009291697293519974,0.006293856538832188
1768576243877147100,9.449147216796876,-0.0025145024992525578,-0.00932612270116806,0.007713290397077799
1768576243887147300,9.459147216796875,-0.002744333352893591,-0.004870387725532055,0.005226164124906063
1768576243897147100,9.469147216796875,-0.001172801828943193,-0.004382230341434479,0.004709244705736637
1768576243907146200,9.479146240234375,-0.0002912956988438964,-0.006462159566581249,0.002980853198096156
1768576243917146000,9.48914599609375,0.001692527555860579,-0.007710887119174004,0.0032236340921372175
1768576243927146200,9.499146240234374,-0.0014654487604275346,-0.006588631309568882,-0.002147961873561144
1768576243937146000,9.50914599609375,-0.00011434662155807018,-0.0005386315751820803,-0.0033450163900852203
1768576243947146200,9.519146240234376,0.0004696846008300781,0.008525969460606575,0.0010689066257327795
1768576243957145000,9.52914501953125,-0.0011684830533340573,0.015408714301884174,-0.0028589582070708275
1768576243967145200,9.539145263671875,-0.002112307585775852,0.018397580832242966,-0.0011563990265130997
1768576243977145000,9.54914501953125,0.0008559004054404795,0.02329925075173378,0.0031895507127046585
1768576243987145200,9.559145263671875,0.006956936325877905,0.023089393973350525,0.006033273879438639
1768576243997144300,9.569144287109374,0.0021209956612437963,0.024475250393152237,0.004559575114399195
1768576244007144200,9.579144287109376,0.0053665898740291595,0.029501434415578842,0.0024311766028404236
1768576244017144000,9.58914404296875,0.005975950043648481,0.028476081788539886,0.002461387775838375
1768576244027144000,9.59914404296875,0.0015713481698185205,0.02831682562828064,0.00501615833491087
1768576244037144000,9.60914404296875,-0.002174101769924164,0.03148855268955231,0.008276732638478279
1768576244047143000,9.619142822265625,-0.0022398820146918297,0.02795160748064518,0.010753737762570381
1768576244057143000,9.62914306640625,-0.0022608255967497826,0.024571746587753296,0.01130008976906538
1768576244067143000,9.639142822265624,-0.0028730863705277443,0.019709613174200058,0.010631635785102844
1768576244077143000,9.64914306640625,-0.002022487111389637,0.018680185079574585,0.011594310402870178
1768576244087142000,9.659141845703125,-0.0011039628880098462,0.01966289058327675,0.01112399622797966
1768576244097142000,9.66914208984375,-0.001271029468625784,0.01795697584748268,0.013639532029628754
1768576244107142000,9.679141845703125,-0.003349892795085907,0.017213955521583557,0.012560952454805374
1768576244117142000,9.68914208984375,-0.0014074264327064157,0.011984226293861866,0.008427283726632595
1768576244127142000,9.699141845703124,-0.0033659152686595917,0.008315188810229301,0.005638421513140202
1768576244137141000,9.70914111328125,-0.004619997926056385,0.011066234670579433,0.008902391418814659
1768576244147140900,9.719140869140626,-0.0037195831537246704,0.01248410064727068,0.009800143539905548
1768576244157141000,9.72914111328125,-0.004687735345214605,0.010267340578138828,0.008226387202739716
1768576244167140900,9.739140869140625,-0.0018008690094575286,0.006843846291303635,0.00939285196363926
1768576244177140000,9.749139892578125,-0.003506119828671217,0.001546321902424097,0.00823026429861784
1768576244187140000,9.75914013671875,-0.0016251292545348406,0.00046587735414505005,0.006682168692350388
1768576244197140000,9.769139892578124,-0.0013906052336096764,-0.0020588086917996407,0.0034841003362089396
1768576244207140000,9.77914013671875,-0.004007960204035044,-0.0007730345241725445,0.0011306649539619684
1768576244217140000,9.789139892578126,-0.004758496768772602,-0.0014712444972246885,-0.0003963606432080269
1768576244227139000,9.79913916015625,-0.004524138290435076,-0.000675225630402565,0.0002925992012023926
1768576244237139000,9.809138916015625,-0.00627858517691493,-0.0004788707010447979,-0.004468423780053854
1768576244247139000,9.81913916015625,-0.005841560661792755,-0.0018341531977057457,-0.007906299084424973
1768576244257139000,9.829138916015625,-0.00563750509172678,-0.007632192224264145,-0.008818995207548141
1768576244267138000,9.839137939453124,-0.00443508755415678,-0.005237743724137545,-0.007980631664395332
1768576244277138000,9.849137939453126,-0.005364128388464451,-0.0029085171408951283,-0.003975499887019396
1768576244287138000,9.859137939453126,-0.006459220312535763,-0.0010813225526362658,0.0029026465490460396
1768576244297138000,9.869137939453125,-0.0075987656600773335,0.0009223530068993568,0.0031158081255853176
1768576244307138000,9.879137939453125,-0.007143364753574133,0.0009005148895084858,0.0008894053753465414
1768576244317137000,9.889136962890625,-0.005476779770106077,-0.0007542863022536039,-0.0018905107863247395
1768576244327137000,9.899136962890625,-0.0021696663461625576,-0.003404930466786027,-0.0024329964071512222
1768576244337137000,9.909136962890624,0.0021772223990410566,-0.00485652219504118,-0.004842590540647507
1768576244347137000,9.919136962890626,0.002074690768495202,-0.007935402914881706,-0.002435093279927969
1768576244357136100,9.92913623046875,0.004979904741048813,-0.008738299831748009,-0.005619509145617485
1768576244367136000,9.939135986328125,0.006044370587915182,-0.007850667461752892,-0.005393672734498978
1768576244377135900,9.949135986328125,0.00673669995740056,-0.007584042847156525,-0.006886777468025684
1768576244387136000,9.959135986328125,0.008799584582448006,-0.00668549258261919,-0.006065192632377148
1768576244397136000,9.969135986328125,0.009063885547220707,-0.004907174967229366,-0.005167503375560045
1768576244407135000,9.979135009765624,0.008509681560099125,-0.008084059692919254,-0.005628763232380152
1768576244417135000,9.989135009765626,0.006879071239382029,-0.012224129401147366,-0.008181760087609291
1768576244427135000,9.999135009765626,0.006200231611728668,-0.017011428251862526,-0.010839061811566353
1768576244437135000,10.009135009765625,0.004450879525393248,-0.014392911456525326,-0.00569353299215436
1768576244447134000,10.019134033203125,0.0017080898396670818,-0.015927691012620926,-0.009550055488944054
1768576244457134000,10.029134033203125,0.000813527381978929,-0.013124233111739159,-0.010185495018959045
1768576244467134000,10.039134033203124,0.002066811081022024,-0.009359322488307953,-0.004137455951422453
1768576244477134000,10.049134033203124,-0.00032524019479751587,-0.00861683301627636,-0.0012828134931623936
1768576244487134000,10.059134033203126,0.0007304367609322071,-0.0041917250491678715,-0.005993413273245096
1768576244497133000,10.069133056640625,0.00020388676784932613,-0.004780097398906946,-0.009938262403011322
1768576244507133000,10.0791328125,0.0012182847131043673,-0.005018716678023338,-0.008588306605815887
1768576244517133000,10.089133056640625,0.0018851403146982193,-0.00722621101886034,-0.012648295611143112
1768576244527133000,10.0991328125,-0.0003047769423574209,-0.010971413925290108,-0.01515938900411129
1768576244537132000,10.109132080078124,-0.0011255425633862615,-0.010360050946474075,-0.013729206286370754
1768576244547132000,10.1191318359375,-0.0019444645149633288,-0.009321418590843678,-0.01142104435712099
1768576244557132000,10.129132080078126,-0.0007654034998267889,-0.0077575016766786575,-0.009531453251838684
1768576244567132000,10.1391318359375,0.00317580858245492,-0.003979009110480547,-0.003744404762983322
1768576244577132000,10.149132080078125,0.00206525600515306,-0.0057192337699234486,-0.002375864889472723
1768576244587131100,10.159131103515625,0.005913257133215666,-0.009874563664197922,-0.004153258167207241
1768576244597131000,10.169131103515625,0.002661990700289607,-0.01176178827881813,-0.004933376796543598
1768576244607131000,10.179130859375,0.0005178796127438545,-0.010778814554214478,-0.004059060476720333
1768576244617131000,10.189131103515624,-0.001478683901950717,-0.008904952555894852,-0.0016682902351021767
1768576244627130000,10.199130126953126,-0.0019308887422084808,-0.009128924459218979,0.0011147130280733109
1768576244637130000,10.2091298828125,-0.0020951484329998493,-0.009354298003017902,-0.0005748276598751545
1768576244647130000,10.219130126953125,-0.0006762162083759904,-0.010525822639465332,0.0011658144649118185
1768576244657130000,10.2291298828125,0.001838715048506856,-0.009678343310952187,0.006074706092476845
1768576244667130000,10.239130126953125,0.0016983664827421308,-0.008592039346694946,0.01013655960559845
1768576244677129000,10.24912890625,0.0000014060642570257187,-0.006692609749734402,0.009981347247958183
1768576244687129000,10.259129150390624,-0.003865237347781658,-0.005641726311296225,0.010779762640595436
1768576244697129000,10.26912890625,-0.0064150188118219376,-0.0028963186778128147,0.011731816455721855
1768576244707129000,10.279129150390625,-0.006653372198343277,-0.00026005529798567295,0.008857998996973038
1768576244717128000,10.2891279296875,-0.006386486813426018,-0.00047602131962776184,0.007973155938088894
1768576244727128000,10.299128173828125,-0.004725473467260599,0.0026721013709902763,0.008920442312955856
1768576244737128000,10.3091279296875,-0.0042923567816615105,0.0017428183928132057,0.005974273197352886
1768576244747128000,10.319128173828124,-0.0031828838400542736,0.0013641170226037502,0.003620571456849575
1768576244757127200,10.329127197265626,-0.0007339997682720423,-0.0026247045025229454,0.002907529938966036
1768576244767127000,10.339126953125,-0.0008620978333055973,-0.004573605488985777,-0.0014035948552191257
1768576244777127000,10.349126953125,0.0015525545459240675,-0.002689701970666647,0.0017401406075805426
1768576244787127000,10.359126953125,0.001033770851790905,-0.0022872984409332275,0.0029822387732565403
1768576244797127000,10.369126953125,0.0015013788361102343,-0.0034916598815470934,0.001967931631952524
1768576244807126000,10.3791259765625,0.0001162687549367547,-0.0030924519523978233,0.0018502199091017246
1768576244817126100,10.389126220703124,0.00006464647594839334,0.0001995614729821682,-0.0009208898991346359
1768576244827126000,10.3991259765625,-0.0006775765214115381,0.00030289217829704285,-0.0005589663051068783
1768576244837126100,10.409126220703126,-0.002200753428041935,-0.0006783413700759411,0.002747411374002695
1768576244847126000,10.4191259765625,-0.001700345310382545,-0.0010714239906519651,0.0017753576394170523
1768576244857125000,10.429125,-0.0029190368950366974,0.0013763229362666607,0.0010929382406175137
1768576244867125000,10.439125,-0.0012007650220766664,-0.000742488307878375,-0.0010290686041116714
1768576244877125000,10.449125,-0.000010360963642597198,-0.0027819015085697174,-0.003942417912185192
1768576244887125000,10.459125,0.00263522332534194,-0.004883135668933392,-0.007883097976446152
1768576244897124000,10.4691240234375,0.0029657070990651846,-0.005916557740420103,-0.006610431242734194
1768576244907124000,10.4791240234375,0.006102644372731447,-0.008152015507221222,-0.00490307854488492
1768576244917124000,10.4891240234375,0.0051527381874620914,-0.008153000846505165,-0.005197980906814337
1768576244927124000,10.4991240234375,0.004441940691322088,-0.006733801681548357,-0.009880617260932922
1768576244937123000,10.509123046875,0.003848631400614977,-0.0047944076359272,-0.013212854042649269
1768576244947123000,10.519123046875,0.0031106695532798767,-0.005347546190023422,-0.015272010117769241
1768576244957123000,10.529123046875,0.0013649961911141872,-0.005484201945364475,-0.014287855476140976
1768576244967123000,10.539123046875,-0.0005237177247181535,-0.002462845528498292,-0.013094492256641388
1768576244977123000,10.549123046875,-0.0008880668319761753,0.003882969729602337,-0.011064482852816582
1768576244987122200,10.5591220703125,-0.0011021848767995834,0.004424124024808407,-0.012148654088377953
1768576244997122000,10.5691220703125,-0.0006266309646889567,0.0019815792329609394,-0.009751895442605019
1768576245007122000,10.579121826171875,0.0015374538488686085,-0.0006608092226088047,-0.007799799088388681
1768576245017122600,10.58912255859375,-0.0010679960250854492,-0.002652417868375778,-0.0031776526011526585
1768576245027121700,10.59912158203125,0.000055591692216694355,-0.0037088936660438776,-0.0031938981264829636
1768576245037121500,10.60912158203125,-0.0004760470474138856,-0.005307368002831936,-0.005438703577965498
1768576245047121400,10.619121337890626,-0.0015229355776682496,-0.00815508607774973,-0.007550323847681284
1768576245057121500,10.62912158203125,-0.0010286241304129362,-0.0027518337592482567,-0.011335622519254684
1768576245067121400,10.639121337890625,-0.0015998722519725561,-0.0028610234148800373,-0.009798713028430939
1768576245077120500,10.64912060546875,-0.0006315468344837427,-0.0022319848649203777,-0.006744067184627056
1768576245087120600,10.65912060546875,-0.0007439323235303164,0.0007401029579341412,-0.004908350296318531
1768576245097120500,10.66912060546875,0.0013761959271505475,0.005625822581350803,-0.00572626618668437
1768576245107120600,10.67912060546875,0.0030558514408767223,0.007881520316004753,-0.009624069556593895
1768576245117119500,10.689119384765625,0.0055336421355605125,0.007824946194887161,-0.008711196482181549
1768576245127119600,10.69911962890625,0.005388500168919563,0.00874773133546114,-0.008991627022624016
1768576245137119500,10.709119384765625,0.006999632343649864,0.006837615743279457,-0.010827645659446716
1768576245147119600,10.71911962890625,0.005718918517231941,-0.0004005902446806431,-0.008454768918454647
1768576245157119500,10.729119384765625,0.00421645725145936,-0.0035330543760210276,-0.008017649874091148
1768576245167118600,10.73911865234375,0.002338928636163473,-0.003042500000447035,-0.00790606439113617
1768576245177118500,10.749118408203126,0.0013510758290067315,-0.002039447659626603,-0.006913588847965002
1768576245187118600,10.75911865234375,-0.0007887739920988679,0.002852779347449541,-0.007759143132716417
1768576245197118500,10.769118408203125,-0.0019608023576438427,0.003995772451162338,-0.00800403580069542
1768576245207117600,10.77911767578125,0.0009372494532726705,0.006168645806610584,-0.008228540420532227
1768576245217117400,10.789117431640625,0.0006221686489880085,0.009019061923027039,-0.007844630628824234
1768576245227117600,10.79911767578125,0.0011947483289986849,0.010850251652300358,-0.003758541774004698
1768576245237117400,10.809117431640624,0.0007908904808573425,0.009567496366798878,0.0013643684796988964
1768576245247117600,10.81911767578125,0.000605001812800765,0.0074785128235816956,0.004706102889031172
1768576245257116700,10.82911669921875,-0.0003168986877426505,0.008122359402477741,0.0015977476723492146
1768576245267116500,10.839116455078125,-0.0016474140575155616,0.01006992906332016,-0.0004728599451482296
1768576245277116400,10.849116455078125,-0.0037798071280121803,0.009005996398627758,0.0006912075914442539
1768576245287116500,10.859116455078125,-0.002506283577531576,0.007085856981575489,0.0009966720826923847
1768576245297115600,10.86911572265625,-0.000046711997129023075,0.0037713777273893356,0.0009506531059741974
1768576245307115500,10.879115478515626,0.0016710268100723624,0.0029833479784429073,0.0011916691437363625
1768576245317115600,10.88911572265625,0.0033063176088035107,0.003554123919457197,-0.0014963713474571705
1768576245327115500,10.899115478515625,0.0067804111167788506,0.0004906896501779556,0.0008767712861299515
1768576245337115600,10.90911572265625,0.003864811034873128,-0.002139217220246792,0.0025544138625264168
1768576245347114500,10.919114501953125,0.0035004906821995974,-0.00018818536773324013,-0.0018318123184144497
1768576245357114600,10.929114501953125,0.00027682865038514137,0.0020546745508909225,-0.005233107600361109
1768576245367114500,10.939114501953124,-0.0007373030530288815,0.002705817576497793,-0.005799562204629183
1768576245377114600,10.949114501953124,0.0005549411289393902,0.007723575457930565,-0.0014391327276825905
1768576245387113500,10.959113525390626,0.0008484214777126908,0.00811506062746048,0.0001899227499961853
1768576245397113600,10.969113525390625,0.0017196573317050934,0.006227270700037479,0.0017390211578458548
1768576245407113500,10.979113525390625,0.0018240532372146845,0.0040983399376273155,0.004241327289491892
1768576245417113600,10.989113525390625,0.0008347895927727222,0.0036272360011935234,0.007293454837054014
1768576245427113500,10.999113525390625,-0.0002898634411394596,0.004763074219226837,0.003638266120105982
1768576245437112600,11.009112548828124,-0.003320678137242794,0.0016255779191851616,0.004464906640350819
1768576245447112400,11.019112548828126,-0.002291366457939148,-0.0006591477431356907,0.0011175796389579773
1768576245457112600,11.029112548828126,-0.003055318258702755,0.0018538720905780792,0.0012964308261871338
1768576245467112400,11.039112548828125,-0.0013666081940755248,0.004481347277760506,0.0032514575868844986
1768576245477111600,11.049111572265625,0.0010306108742952347,0.003978603519499302,0.001188992289826274
1768576245487111700,11.059111572265625,0.0038469035644084215,0.0043253470212221146,0.0029972787015140057
1768576245497111600,11.069111572265625,0.0020473268814384937,0.0049524251371622086,0.005550149828195572
1768576245507111400,11.079111328125,0.003912338521331549,0.006118623539805412,0.003764233784750104
1768576245517111600,11.089111572265624,0.0037728387396782637,0.006199448369443417,0.0015326885040849447
1768576245527110700,11.099110595703126,0.0018748037982732058,0.004763472825288773,-0.0022809579968452454
1768576245537110500,11.109110595703125,0.0018075270345434546,0.006698534823954105,-0.0007127439603209496
1768576245547110700,11.119110595703125,-0.00024577020667493343,0.0018547773361206055,0.0008497326634824276
1768576245557110500,11.129110595703125,-0.004797486588358879,0.001814235933125019,-0.00004550907760858536
1768576245567109600,11.139109619140624,-0.0007388291414827108,-0.0019711812492460012,0.0014336106833070517
1768576245577109500,11.149109619140624,-0.00008087698370218277,0.011780458502471447,0.00021048402413725853
1768576245587109600,11.159109619140626,0.0000730536412447691,0.002794687170535326,0.0014853393658995628
1768576245597109500,11.169109619140626,-0.0009084152989089489,0.005125007592141628,0.0006982807535678148
1768576245607109600,11.179109619140625,0.0007818930316716433,0.006257383152842522,-0.0018213358707726002
1768576245617108500,11.1891083984375,-0.0012918884167447686,0.007450913079082966,-0.003091596532613039
1768576245627108600,11.199108642578125,-0.0013430212857201695,0.006366473622620106,0.0001750369556248188
1768576245637108500,11.2091083984375,0.00006254471372812986,0.005251276306807995,0.0019016459118574858
1768576245647108600,11.219108642578124,0.0015184949152171612,0.0069035012274980545,-0.002346362452954054
1768576245657107700,11.229107666015626,0.0002773037413135171,0.007774949073791504,-0.003603754099458456
1768576245667107600,11.239107666015625,-0.0029152939096093178,0.010245829820632935,-0.004616554360836744
1768576245677107500,11.249107421875,-0.002601955085992813,0.013649490661919117,0.0012864049058407545
1768576245687107600,11.259107666015625,-0.002355879172682762,0.011965573765337467,-0.0010047126561403275
1768576245697107500,11.269107421875,0.001769221038557589,0.012963968329131603,-0.0029285838827490807
1768576245707106600,11.2791064453125,0.0037673907354474068,0.012083525769412518,0.0019990631844848394
1768576245717106700,11.289106689453124,0.0020761177875101566,0.011660891585052013,-0.0006868569180369377
1768576245727106600,11.2991064453125,0.003051899839192629,0.00974980741739273,-0.0012541101314127445
1768576245737106700,11.309106689453126,0.0024077892303466797,0.008668093010783195,0.0017532843630760908
1768576245747105500,11.31910546875,0.0004695405950769782,0.010106466710567474,0.003161031287163496
1768576245757105700,11.329105712890625,0.0016949763521552086,0.011065595783293247,-0.0006936904974281788
1768576245767105500,11.33910546875,0.0011194671969860792,0.008919088169932365,-0.001225790474563837
1768576245777105700,11.349105712890625,0.0012062430614605546,0.010690276511013508,0.0014790063723921776
1768576245787105500,11.35910546875,-0.00011654908303171396,0.010389072820544243,-0.001316780224442482
1768576245797104600,11.369104736328126,-0.0020374152809381485,0.01141549926251173,-0.0047160121612250805
1768576245807104500,11.3791044921875,0.00012187578249722719,0.010109751485288143,-0.0028057266026735306
1768576245817104600,11.389104736328125,0.0016969837015494704,0.01058072317391634,0.0004432674031704664
1768576245827104500,11.3991044921875,-0.0029909787699580193,0.009247278794646263,0.004105113912373781
1768576245837103600,11.409103515625,-0.0016272166976705194,0.011552697978913784,0.004816800821572542
1768576245847103500,11.419103515625,-0.0012612984282895923,0.012863504700362682,0.0008902361150830984
1768576245857103600,11.429103515625,-0.0007432772545143962,0.014689651317894459,0.0008999493438750505
1768576245867103500,11.439103515625,0.0007941655348986387,0.016618844121694565,0.004298941697925329
1768576245877102600,11.4491025390625,0.003746176138520241,0.01660526543855667,0.0021139804739505053
1768576245887102700,11.459102783203125,0.0054380823858082294,0.017113663256168365,-0.003458151128143072
1768576245897102600,11.4691025390625,0.005267987959086895,0.015102540142834187,-0.006017145700752735
1768576245907102500,11.4791025390625,0.003650117665529251,0.003841097466647625,-0.0032871398143470287
1768576245917102600,11.4891025390625,0.002645004540681839,-0.005222200881689787,-0.0023820996284484863
1768576245927101700,11.499101806640626,0.001067880541086197,-0.008888307958841324,-0.0004430520348250866
1768576245937101600,11.5091015625,-0.0015127008082345128,-0.00992383249104023,-0.0030579003505408764
1768576245947101700,11.519101806640625,-0.0024836896918714046,-0.006069972179830074,-0.0025154142640531063
1768576245957101600,11.5291015625,-0.0025870129466056824,-0.00017101876437664032,-0.0031471080146729946
1768576245967100700,11.5391005859375,0.0002537812106311321,-0.0005340075585991144,-0.0021028826013207436
1768576245977100500,11.5491005859375,-0.000006050802767276764,0.004830089397728443,-0.0024622734636068344
1768576245987100700,11.5591005859375,0.00047970982268452644,0.0034553655423223972,-0.0016092630103230476
1768576245997100500,11.5691005859375,-0.004713590256869793,0.008338766172528267,0.0002700840122997761
1768576246007100700,11.5791005859375,-0.0045479414984583855,0.006386669352650642,0.0012906072661280632
1768576246017099300,11.589099365234375,-0.0031501557677984238,0.005004161037504673,-0.0012632505968213081
1768576246027099400,11.599099365234375,-0.0029991543851792812,0.0011606868356466293,-0.0004563126713037491
1768576246037099300,11.609099365234375,-0.0024406895972788334,0.0013135522603988647,-0.0003953264094889164
1768576246047099400,11.619099365234375,-0.0017160435672849417,-0.0009764998685568571,-0.0006512561812996864
1768576246057098500,11.629098388671874,-0.00284384423866868,-0.0009382721036672592,0.0017567332834005356
1768576246067098400,11.639098388671876,-0.00006669980939477682,-0.0007854064460843801,0.0021370328031480312
1768576246077098500,11.649098388671876,-0.00111367367208004,-0.006096177268773317,0.005799592938274145
1768576246087098400,11.659098388671875,-0.002104369690641761,-0.007483151741325855,0.0074829766526818275
1768576246097098200,11.66909814453125,-0.0042402599938213825,-0.006076497957110405,0.008156855590641499
1768576246107097300,11.679097412109375,-0.005866652354598045,-0.003950496669858694,0.004847078584134579
1768576246117097500,11.689097412109374,-0.007617162540555,-0.0001505478285253048,0.003334344830363989
1768576246127097300,11.699097412109374,-0.005140156485140324,0.003092916216701269,0.0004991437308490276
1768576246137097500,11.709097412109376,-0.0028396458365023136,0.004693787544965744,0.002465116325765848
1768576246147096300,11.719096435546875,0.00041473726741969585,0.00563148595392704,0.0029921559616923332
1768576246157096400,11.729096435546875,0.0004891686839982867,0.0060879262164235115,0.002234748797491193
1768576246167096300,11.739096435546875,0.007148669566959143,0.0050530219450592995,0.0029972116462886333
1768576246177096400,11.749096435546875,0.002796545857563615,0.0056715235114097595,0.0002683294005692005
1768576246187096300,11.759096435546875,0.0007874571601860225,0.004127955064177513,-0.004304052330553532
1768576246197095400,11.769095458984374,-0.0038835471495985985,0.0015453272499144077,-0.0061867269687354565
