time,seconds_elapsed,z,y,x
1768216519485049900,0.0400498046875,0.09991455078125,-0.0391998291015625,0.9903411865234375
1768216519495051000,0.050051025390625,0.104278564453125,-0.04150390625,0.9910125732421875
1768216519505052000,0.060052001953125,0.1109161376953125,-0.0374298095703125,0.99542236328125
1768216519515051800,0.0700517578125,0.1175079345703125,-0.030731201171875,0.9994964599609375
1768216519525053000,0.080052978515625,0.1215667724609375,-0.0271759033203125,1.00103759765625
1768216519535054000,0.09005419921875,0.111297607421875,-0.0230712890625,1.001373291015625
1768216519545054000,0.100053955078125,0.104461669921875,-0.021728515625,0.996734619140625
1768216519555054800,0.110054931640625,0.1062164306640625,-0.023345947265625,0.993927001953125
1768216519565055000,0.120054931640625,0.1107330322265625,-0.0274810791015625,0.99298095703125
1768216519575056000,0.130055908203125,0.108551025390625,-0.0269927978515625,0.9887237548828125
1768216519585057000,0.14005712890625,0.10626220703125,-0.028533935546875,0.9858245849609375
1768216519595057000,0.150056884765625,0.1049346923828125,-0.0290679931640625,0.9893341064453125
1768216519605058000,0.16005810546875,0.107452392578125,-0.02630615234375,0.991607666015625
1768216519615059000,0.170058837890625,0.10906982421875,-0.026458740234375,0.9931488037109375
1768216519625058800,0.180058837890625,0.10479736328125,-0.0250244140625,0.99359130859375
1768216519635059700,0.190059814453125,0.1076202392578125,-0.025482177734375,0.9958038330078125
1768216519645061000,0.20006103515625,0.1090545654296875,-0.0275726318359375,0.9962310791015625
1768216519655061000,0.21006103515625,0.1070709228515625,-0.027435302734375,0.995819091796875
1768216519665062000,0.220061767578125,0.1090240478515625,-0.0290985107421875,0.9991302490234375
1768216519675062800,0.230062744140625,0.1074371337890625,-0.0310211181640625,0.99945068359375
1768216519685063000,0.24006298828125,0.10205078125,-0.028045654296875,0.9957275390625
1768216519695063800,0.250063720703125,0.101165771484375,-0.02398681640625,0.9962615966796875
1768216519705064000,0.26006396484375,0.1060791015625,-0.0208740234375,0.9966888427734375
1768216519715065000,0.270065185546875,0.1060028076171875,-0.01824951171875,1.0020904541015625
1768216519725066000,0.28006591796875,0.0990142822265625,-0.0186309814453125,1.0046539306640625
1768216519735065900,0.29006591796875,0.0950775146484375,-0.0217437744140625,1.0062408447265625
1768216519745067000,0.30006689453125,0.1001434326171875,-0.0260162353515625,1.0048065185546875
1768216519755068000,0.31006787109375,0.0987701416015625,-0.0265655517578125,1.00421142578125
1768216519765067800,0.32006787109375,0.0940704345703125,-0.025726318359375,1.00152587890625
1768216519775069000,0.33006884765625,0.0920867919921875,-0.0231475830078125,1.00164794921875
1768216519785069800,0.34006982421875,0.091064453125,-0.0187225341796875,1.0000152587890625
1768216519795070000,0.350070068359375,0.09539794921875,-0.01873779296875,0.998321533203125
1768216519805070800,0.36007080078125,0.094024658203125,-0.01898193359375,0.9958343505859375
1768216519815071000,0.370071044921875,0.09228515625,-0.0204925537109375,0.9916229248046875
1768216519825071900,0.38007177734375,0.0919952392578125,-0.0204315185546875,0.9925384521484375
1768216519835073000,0.390072998046875,0.0958709716796875,-0.0223846435546875,0.9944610595703125
1768216519845073000,0.400072998046875,0.0967864990234375,-0.0238494873046875,0.99432373046875
1768216519855074000,0.410073974609375,0.099151611328125,-0.0271148681640625,0.9978179931640625
1768216519865075000,0.420074951171875,0.096832275390625,-0.0259246826171875,0.999420166015625
1768216519875074800,0.43007470703125,0.1018829345703125,-0.025604248046875,0.99884033203125
1768216519885075700,0.44007568359375,0.0967864990234375,-0.0265350341796875,0.9969024658203125
1768216519895076900,0.450076904296875,0.094696044921875,-0.0239410400390625,0.994140625
1768216519905077000,0.460076904296875,0.0959625244140625,-0.02337646484375,0.9976806640625
1768216519915078000,0.470077880859375,0.096771240234375,-0.0255126953125,0.998382568359375
1768216519925078000,0.480078125,0.095703125,-0.0239715576171875,0.9968719482421875
1768216519935079000,0.490078857421875,0.0902252197265625,-0.0239105224609375,0.994964599609375
1768216519945079800,0.500079833984375,0.095001220703125,-0.020050048828125,0.998321533203125
1768216519955079700,0.51007958984375,0.0935821533203125,-0.019317626953125,0.9969635009765625
1768216519965081000,0.5200810546875,0.0920257568359375,-0.0225067138671875,0.9963531494140625
1768216519975082000,0.53008203125,0.1004486083984375,-0.0207977294921875,0.99969482421875
1768216519985081900,0.540081787109375,0.0958404541015625,-0.023040771484375,0.9982147216796875
1768216519995082800,0.550082763671875,0.091156005859375,-0.023590087890625,0.9959259033203125
1768216520005084000,0.560083984375,0.0926513671875,-0.0233612060546875,0.995086669921875
1768216520015084000,0.570083984375,0.0949859619140625,-0.02459716796875,0.99639892578125
1768216520025085000,0.5800849609375,0.09466552734375,-0.023284912109375,0.99200439453125
1768216520035085800,0.5900859375,0.0933074951171875,-0.0239410400390625,0.9935760498046875
1768216520045086000,0.6000859375,0.0964202880859375,-0.0236358642578125,0.9940185546875
1768216520055086800,0.6100869140625,0.0987548828125,-0.0231781005859375,0.9959716796875
1768216520065086700,0.620086669921875,0.096588134765625,-0.023101806640625,0.9969940185546875
1768216520075088100,0.630088134765625,0.0936737060546875,-0.0260162353515625,0.9963531494140625
1768216520085089000,0.640089111328125,0.0925445556640625,-0.0282440185546875,0.9946441650390625
1768216520095089000,0.6500888671875,0.0956878662109375,-0.0245513916015625,0.995849609375
1768216520105089800,0.66008984375,0.092987060546875,-0.02789306640625,0.992584228515625
1768216520115091000,0.670091064453125,0.0924530029296875,-0.0247039794921875,0.99395751953125
1768216520125090800,0.6800908203125,0.0928955078125,-0.022674560546875,0.997833251953125
1768216520135092000,0.690092041015625,0.095672607421875,-0.0239715576171875,1.0021514892578125
1768216520145092900,0.7000927734375,0.0937042236328125,-0.026702880859375,1.002593994140625
1768216520155093000,0.710093017578125,0.0879364013671875,-0.0243072509765625,0.9996337890625
1768216520165094000,0.720093994140625,0.0900115966796875,-0.02294921875,1.0000762939453125
1768216520175094800,0.7300947265625,0.0933990478515625,-0.0249481201171875,0.9987030029296875
1768216520185095000,0.740094970703125,0.093597412109375,-0.0249481201171875,0.9975738525390625
1768216520195096000,0.750095947265625,0.095458984375,-0.02105712890625,1.0011138916015625
1768216520205096000,0.760095947265625,0.096160888671875,-0.021240234375,0.9989013671875
1768216520215096800,0.770096923828125,0.091766357421875,-0.0211639404296875,0.99395751953125
1768216520225098000,0.780097900390625,0.0905609130859375,-0.021942138671875,0.9946136474609375
1768216520235097900,0.790097900390625,0.0937652587890625,-0.0197906494140625,1.0005035400390625
1768216520245098800,0.8000986328125,0.09619140625,-0.022491455078125,0.99774169921875
1768216520255100000,0.810099853515625,0.092864990234375,-0.0250244140625,0.9972686767578125
1768216520265100000,0.82010009765625,0.09619140625,-0.0246429443359375,1.0007171630859375
1768216520275101000,0.830100830078125,0.097747802734375,-0.0256500244140625,0.9970245361328125
1768216520285101800,0.840101806640625,0.093780517578125,-0.0256195068359375,0.9954833984375
1768216520295102000,0.85010205078125,0.0994415283203125,-0.0281982421875,0.9952850341796875
1768216520305102800,0.860102783203125,0.097808837890625,-0.0257568359375,0.99346923828125
1768216520315104000,0.87010400390625,0.0973358154296875,-0.0225067138671875,0.99468994140625
1768216520325103900,0.880103759765625,0.103424072265625,-0.02288818359375,0.9940643310546875
1768216520335105000,0.89010498046875,0.100830078125,-0.0244903564453125,0.9965972900390625
1768216520345105000,0.90010498046875,0.0999755859375,-0.02655029296875,0.9980621337890625
1768216520355105800,0.910105712890625,0.1023406982421875,-0.0269927978515625,0.99786376953125
1768216520365107000,0.92010693359375,0.10235595703125,-0.0249786376953125,0.997894287109375
1768216520375106800,0.93010693359375,0.103546142578125,-0.022613525390625,1.0006561279296875
1768216520385108200,0.940108154296875,0.1032257080078125,-0.0236663818359375,0.9989471435546875
1768216520395109000,0.950109130859375,0.105072021484375,-0.0218048095703125,1.0039215087890625
1768216520405109200,0.960109130859375,0.1042022705078125,-0.0261383056640625,1.00384521484375
1768216520415110100,0.970110107421875,0.0977935791015625,-0.0264739990234375,0.9996490478515625
1768216520425111000,0.980111083984375,0.101226806640625,-0.0260467529296875,1.0004119873046875
1768216520435111200,0.990111083984375,0.102081298828125,-0.02691650390625,0.998077392578125
1768216520445112300,1.0001123046875,0.1008148193359375,-0.026092529296875,0.99713134765625
1768216520455113200,1.01011328125,0.100250244140625,-0.0244293212890625,0.9966583251953125
1768216520465113000,1.020113037109375,0.0984039306640625,-0.0226593017578125,0.9968109130859375
1768216520475114000,1.030114013671875,0.0914764404296875,-0.02337646484375,0.9954071044921875
1768216520485114000,1.040114013671875,0.09259033203125,-0.0254364013671875,0.9955902099609375
1768216520495115000,1.050114990234375,0.08953857421875,-0.0264892578125,0.99285888671875
1768216520505116200,1.0601162109375,0.0897216796875,-0.026824951171875,0.99151611328125
1768216520515116300,1.0701162109375,0.0900726318359375,-0.0269927978515625,0.9895782470703125
1768216520525117200,1.0801171875,0.0932159423828125,-0.0225372314453125,0.9930877685546875
1768216520535118000,1.0901181640625,0.095306396484375,-0.0230255126953125,0.993438720703125
1768216520545118200,1.1001181640625,0.0974884033203125,-0.0230712890625,0.995330810546875
1768216520555119000,1.110119140625,0.0987701416015625,-0.0225067138671875,0.9991607666015625
1768216520565120300,1.120120361328125,0.0985107421875,-0.0250091552734375,0.995758056640625
1768216520575120100,1.1301201171875,0.10174560546875,-0.0269622802734375,0.998291015625
1768216520585121300,1.140121337890625,0.098114013671875,-0.0263671875,0.9977569580078125
1768216520595122200,1.1501220703125,0.0972137451171875,-0.0282135009765625,0.99688720703125
1768216520605122000,1.1601220703125,0.1056671142578125,-0.0294952392578125,0.9993133544921875
1768216520615123000,1.170123046875,0.100341796875,-0.028594970703125,0.9995269775390625
1768216520625123000,1.180123046875,0.0958709716796875,-0.028594970703125,0.9980926513671875
1768216520635124200,1.190124267578125,0.095245361328125,-0.0279998779296875,0.9983367919921875
1768216520645125000,1.200125,0.0936126708984375,-0.0249176025390625,0.9971160888671875
1768216520655125200,1.210125244140625,0.098663330078125,-0.0244903564453125,0.9961090087890625
1768216520665126100,1.220126220703125,0.097503662109375,-0.024627685546875,0.997467041015625
1768216520675127000,1.230126953125,0.0975799560546875,-0.023834228515625,0.9954986572265625
1768216520685127000,1.240126953125,0.102935791015625,-0.024505615234375,0.99713134765625
1768216520695128300,1.25012841796875,0.0983428955078125,-0.025848388671875,0.996337890625
1768216520705129200,1.260129150390625,0.097900390625,-0.0274200439453125,0.9936065673828125
1768216520715129000,1.270129150390625,0.0988616943359375,-0.027252197265625,0.9945220947265625
1768216520725130000,1.2801298828125,0.101287841796875,-0.02813720703125,0.9959869384765625
1768216520735131100,1.290131103515625,0.10504150390625,-0.0276641845703125,0.99652099609375
1768216520745131000,1.300131103515625,0.10382080078125,-0.024993896484375,0.9988555908203125
1768216520755132200,1.310132080078125,0.0984344482421875,-0.0272979736328125,0.9985198974609375
1768216520765132300,1.32013232421875,0.096405029296875,-0.02557373046875,1.0002593994140625
1768216520775133200,1.33013330078125,0.09552001953125,-0.02508544921875,0.999664306640625
1768216520785134000,1.340134033203125,0.0947265625,-0.02484130859375,0.9987030029296875
1768216520795134000,1.350134033203125,0.089080810546875,-0.0242919921875,0.9954376220703125
1768216520805135000,1.360135009765625,0.0970306396484375,-0.023406982421875,0.9989471435546875
1768216520815136300,1.37013623046875,0.097808837890625,-0.0242462158203125,0.999053955078125
1768216520825136000,1.38013623046875,0.09039306640625,-0.0250396728515625,0.996063232421875
1768216520835137000,1.390136962890625,0.09112548828125,-0.0251922607421875,0.995574951171875
1768216520845138200,1.40013818359375,0.0935211181640625,-0.0261993408203125,0.9947052001953125
1768216520855138000,1.410137939453125,0.0916290283203125,-0.025299072265625,0.99786376953125
1768216520865139000,1.420138916015625,0.0937347412109375,-0.02569580078125,0.998321533203125
1768216520875140000,1.43014013671875,0.0973663330078125,-0.0249481201171875,0.999359130859375
1768216520885140200,1.44014013671875,0.090057373046875,-0.0253448486328125,0.9967498779296875
1768216520895141000,1.45014111328125,0.090179443359375,-0.025146484375,0.997100830078125
1768216520905142000,1.46014208984375,0.095672607421875,-0.0251922607421875,1.0001373291015625
1768216520915142100,1.47014208984375,0.096160888671875,-0.0252227783203125,0.9988250732421875
1768216520925143000,1.48014306640625,0.0951080322265625,-0.026580810546875,0.996307373046875
1768216520935143200,1.49014306640625,0.0941009521484375,-0.02667236328125,0.99664306640625
1768216520945144000,1.50014404296875,0.0952911376953125,-0.0247650146484375,0.9980010986328125
1768216520955145200,1.510145263671875,0.0914154052734375,-0.026702880859375,0.9969024658203125
1768216520965145000,1.52014501953125,0.088775634765625,-0.0253143310546875,0.9959716796875
1768216520975146000,1.53014599609375,0.0948486328125,-0.024658203125,0.998504638671875
1768216520985147100,1.540147216796875,0.096343994140625,-0.0240020751953125,0.99725341796875
1768216520995147300,1.550147216796875,0.0941162109375,-0.0235443115234375,0.9945831298828125
1768216521005148200,1.560148193359375,0.0949859619140625,-0.0226287841796875,0.99456787109375
1768216521015149000,1.570149169921875,0.0924835205078125,-0.0244598388671875,0.9933013916015625
1768216521025149200,1.580149169921875,0.0936737060546875,-0.0262603759765625,0.9952392578125
1768216521035150000,1.590150146484375,0.0949859619140625,-0.0261077880859375,0.9936370849609375
1768216521045151200,1.600151123046875,0.096923828125,-0.02783203125,0.9951934814453125
1768216521055151000,1.610151123046875,0.0958099365234375,-0.027435302734375,0.9971160888671875
1768216521065152300,1.62015234375,0.093292236328125,-0.0256805419921875,0.9978485107421875
1768216521075152100,1.630152099609375,0.0964508056640625,-0.02655029296875,0.99676513671875
1768216521085153000,1.640153076171875,0.1000213623046875,-0.0269622802734375,1.0003662109375
1768216521095154000,1.65015380859375,0.0982666015625,-0.030487060546875,0.9968414306640625
1768216521105154000,1.660154052734375,0.0951080322265625,-0.028228759765625,0.99444580078125
1768216521115155200,1.6701552734375,0.0928497314453125,-0.023834228515625,1.001983642578125
1768216521125156000,1.680156005859375,0.0976715087890625,-0.024169921875,1.00701904296875
1768216521135156200,1.69015625,0.099029541015625,-0.023223876953125,1.0057373046875
1768216521145157000,1.7001572265625,0.0934295654296875,-0.0240936279296875,1.0031280517578125
1768216521155158000,1.710157958984375,0.0975189208984375,-0.02239990234375,1.0040435791015625
1768216521165158100,1.720158203125,0.1058349609375,-0.024505615234375,0.99957275390625
1768216521175159300,1.7301591796875,0.1049957275390625,-0.0305023193359375,0.996063232421875
1768216521185160200,1.74016015625,0.0964202880859375,-0.0330963134765625,1.001190185546875
1768216521195160000,1.75016015625,0.085174560546875,-0.031402587890625,0.9983978271484375
1768216521205161200,1.7601611328125,0.089508056640625,-0.029876708984375,0.9992828369140625
1768216521215161000,1.7701611328125,0.093841552734375,-0.028656005859375,0.9983978271484375
1768216521225162000,1.780161865234375,0.0875244140625,-0.0242462158203125,0.995574951171875
1768216521235163100,1.7901630859375,0.087127685546875,-0.0202178955078125,0.9938812255859375
1768216521245163300,1.800163330078125,0.088836669921875,-0.019134521484375,0.995574951171875
1768216521255164200,1.8101640625,0.0902099609375,-0.018951416015625,0.9985504150390625
1768216521265165000,1.8201650390625,0.0922088623046875,-0.020751953125,0.9994049072265625
1768216521275165200,1.830165283203125,0.09259033203125,-0.0231170654296875,0.9936065673828125
1768216521285166000,1.840166015625,0.089813232421875,-0.0226898193359375,0.995758056640625
1768216521295167200,1.850167236328125,0.0886077880859375,-0.023895263671875,1.001983642578125
1768216521305167000,1.8601669921875,0.0853271484375,-0.022613525390625,0.9995880126953125
1768216521315168300,1.870168212890625,0.086822509765625,-0.023193359375,0.9964599609375
1768216521325169200,1.880169189453125,0.088226318359375,-0.025665283203125,0.99737548828125
1768216521335169000,1.8901689453125,0.0792083740234375,-0.02587890625,0.9944305419921875
1768216521345170000,1.900169921875,0.0792388916015625,-0.0241546630859375,0.991180419921875
1768216521355171300,1.91017138671875,0.081512451171875,-0.023284912109375,0.989105224609375
1768216521365171200,1.920171142578125,0.0804443359375,-0.019561767578125,0.9927520751953125
1768216521375172000,1.930172119140625,0.085968017578125,-0.0202178955078125,0.9974212646484375
1768216521385172700,1.9401728515625,0.093170166015625,-0.0212554931640625,0.998565673828125
1768216521395174000,1.950173828125,0.0854034423828125,-0.0216217041015625,1.001220703125
1768216521405174800,1.9601748046875,0.0802459716796875,-0.023529052734375,1.001434326171875
1768216521415174700,1.970174560546875,0.0799713134765625,-0.0242919921875,0.997283935546875
1768216521425175600,1.980175537109375,0.0822906494140625,-0.0217437744140625,0.9996795654296875
1768216521435177000,1.990177001953125,0.0883941650390625,-0.0232391357421875,1.0005950927734375
1768216521445176800,2.0001767578125,0.08966064453125,-0.02374267578125,1.0024261474609375
1768216521455177700,2.010177734375,0.081695556640625,-0.0267486572265625,0.9986114501953125
1768216521465178600,2.0201787109375,0.07305908203125,-0.02294921875,0.99566650390625
1768216521475178800,2.0301787109375,0.0773468017578125,-0.020538330078125,0.9959259033203125
1768216521485179600,2.0401796875,0.0872802734375,-0.0189361572265625,1.0026397705078125
1768216521495180800,2.050180908203125,0.084930419921875,-0.023529052734375,1.0018463134765625
1768216521505181000,2.060180908203125,0.0723114013671875,-0.02520751953125,0.991668701171875
1768216521515181800,2.070181884765625,0.0708160400390625,-0.0237579345703125,0.9885406494140625
1768216521525181700,2.080181640625,0.0730133056640625,-0.0240325927734375,0.986846923828125
1768216521535182600,2.0901826171875,0.075103759765625,-0.0247039794921875,0.986114501953125
1768216521545183700,2.100183837890625,0.079559326171875,-0.0243682861328125,0.9929656982421875
1768216521555183600,2.11018359375,0.0821685791015625,-0.023773193359375,0.9952545166015625
1768216521565184800,2.120184814453125,0.086517333984375,-0.0229949951171875,1.00054931640625
1768216521575185700,2.130185546875,0.081573486328125,-0.0216064453125,1.0034332275390625
1768216521585185800,2.140185791015625,0.0837554931640625,-0.022674560546875,1.0052947998046875
1768216521595186700,2.150186767578125,0.0851287841796875,-0.025115966796875,1.0132904052734375
1768216521605187600,2.1601875,0.0800933837890625,-0.027923583984375,1.006988525390625
1768216521615187700,2.170187744140625,0.0781097412109375,-0.0252838134765625,1.0032501220703125
1768216521625188900,2.18018896484375,0.0780181884765625,-0.028411865234375,0.996124267578125
1768216521635189800,2.190189697265625,0.07977294921875,-0.02679443359375,1.0020599365234375
1768216521645190000,2.20018994140625,0.0623779296875,-0.018798828125,1.00927734375
1768216521655190800,2.210190673828125,0.08026123046875,-0.02130126953125,0.99212646484375
1768216521665190700,2.220190673828125,0.0785675048828125,-0.0220947265625,0.9973907470703125
1768216521675191600,2.230191650390625,0.0742645263671875,-0.01873779296875,1.0004425048828125
1768216521685192700,2.240192626953125,0.082855224609375,-0.020477294921875,0.9932861328125
1768216521695192800,2.25019287109375,0.084014892578125,-0.0173187255859375,0.99462890625
1768216521705193700,2.26019384765625,0.0865478515625,-0.0168914794921875,0.9954681396484375
1768216521715194600,2.270194580078125,0.083831787109375,-0.02178955078125,0.9903564453125
1768216521725194800,2.28019482421875,0.082763671875,-0.02252197265625,0.9914398193359375
1768216521735195600,2.290195556640625,0.0793914794921875,-0.026763916015625,0.9922332763671875
1768216521745196800,2.30019677734375,0.091949462890625,-0.0305328369140625,0.993438720703125
1768216521755197000,2.310197021484375,0.1016998291015625,-0.032806396484375,0.9965972900390625
1768216521765197800,2.32019775390625,0.0753936767578125,-0.028472900390625,0.9925689697265625
1768216521775198700,2.33019873046875,0.088897705078125,-0.03326416015625,0.9832916259765625
1768216521785198600,2.340198486328125,0.1064300537109375,-0.03204345703125,0.976470947265625
1768216521795199700,2.35019970703125,0.108001708984375,-0.018157958984375,0.991790771484375
1768216521805200000,2.360199951171875,0.142913818359375,-0.02423095703125,0.9966583251953125
1768216521815200800,2.37020068359375,0.1633758544921875,-0.0277862548828125,0.9767303466796875
1768216521825201700,2.38020166015625,0.161041259765625,-0.020477294921875,0.9692230224609375
1768216521835201800,2.390201904296875,0.166015625,-0.022552490234375,0.96295166015625
1768216521845202700,2.40020263671875,0.1853179931640625,-0.0207061767578125,0.9571075439453125
1768216521855203600,2.41020361328125,0.2131805419921875,-0.0167694091796875,0.9507293701171875
1768216521865204000,2.420203857421875,0.2623291015625,-0.0206146240234375,0.939300537109375
1768216521875204900,2.430204833984375,0.30694580078125,-0.026702880859375,0.9199676513671875
1768216521885205800,2.440205810546875,0.3159942626953125,-0.02703857421875,0.905242919921875
1768216521895205600,2.45020556640625,0.3003082275390625,-0.0257568359375,0.892120361328125
1768216521905206800,2.460206787109375,0.28619384765625,-0.02447509765625,0.8735809326171875
1768216521915208000,2.4702080078125,0.2783355712890625,-0.0267181396484375,0.8547515869140625
1768216521925207800,2.480207763671875,0.2717437744140625,-0.027099609375,0.831756591796875
1768216521935208700,2.490208740234375,0.257598876953125,-0.019561767578125,0.8104248046875
1768216521945208800,2.500208740234375,0.2371826171875,-0.0106048583984375,0.7939605712890625
1768216521955209700,2.510209716796875,0.2278594970703125,0.0031890869140625,0.7911529541015625
1768216521965210600,2.520210693359375,0.2328033447265625,0.0160369873046875,0.7934722900390625
1768216521975210800,2.530210693359375,0.24481201171875,0.029205322265625,0.798980712890625
1768216521985212000,2.5402119140625,0.269744873046875,0.0354461669921875,0.8133544921875
1768216521995212800,2.550212890625,0.2929229736328125,0.0405426025390625,0.82861328125
1768216522005212700,2.560212646484375,0.3108367919921875,0.0485382080078125,0.83477783203125
1768216522015213800,2.5702138671875,0.3344268798828125,0.048614501953125,0.8449249267578125
1768216522025214700,2.580214599609375,0.351165771484375,0.0507354736328125,0.8672027587890625
1768216522035214600,2.590214599609375,0.3194122314453125,0.050537109375,0.87664794921875
1768216522045215700,2.6002158203125,0.257965087890625,0.050506591796875,0.8813629150390625
1768216522055217000,2.610216796875,0.23529052734375,0.0467529296875,0.888031005859375
1768216522065216800,2.620216796875,0.2345428466796875,0.0390167236328125,0.88470458984375
1768216522075217700,2.6302177734375,0.2257232666015625,0.034454345703125,0.9010772705078125
1768216522085218600,2.640218505859375,0.2130889892578125,0.019744873046875,0.9007110595703125
1768216522095218700,2.65021875,0.1968994140625,0.0241546630859375,0.8763580322265625
1768216522105219800,2.6602197265625,0.1985931396484375,0.0314178466796875,0.8428497314453125
1768216522115219700,2.6702197265625,0.2081451416015625,0.0239105224609375,0.8061065673828125
1768216522125220900,2.680220947265625,0.2096099853515625,0.0188751220703125,0.7782745361328125
1768216522135221800,2.6902216796875,0.186126708984375,0.0174407958984375,0.7424468994140625
1768216522145221600,2.7002216796875,0.1668548583984375,0.014984130859375,0.751312255859375
1768216522155222500,2.710222412109375,0.187530517578125,0.0211944580078125,0.8196868896484375
1768216522165224000,2.720223876953125,0.2291717529296875,0.0255889892578125,0.87225341796875
1768216522175223800,2.730223876953125,0.2595977783203125,0.0159759521484375,0.8910064697265625
1768216522185224700,2.740224609375,0.2869110107421875,0.010040283203125,0.9027557373046875
1768216522195225600,2.7502255859375,0.325775146484375,-0.00103759765625,0.9090423583984375
1768216522205225700,2.760225830078125,0.3427734375,-0.0079803466796875,0.9144287109375
1768216522215226600,2.7702265625,0.320037841796875,-0.0032958984375,0.9339447021484375
1768216522225227800,2.780227783203125,0.266937255859375,-0.0077362060546875,0.936309814453125
1768216522235228000,2.790227783203125,0.237335205078125,-0.0133514404296875,0.9528656005859375
1768216522245228800,2.800228759765625,0.247344970703125,-0.0105133056640625,0.9785003662109375
1768216522255228700,2.810228759765625,0.2649688720703125,0.0118408203125,0.9835968017578125
1768216522265229800,2.820229736328125,0.3158721923828125,0.03009033203125,1.0081329345703125
1768216522275230700,2.830230712890625,0.39306640625,0.031158447265625,1.038970947265625
1768216522285230600,2.840230712890625,0.4737701416015625,0.0220489501953125,1.0550537109375
1768216522295231700,2.850231689453125,0.4763946533203125,0.0090484619140625,1.0751190185546875
1768216522305232600,2.860232666015625,0.42242431640625,0.0074005126953125,1.078399658203125
1768216522315232800,2.870232666015625,0.33203125,0.0058135986328125,1.0595550537109375
1768216522325233700,2.880233642578125,0.2596435546875,0.027557373046875,1.0528717041015625
1768216522335234600,2.890234619140625,0.2549285888671875,0.03662109375,1.0840911865234375
1768216522345234700,2.900234619140625,0.2762603759765625,0.01995849609375,1.0621490478515625
1768216522355235800,2.91023583984375,0.3093109130859375,0.0031585693359375,1.0120391845703125
1768216522365236700,2.92023681640625,0.3601226806640625,-0.0067291259765625,0.985076904296875
1768216522375236900,2.93023681640625,0.4222869873046875,-0.019989013671875,0.97882080078125
1768216522385237500,2.940237548828125,0.466064453125,-0.04827880859375,0.9653167724609375
1768216522395237400,2.9502373046875,0.47967529296875,-0.0604400634765625,0.983551025390625
1768216522405238300,2.96023828125,0.477996826171875,-0.05755615234375,0.996612548828125
1768216522415239700,2.97023974609375,0.4582061767578125,-0.0606536865234375,0.9630126953125
1768216522425239600,2.980239501953125,0.447998046875,-0.0672149658203125,0.937225341796875
1768216522435240400,2.990240478515625,0.4517364501953125,-0.0721435546875,0.9281463623046875
1768216522445241300,3.000241455078125,0.432220458984375,-0.085113525390625,0.9149017333984375
1768216522455241500,3.010241455078125,0.39556884765625,-0.090850830078125,0.915679931640625
1768216522465242400,3.020242431640625,0.4019927978515625,-0.0932159423828125,0.931549072265625
1768216522475243500,3.030243408203125,0.4275970458984375,-0.084381103515625,0.9521636962890625
1768216522485243600,3.04024365234375,0.461029052734375,-0.07794189453125,0.936798095703125
1768216522495244500,3.05024462890625,0.5047454833984375,-0.07037353515625,0.9353790283203125
1768216522505245400,3.060245361328125,0.5540924072265625,-0.0786590576171875,0.94744873046875
1768216522515245300,3.070245361328125,0.61590576171875,-0.09259033203125,0.9433746337890625
1768216522525246500,3.08024658203125,0.640350341796875,-0.1181793212890625,0.9464263916015625
1768216522535247600,3.09024755859375,0.645538330078125,-0.1570587158203125,0.943603515625
1768216522545247500,3.10024755859375,0.6326141357421875,-0.1737823486328125,0.9412689208984375
1768216522555248400,3.110248291015625,0.592132568359375,-0.176055908203125,0.9440460205078125
1768216522565248500,3.12024853515625,0.55181884765625,-0.1648406982421875,0.9444732666015625
1768216522575249400,3.13024951171875,0.518707275390625,-0.1429290771484375,0.9364013671875
1768216522585250300,3.140250244140625,0.4861297607421875,-0.1267547607421875,0.9151763916015625
1768216522595250700,3.150250732421875,0.4386138916015625,-0.1161956787109375,0.90679931640625
1768216522605251600,3.16025146484375,0.381744384765625,-0.1125640869140625,0.8998565673828125
1768216522615252500,3.17025244140625,0.3303985595703125,-0.1179656982421875,0.923736572265625
1768216522625252600,3.180252685546875,0.2823486328125,-0.115997314453125,0.96435546875
1768216522635253500,3.19025341796875,0.2493896484375,-0.1048126220703125,0.99365234375
1768216522645254700,3.200254638671875,0.2466583251953125,-0.0936431884765625,1.0197296142578125
1768216522655254500,3.210254638671875,0.2418060302734375,-0.0806427001953125,1.044586181640625
1768216522665255400,3.22025537109375,0.244171142578125,-0.0856781005859375,1.06201171875
1768216522675256600,3.230256591796875,0.2486114501953125,-0.10919189453125,1.0665740966796875
1768216522685256400,3.24025634765625,0.25360107421875,-0.1319122314453125,1.0770111083984375
1768216522695257300,3.25025732421875,0.2386322021484375,-0.1414794921875,1.079498291015625
1768216522705257500,3.260257568359375,0.2221221923828125,-0.14105224609375,1.073760986328125
1768216522715258600,3.270258544921875,0.20001220703125,-0.139129638671875,1.0506439208984375
1768216522725259500,3.280259521484375,0.2181396484375,-0.1143646240234375,1.02691650390625
1768216522735259600,3.290259765625,0.1936492919921875,-0.095306396484375,1.0204925537109375
1768216522745260500,3.300260498046875,0.1234283447265625,-0.0400390625,1.0446319580078125
1768216522755261400,3.310261474609375,0.06939697265625,0.0074462890625,1.057098388671875
1768216522765261300,3.32026123046875,0.048858642578125,0.021331787109375,1.0535888671875
1768216522775262700,3.3302626953125,0.0666351318359375,0.032501220703125,1.059722900390625
1768216522785263600,3.340263671875,0.0857391357421875,0.01123046875,1.067626953125
1768216522795263500,3.350263427734375,0.124114990234375,-0.024017333984375,1.073333740234375
1768216522805264400,3.360264404296875,0.144500732421875,-0.038787841796875,1.0591583251953125
1768216522815265500,3.370265625,0.0976409912109375,-0.030059814453125,1.032012939453125
1768216522825265400,3.380265380859375,0.02972412109375,-0.007537841796875,1.01641845703125
1768216522835266600,3.3902666015625,-0.030731201171875,0.0175018310546875,1.018341064453125
1768216522845266700,3.4002666015625,-0.085906982421875,0.0357513427734375,1.0103759765625
1768216522855267600,3.410267578125,-0.1241302490234375,0.0544586181640625,1.00213623046875
1768216522865268500,3.4202685546875,-0.1307830810546875,0.0576934814453125,1.0010833740234375
1768216522875268400,3.430268310546875,-0.1306304931640625,0.0536956787109375,1.0060272216796875
1768216522885269500,3.44026953125,-0.14190673828125,0.046051025390625,1.0185699462890625
1768216522895270700,3.450270751953125,-0.149871826171875,0.032318115234375,1.0288238525390625
1768216522905270500,3.4602705078125,-0.16888427734375,0.0227203369140625,1.050140380859375
1768216522915271400,3.470271484375,-0.1957550048828125,0.0299072265625,1.058258056640625
1768216522925272600,3.4802724609375,-0.245849609375,0.037353515625,1.0438690185546875
1768216522935272400,3.4902724609375,-0.282073974609375,0.049072265625,1.006866455078125
1768216522945273300,3.5002734375,-0.2784576416015625,0.062164306640625,0.9632415771484375
1768216522955274500,3.5102744140625,-0.2417755126953125,0.0767059326171875,0.93695068359375
1768216522965274600,3.520274658203125,-0.196075439453125,0.0974884033203125,0.92034912109375
1768216522975275500,3.530275634765625,-0.1624603271484375,0.123687744140625,0.9275665283203125
1768216522985275400,3.540275390625,-0.1215667724609375,0.144866943359375,0.9395751953125
1768216522995276500,3.550276611328125,-0.128662109375,0.1781768798828125,0.95172119140625
1768216523005277400,3.56027734375,-0.219146728515625,0.214019775390625,0.9583282470703125
1768216523015277300,3.57027734375,-0.3198394775390625,0.2164459228515625,0.952880859375
1768216523025278500,3.580278564453125,-0.3697357177734375,0.1946258544921875,0.9469451904296875
1768216523035279600,3.590279541015625,-0.3985595703125,0.159637451171875,0.9466552734375
1768216523045279500,3.600279541015625,-0.3966217041015625,0.123291015625,0.9571533203125
1768216523055280400,3.6102802734375,-0.3717498779296875,0.1000213623046875,0.9681396484375
1768216523065281300,3.62028125,-0.34320068359375,0.0692901611328125,0.9510650634765625
1768216523075281400,3.630281494140625,-0.3197784423828125,0.04095458984375,0.9295806884765625
1768216523085282600,3.640282470703125,-0.3100433349609375,0.0283660888671875,0.893707275390625
1768216523095283500,3.650283447265625,-0.3211517333984375,0.0370025634765625,0.8527069091796875
1768216523105283600,3.66028369140625,-0.37115478515625,0.069183349609375,0.821990966796875
1768216523115284500,3.670284423828125,-0.424468994140625,0.0662689208984375,0.8134918212890625
1768216523125285400,3.680285400390625,-0.4548187255859375,0.0587921142578125,0.8216094970703125
1768216523135285500,3.690285400390625,-0.44854736328125,0.066802978515625,0.82958984375
1768216523145286700,3.70028662109375,-0.414764404296875,0.05999755859375,0.8331146240234375
1768216523155286500,3.71028662109375,-0.40093994140625,0.0200042724609375,0.8394622802734375
1768216523165287400,3.720287353515625,-0.4288482666015625,-0.025482177734375,0.852813720703125
1768216523175288300,3.730288330078125,-0.48724365234375,-0.026092529296875,0.823944091796875
1768216523185288400,3.740288330078125,-0.53271484375,0.027099609375,0.801666259765625
1768216523195289600,3.75028955078125,-0.57379150390625,0.0870208740234375,0.805694580078125
1768216523205290500,3.76029052734375,-0.51556396484375,0.1431427001953125,0.7854461669921875
1768216523215290600,3.77029052734375,-0.5099029541015625,0.1539306640625,0.76025390625
1768216523225291500,3.78029150390625,-0.510955810546875,0.176239013671875,0.7494964599609375
1768216523235292400,3.79029248046875,-0.4792327880859375,0.212982177734375,0.7510986328125
1768216523245292500,3.80029248046875,-0.436309814453125,0.2283477783203125,0.7395172119140625
1768216523255293700,3.810293701171875,-0.3836212158203125,0.271209716796875,0.7697601318359375
1768216523265294600,3.820294677734375,-0.3289642333984375,0.3348846435546875,0.806488037109375
1768216523275294500,3.83029443359375,-0.3008575439453125,0.3825531005859375,0.8158721923828125
1768216523285295400,3.84029541015625,-0.39898681640625,0.3883056640625,0.78009033203125
1768216523295295500,3.85029541015625,-0.519073486328125,0.4116973876953125,0.751708984375
1768216523305296400,3.86029638671875,-0.61395263671875,0.42803955078125,0.7330780029296875
1768216523315297500,3.870297607421875,-0.694671630859375,0.4103546142578125,0.6801605224609375
1768216523325297700,3.880297607421875,-0.7309417724609375,0.3997955322265625,0.632904052734375
1768216523335298600,3.890298583984375,-0.7435302734375,0.376739501953125,0.5792236328125
1768216523345299500,3.900299560546875,-0.73974609375,0.345367431640625,0.5775146484375
1768216523355299600,3.910299560546875,-0.7603759765625,0.3162841796875,0.6052703857421875
1768216523365300500,3.920300537109375,-0.7877197265625,0.279205322265625,0.6425323486328125
1768216523375301600,3.930301513671875,-0.8332672119140625,0.27569580078125,0.6701507568359375
1768216523385301500,3.940301513671875,-0.89447021484375,0.28155517578125,0.6621551513671875
1768216523395302700,3.950302734375,-0.9111785888671875,0.328369140625,0.61688232421875
1768216523405303600,3.960303466796875,-0.8550872802734375,0.402130126953125,0.569610595703125
1768216523415303400,3.970303466796875,-0.859344482421875,0.4293975830078125,0.5288238525390625
1768216523425304600,3.9803046875,-0.848419189453125,0.4320526123046875,0.5279083251953125
1768216523435305500,3.990305419921875,-0.874481201171875,0.414093017578125,0.53948974609375
1768216523445305600,4.0003056640625,-0.90838623046875,0.392730712890625,0.5407562255859375
1768216523455306500,4.010306396484375,-0.917999267578125,0.381927490234375,0.5403594970703125
1768216523465306600,4.020306640625,-0.908111572265625,0.3594207763671875,0.526947021484375
1768216523475307500,4.0303076171875,-0.9144439697265625,0.323760986328125,0.476837158203125
1768216523485308700,4.04030859375,-0.924713134765625,0.3386077880859375,0.4416961669921875
1768216523495308500,4.05030859375,-0.9584808349609375,0.3585968017578125,0.4136199951171875
1768216523505309700,4.060309814453125,-1.0106964111328125,0.36346435546875,0.3519744873046875
1768216523515310600,4.070310546875,-1.0045166015625,0.413177490234375,0.3074188232421875
1768216523525310500,4.080310546875,-0.9770355224609375,0.454986572265625,0.2924957275390625
1768216523535311400,4.090311279296875,-0.9905242919921875,0.4868927001953125,0.2819671630859375
1768216523545312800,4.100312744140625,-1.0367889404296875,0.526214599609375,0.251678466796875
1768216523555312600,4.110312744140625,-1.100189208984375,0.571136474609375,0.249908447265625
1768216523565313500,4.1203134765625,-1.113861083984375,0.621917724609375,0.2725372314453125
1768216523575314400,4.130314453125,-1.0941162109375,0.63372802734375,0.2512359619140625
1768216523585314600,4.140314453125,-1.05523681640625,0.63714599609375,0.2402496337890625
1768216523595315500,4.1503154296875,-0.9704132080078125,0.608367919921875,0.2160186767578125
1768216523605315300,4.1603154296875,-0.9349365234375,0.5680999755859375,0.1690673828125
1768216523615316700,4.170316650390625,-0.937469482421875,0.536773681640625,0.109466552734375
1768216523625317600,4.180317626953125,-0.9402008056640625,0.5212249755859375,0.0902252197265625
1768216523635317500,4.1903173828125,-0.9820556640625,0.534423828125,0.110595703125
1768216523645318400,4.200318359375,-1.024261474609375,0.5524749755859375,0.204986572265625
1768216523655319600,4.210319580078125,-1.006744384765625,0.5416412353515625,0.3064422607421875
1768216523665319400,4.2203193359375,-0.92529296875,0.5142822265625,0.3113861083984375
1768216523675320600,4.230320556640625,-0.8375396728515625,0.505889892578125,0.206756591796875
1768216523685321500,4.240321533203125,-0.8243408203125,0.467437744140625,0.05035400390625
1768216523695321600,4.250321533203125,-0.8375244140625,0.4426422119140625,-0.0547027587890625
1768216523705322500,4.260322509765625,-0.8437652587890625,0.429656982421875,-0.1373443603515625
1768216523715323400,4.270323486328125,-0.889495849609375,0.41729736328125,-0.162811279296875
1768216523725323500,4.280323486328125,-0.97100830078125,0.4197235107421875,-0.040771484375
1768216523735324700,4.29032470703125,-0.978851318359375,0.4002685546875,0.1285247802734375
1768216523745324500,4.300324462890625,-0.867279052734375,0.3431854248046875,0.243560791015625
1768216523755325400,4.310325439453125,-0.7082977294921875,0.2655487060546875,0.273651123046875
1768216523765326600,4.32032666015625,-0.6438751220703125,0.2059478759765625,0.2029266357421875
1768216523775326500,4.330326416015625,-0.66094970703125,0.1768951416015625,0.08612060546875
1768216523785327400,4.340327392578125,-0.731109619140625,0.1785888671875,-0.028900146484375
1768216523795328500,4.35032861328125,-0.817169189453125,0.1996307373046875,-0.12457275390625
1768216523805328600,4.36032861328125,-0.87994384765625,0.19390869140625,-0.182220458984375
1768216523815329500,4.37032958984375,-0.9422607421875,0.1954345703125,-0.19696044921875
1768216523825330400,4.380330322265625,-0.973968505859375,0.2080535888671875,-0.1903076171875
1768216523835330600,4.39033056640625,-0.999420166015625,0.2058563232421875,-0.17425537109375
1768216523845331500,4.40033154296875,-1.0188140869140625,0.1593017578125,-0.1455230712890625
1768216523855332600,4.41033251953125,-1.00567626953125,0.123870849609375,-0.1358642578125
1768216523865332500,4.42033251953125,-1.0025787353515625,0.09857177734375,-0.1174468994140625
1768216523875333600,4.430333740234375,-0.970947265625,0.0976104736328125,-0.04156494140625
1768216523885333500,4.44033349609375,-0.9705047607421875,0.0883331298828125,-0.0121002197265625
1768216523895334400,4.45033447265625,-0.999176025390625,0.0938568115234375,-0.0037689208984375
1768216523905335600,4.46033544921875,-1.0295562744140625,0.1036376953125,0.010162353515625
1768216523915335700,4.470335693359375,-1.0551300048828125,0.102203369140625,0.0247802734375
1768216523925336600,4.480336669921875,-1.048370361328125,0.0919189453125,0.041290283203125
1768216523935337500,4.49033740234375,-1.01776123046875,0.0796661376953125,0.04742431640625
1768216523945337600,4.500337646484375,-0.9791107177734375,0.073699951171875,0.058807373046875
1768216523955338500,4.51033837890625,-0.970001220703125,0.080963134765625,0.07745361328125
1768216523965339400,4.52033935546875,-0.9839935302734375,0.0984344482421875,0.0915069580078125
1768216523975339800,4.53033984375,-1.0207977294921875,0.0841827392578125,0.088287353515625
1768216523985340700,4.540340576171875,-1.0478973388671875,0.078338623046875,0.109130859375
1768216523995340500,4.550340576171875,-1.015869140625,0.0719451904296875,0.126800537109375
1768216524005341400,4.560341552734375,-0.9595184326171875,0.058013916015625,0.1268463134765625
1768216524015342600,4.570342529296875,-0.9104156494140625,0.0561065673828125,0.1416015625
1768216524025342500,4.580342529296875,-0.8709564208984375,0.079193115234375,0.128082275390625
1768216524035343600,4.590343505859375,-0.8579254150390625,0.0846710205078125,0.1013946533203125
1768216524045344500,4.600344482421875,-0.8361968994140625,0.0821685791015625,0.1507720947265625
1768216524055344600,4.6103447265625,-0.8889617919921875,0.082000732421875,0.1043701171875
1768216524065345500,4.620345458984375,-0.9947662353515625,0.109375,0.0856170654296875
1768216524075346400,4.630346435546875,-1.0489349365234375,0.1306304931640625,0.124603271484375
1768216524085346600,4.6403466796875,-1.0986175537109375,0.1576995849609375,0.0704498291015625
1768216524095347700,4.65034765625,-1.0883026123046875,0.1677398681640625,0.0521240234375
1768216524105348600,4.6603486328125,-1.0390472412109375,0.10205078125,0.016510009765625
1768216524115348500,4.670348388671875,-1.03875732421875,0.0784454345703125,-0.0177001953125
1768216524125349600,4.680349609375,-1.01318359375,0.108489990234375,0.0321502685546875
1768216524135350500,4.6903505859375,-0.9937744140625,0.0790252685546875,-0.0117645263671875
1768216524145350400,4.700350341796875,-0.969696044921875,0.0750732421875,-0.0192413330078125
1768216524155351600,4.7103515625,-0.9386749267578125,0.0576019287109375,0.0203704833984375
1768216524165351700,4.7203515625,-0.9594879150390625,0.03009033203125,0.042572021484375
1768216524175352600,4.7303525390625,-0.9884185791015625,0.0263824462890625,0.0916900634765625
1768216524185353500,4.740353515625,-1.053192138671875,0.04583740234375,0.1493682861328125
1768216524195353600,4.750353515625,-1.1067657470703125,0.0870361328125,0.1784210205078125
1768216524205354500,4.7603544921875,-1.084197998046875,0.102569580078125,0.1819000244140625
1768216524215355600,4.770355712890625,-1.0446929931640625,0.094146728515625,0.150177001953125
1768216524225355500,4.78035546875,-1.01470947265625,0.1009979248046875,0.118499755859375
1768216524235356700,4.790356689453125,-0.9796142578125,0.1090850830078125,0.1128387451171875
1768216524245357600,4.800357666015625,-0.9439849853515625,0.1087188720703125,0.1121673583984375
1768216524255357400,4.810357421875,-0.930572509765625,0.11029052734375,0.1148834228515625
1768216524265358300,4.8203583984375,-0.934417724609375,0.1165313720703125,0.118408203125
1768216524275359700,4.83035986328125,-0.9610595703125,0.130859375,0.1269989013671875
1768216524285359600,4.840359619140625,-0.990692138671875,0.1561279296875,0.173370361328125
1768216524295360500,4.850360595703125,-1.033233642578125,0.1694793701171875,0.200439453125
1768216524305360600,4.860360595703125,-1.040252685546875,0.1851654052734375,0.21112060546875
1768216524315361500,4.870361572265625,-1.00604248046875,0.18695068359375,0.222076416015625
1768216524325362400,4.880362548828125,-0.9781951904296875,0.1887664794921875,0.2035064697265625
1768216524335362600,4.890362548828125,-0.9650115966796875,0.191162109375,0.177581787109375
1768216524345363700,4.90036376953125,-0.9286041259765625,0.2088470458984375,0.174468994140625
1768216524355364600,4.910364501953125,-0.8885040283203125,0.2285003662109375,0.15179443359375
1768216524365364500,4.920364501953125,-0.88238525390625,0.2537689208984375,0.148895263671875
1768216524375365400,4.930365478515625,-0.897186279296875,0.2655029296875,0.14422607421875
1768216524385366300,4.9403662109375,-0.8829345703125,0.2750091552734375,0.1482696533203125
1768216524395366100,4.9503662109375,-0.886566162109375,0.2824554443359375,0.1418914794921875
1768216524405367000,4.960366943359375,-0.9061431884765625,0.286895751953125,0.1398162841796875
1768216524415368200,4.9703681640625,-0.9459991455078125,0.3007965087890625,0.1291046142578125
1768216524425368000,4.9803681640625,-0.9886932373046875,0.2999420166015625,0.121826171875
1768216524435369000,4.990368896484375,-1.0178680419921875,0.3004302978515625,0.1297760009765625
1768216524445369000,5.000369140625,-1.0055694580078125,0.2795562744140625,0.1474761962890625
1768216524455370200,5.010370361328125,-0.9922637939453125,0.2577362060546875,0.137786865234375
1768216524465371100,5.02037109375,-0.9819793701171875,0.23602294921875,0.1320037841796875
1768216524475371000,5.03037109375,-0.988372802734375,0.2361297607421875,0.136566162109375
1768216524485372200,5.0403720703125,-1.0030059814453125,0.219818115234375,0.125091552734375
1768216524495373000,5.050373046875,-1.014923095703125,0.202728271484375,0.1162567138671875
1768216524505373200,5.060373291015625,-1.00946044921875,0.1918487548828125,0.1236114501953125
1768216524515374000,5.0703740234375,-1.014068603515625,0.1777496337890625,0.1454925537109375
1768216524525375200,5.080375244140625,-1.0348663330078125,0.1698455810546875,0.157012939453125
1768216524535375000,5.090375,-1.055999755859375,0.1683807373046875,0.1622314453125
1768216524545376000,5.1003759765625,-1.0586395263671875,0.1368408203125,0.1599578857421875
1768216524555377000,5.110376953125,-1.03863525390625,0.1194305419921875,0.1631317138671875
1768216524565377300,5.120377197265625,-1.0181121826171875,0.1148681640625,0.1480712890625
1768216524575378200,5.130378173828125,-0.999908447265625,0.1038665771484375,0.12945556640625
1768216524585378000,5.1403779296875,-0.9823150634765625,0.10498046875,0.110626220703125
1768216524595379200,5.150379150390625,-0.962982177734375,0.1041412353515625,0.1063690185546875
1768216524605380000,5.160380126953125,-0.9664459228515625,0.1044158935546875,0.0930633544921875
1768216524615380000,5.1703798828125,-0.97509765625,0.0991058349609375,0.088104248046875
1768216524625381000,5.180381103515625,-0.9969635009765625,0.103546142578125,0.090087890625
1768216524635382300,5.19038232421875,-1.001007080078125,0.105621337890625,0.10565185546875
1768216524645382100,5.200382080078125,-0.9977874755859375,0.1049957275390625,0.1187896728515625
1768216524655383000,5.210383056640625,-0.99151611328125,0.1066741943359375,0.1349639892578125
1768216524665384000,5.220384033203125,-0.9786376953125,0.1141357421875,0.1247406005859375
1768216524675384000,5.230384033203125,-0.95355224609375,0.1178741455078125,0.0985565185546875
1768216524685385200,5.24038525390625,-0.9282379150390625,0.1207275390625,0.080718994140625
1768216524695386000,5.25038623046875,-0.909027099609375,0.1240081787109375,0.0786285400390625
1768216524705386200,5.26038623046875,-0.89654541015625,0.126617431640625,0.08099365234375
1768216524715387100,5.27038720703125,-0.8990936279296875,0.1249237060546875,0.0800628662109375
1768216524725387000,5.280386962890625,-0.9032135009765625,0.113800048828125,0.0740814208984375
1768216524735388200,5.29038818359375,-0.90875244140625,0.1056060791015625,0.0714263916015625
1768216524745389300,5.300389404296875,-0.9317474365234375,0.1019134521484375,0.07110595703125
1768216524755389200,5.31038916015625,-0.9608001708984375,0.0992431640625,0.07598876953125
1768216524765390000,5.32039013671875,-0.9925537109375,0.1026611328125,0.0805206298828125
1768216524775391000,5.330390869140625,-1.01171875,0.1054840087890625,0.083099365234375
1768216524785391000,5.34039111328125,-1.019256591796875,0.105682373046875,0.082855224609375
1768216524795392000,5.35039208984375,-1.0221405029296875,0.11370849609375,0.099517822265625
1768216524805393200,5.36039306640625,-1.037628173828125,0.1190948486328125,0.115814208984375
1768216524815393300,5.370393310546875,-1.0390472412109375,0.1257171630859375,0.137451171875
1768216524825394200,5.380394287109375,-1.03143310546875,0.1293182373046875,0.1548004150390625
1768216524835395000,5.39039501953125,-1.0325927734375,0.1319122314453125,0.1594696044921875
1768216524845395200,5.400395263671875,-1.018035888671875,0.1333160400390625,0.157867431640625
1768216524855396000,5.41039599609375,-0.9889068603515625,0.141876220703125,0.1727294921875
1768216524865396000,5.42039599609375,-0.9875640869140625,0.146820068359375,0.1871337890625
1768216524875397000,5.430397216796875,-0.9829864501953125,0.1514892578125,0.1867828369140625
1768216524885398300,5.440398193359375,-0.9835357666015625,0.1551666259765625,0.1906280517578125
1768216524895398100,5.450398193359375,-0.96844482421875,0.1587371826171875,0.2036590576171875
1768216524905399000,5.46039892578125,-0.94097900390625,0.15582275390625,0.2091522216796875
1768216524915400000,5.47039990234375,-0.9304046630859375,0.154205322265625,0.199249267578125
1768216524925400000,5.480400146484375,-0.9403228759765625,0.1598052978515625,0.1900634765625
1768216524935401200,5.490401123046875,-0.951202392578125,0.1607208251953125,0.179534912109375
1768216524945402000,5.500402099609375,-0.96533203125,0.1656036376953125,0.16864013671875
1768216524955402200,5.51040234375,-0.96954345703125,0.16802978515625,0.1577911376953125
1768216524965403100,5.520403076171875,-0.9653167724609375,0.1596221923828125,0.14727783203125
1768216524975404000,5.530404052734375,-0.9650115966796875,0.1552581787109375,0.1416778564453125
1768216524985404000,5.54040380859375,-0.9690399169921875,0.1534271240234375,0.13958740234375
1768216524995405300,5.5504052734375,-0.9748992919921875,0.1495361328125,0.1380615234375
1768216525005406200,5.56040625,-0.9824066162109375,0.142822265625,0.14141845703125
1768216525015406000,5.570406005859375,-0.9869537353515625,0.1324462890625,0.1402740478515625
1768216525025407000,5.580406982421875,-0.9939422607421875,0.12774658203125,0.139434814453125
1768216525035407000,5.590406982421875,-0.9997100830078125,0.120086669921875,0.1419219970703125
1768216525045408000,5.600407958984375,-1.0081787109375,0.1143951416015625,0.1434783935546875
1768216525055409200,5.6104091796875,-1.0144195556640625,0.1128997802734375,0.153533935546875
1768216525065409300,5.6204091796875,-1.0183563232421875,0.10845947265625,0.162628173828125
1768216525075410200,5.63041015625,-1.0160369873046875,0.1027374267578125,0.1644439697265625
1768216525085411000,5.6404111328125,-1.0029754638671875,0.1026611328125,0.1695556640625
1768216525095411000,5.650410888671875,-0.9932861328125,0.099029541015625,0.1729736328125
1768216525105412000,5.660412109375,-0.9868011474609375,0.0946807861328125,0.1666717529296875
1768216525115413200,5.670413330078125,-0.9813079833984375,0.0929107666015625,0.1652679443359375
1768216525125413000,5.6804130859375,-0.98052978515625,0.0888671875,0.157623291015625
1768216525135414000,5.6904140625,-0.978759765625,0.0783843994140625,0.15203857421875
1768216525145414100,5.7004140625,-0.9724884033203125,0.0701904296875,0.15203857421875
1768216525155415000,5.7104150390625,-0.953399658203125,0.0640411376953125,0.1472625732421875
1768216525165416000,5.720416015625,-0.9570159912109375,0.0500030517578125,0.1346282958984375
1768216525175416300,5.730416259765625,-0.9554595947265625,0.0477752685546875,0.1373748779296875
1768216525185417200,5.740417236328125,-0.9364471435546875,0.0499114990234375,0.1448516845703125
1768216525195418000,5.750418212890625,-0.92279052734375,0.0396575927734375,0.1439208984375
1768216525205418000,5.76041796875,-0.9259796142578125,0.041015625,0.140411376953125
1768216525215419100,5.770419189453125,-0.9429473876953125,0.046661376953125,0.13330078125
1768216525225420300,5.780420166015625,-0.9498138427734375,0.0477294921875,0.1318206787109375
1768216525235420200,5.790420166015625,-0.9549407958984375,0.049072265625,0.1298065185546875
1768216525245421000,5.800421142578125,-0.962799072265625,0.0561065673828125,0.1304473876953125
1768216525255422200,5.810422119140625,-0.97271728515625,0.0595855712890625,0.1332550048828125
1768216525265422000,5.820422119140625,-0.986358642578125,0.067657470703125,0.135467529296875
1768216525275423000,5.830423095703125,-1.00177001953125,0.0732421875,0.1357879638671875
1768216525285424000,5.840424072265625,-1.0107421875,0.078399658203125,0.1363677978515625
1768216525295424300,5.85042431640625,-1.0146331787109375,0.0850830078125,0.1456451416015625
1768216525305425200,5.860425048828125,-1.0204010009765625,0.090972900390625,0.1581268310546875
1768216525315425300,5.87042529296875,-1.0212554931640625,0.0959320068359375,0.1728057861328125
1768216525325426200,5.88042626953125,-1.021942138671875,0.0966796875,0.1793670654296875
1768216525335427000,5.890427001953125,-1.0253753662109375,0.0956268310546875,0.179840087890625
1768216525345427000,5.900427001953125,-1.0257415771484375,0.0973663330078125,0.1801910400390625
1768216525355428000,5.910427978515625,-1.025360107421875,0.0974578857421875,0.175628662109375
1768216525365429200,5.92042919921875,-1.019134521484375,0.097930908203125,0.17120361328125
1768216525375429000,5.93042919921875,-0.9983673095703125,0.0971221923828125,0.171600341796875
1768216525385430300,5.94043017578125,-0.9768829345703125,0.093170166015625,0.1700286865234375
1768216525395431200,5.95043115234375,-0.964599609375,0.0924530029296875,0.1669769287109375
1768216525405431300,5.960431396484375,-0.9619598388671875,0.097412109375,0.160858154296875
1768216525415432400,5.970432373046875,-0.96490478515625,0.0960845947265625,0.149993896484375
1768216525425433300,5.980433349609375,-0.9700469970703125,0.0974884033203125,0.1394195556640625
1768216525435433500,5.99043359375,-0.9696502685546875,0.0991058349609375,0.1307830810546875
1768216525445434400,6.000434326171875,-0.9594573974609375,0.09368896484375,0.126190185546875
1768216525455434200,6.010434326171875,-0.95458984375,0.0911407470703125,0.12396240234375
1768216525465435400,6.020435302734375,-0.951202392578125,0.0903472900390625,0.124176025390625
1768216525475436500,6.0304365234375,-0.9580535888671875,0.091705322265625,0.1233673095703125
1768216525485436400,6.0404365234375,-0.9733734130859375,0.0927734375,0.1228179931640625
1768216525495437300,6.050437255859375,-0.9822235107421875,0.092926025390625,0.1262054443359375
1768216525505438200,6.060438232421875,-0.984649658203125,0.0918731689453125,0.125946044921875
1768216525515438300,6.070438232421875,-0.9874725341796875,0.09130859375,0.13201904296875
1768216525525439200,6.080439208984375,-0.991241455078125,0.0912322998046875,0.13775634765625
1768216525535440400,6.0904404296875,-0.9908905029296875,0.0859832763671875,0.1400604248046875
1768216525545440500,6.1004404296875,-0.9978179931640625,0.0806884765625,0.14398193359375
1768216525555441400,6.11044140625,-1.00103759765625,0.0783233642578125,0.15081787109375
1768216525565442300,6.1204423828125,-1.0005035400390625,0.0733489990234375,0.154571533203125
1768216525575442400,6.1304423828125,-1.0044403076171875,0.07037353515625,0.15594482421875
1768216525585443300,6.140443359375,-1.0108642578125,0.070831298828125,0.1580352783203125
1768216525595443500,6.150443359375,-1.01165771484375,0.0675811767578125,0.1590423583984375
1768216525605444400,6.1604443359375,-1.0043487548828125,0.0652923583984375,0.1612091064453125
1768216525615445200,6.1704453125,-0.9929351806640625,0.06365966796875,0.1607513427734375
1768216525625445400,6.1804453125,-0.98785400390625,0.0628204345703125,0.1609344482421875
1768216525635446300,6.1904462890625,-0.9897308349609375,0.0643463134765625,0.1593780517578125
1768216525645447200,6.200447265625,-0.9911651611328125,0.066741943359375,0.1618499755859375
1768216525655447600,6.210447509765625,-0.9985198974609375,0.068603515625,0.1633148193359375
1768216525665448400,6.220448486328125,-1.001434326171875,0.0728759765625,0.1606597900390625
1768216525675449300,6.230449462890625,-0.999237060546875,0.074188232421875,0.160308837890625
1768216525685449500,6.240449462890625,-1.0043182373046875,0.0765533447265625,0.160125732421875
1768216525695450400,6.250450439453125,-1.005279541015625,0.080322265625,0.158935546875
1768216525705451500,6.260451416015625,-1.001708984375,0.0801849365234375,0.158050537109375
1768216525715451400,6.270451416015625,-0.9994964599609375,0.08251953125,0.158111572265625
1768216525725452500,6.28045263671875,-0.99212646484375,0.0829620361328125,0.156494140625
1768216525735453400,6.290453369140625,-0.979522705078125,0.08392333984375,0.1514739990234375
1768216525745453300,6.300453369140625,-0.9714813232421875,0.085723876953125,0.1488494873046875
1768216525755454200,6.3104541015625,-0.9655914306640625,0.08526611328125,0.14544677734375
1768216525765454300,6.320454345703125,-0.9578094482421875,0.0858917236328125,0.1434783935546875
1768216525775455500,6.33045556640625,-0.9541015625,0.086456298828125,0.140594482421875
1768216525785456400,6.340456298828125,-0.9541473388671875,0.0814666748046875,0.1318511962890625
1768216525795456500,6.35045654296875,-0.9510345458984375,0.0762481689453125,0.1291046142578125
1768216525805457400,6.36045751953125,-0.9552764892578125,0.0774383544921875,0.12908935546875
1768216525815458300,6.370458251953125,-0.957977294921875,0.0775909423828125,0.1282958984375
1768216525825458200,6.380458251953125,-0.9620208740234375,0.0743560791015625,0.1286773681640625
1768216525835459600,6.39045947265625,-0.9679107666015625,0.0738372802734375,0.12933349609375
1768216525845460500,6.40046044921875,-0.9693145751953125,0.0732574462890625,0.1339111328125
1768216525855460400,6.41046044921875,-0.97210693359375,0.066741943359375,0.1379852294921875
1768216525865461200,6.420461181640625,-0.981048583984375,0.0641021728515625,0.14605712890625
1768216525875462400,6.43046240234375,-0.9994964599609375,0.0601348876953125,0.15228271484375
1768216525885462300,6.440462158203125,-1.0174713134765625,0.0642547607421875,0.1575775146484375
1768216525895463400,6.45046337890625,-1.029815673828125,0.069183349609375,0.1632843017578125
1768216525905463600,6.460463623046875,-1.040008544921875,0.07562255859375,0.17279052734375
1768216525915464400,6.47046435546875,-1.0407867431640625,0.078369140625,0.1837158203125
1768216525925465300,6.48046533203125,-1.0347442626953125,0.0821685791015625,0.1910247802734375
1768216525935465200,6.49046533203125,-1.0285491943359375,0.0826416015625,0.194366455078125
1768216525945466400,6.50046630859375,-1.0167083740234375,0.0860748291015625,0.19525146484375
1768216525955467500,6.510467529296875,-1.005218505859375,0.087310791015625,0.1947784423828125
1768216525965467400,6.52046728515625,-0.9892425537109375,0.091827392578125,0.1943817138671875
1768216525975468300,6.53046826171875,-0.9754486083984375,0.09576416015625,0.1898956298828125
1768216525985469400,6.540469482421875,-0.9676971435546875,0.097381591796875,0.1837921142578125
1768216525995469300,6.55046923828125,-0.967437744140625,0.0973968505859375,0.1764068603515625
1768216526005470200,6.56047021484375,-0.9676513671875,0.0954132080078125,0.1663665771484375
1768216526015471400,6.570471435546875,-0.9680328369140625,0.0910491943359375,0.15863037109375
1768216526025471500,6.580471435546875,-0.9639739990234375,0.0897064208984375,0.1471405029296875
1768216526035472400,6.590472412109375,-0.95849609375,0.089752197265625,0.1428680419921875
1768216526045473300,6.600473388671875,-0.9620361328125,0.0851287841796875,0.14031982421875
1768216526055473400,6.610473388671875,-0.9577789306640625,0.0872650146484375,0.1376495361328125
1768216526065474300,6.620474365234375,-0.95709228515625,0.0859375,0.1399993896484375
1768216526075474200,6.63047412109375,-0.96038818359375,0.0828857421875,0.13720703125
1768216526085475300,6.640475341796875,-0.9697723388671875,0.08221435546875,0.1390228271484375
1768216526095476500,6.6504765625,-0.9907684326171875,0.0728607177734375,0.1329803466796875
1768216526105476400,6.660476318359375,-0.987335205078125,0.063995361328125,0.123046875
1768216526115477200,6.670477294921875,-0.983551025390625,0.0628204345703125,0.129791259765625
1768216526125478100,6.68047802734375,-0.986541748046875,0.0561981201171875,0.137298583984375
1768216526135478300,6.690478271484375,-0.9843292236328125,0.0517730712890625,0.135406494140625
1768216526145479400,6.7004794921875,-0.9861297607421875,0.0474090576171875,0.1471405029296875
1768216526155480300,6.710480224609375,-0.9823150634765625,0.0511322021484375,0.1591949462890625
1768216526165480400,6.72048046875,-0.9918060302734375,0.0512847900390625,0.173614501953125
1768216526175481300,6.7304814453125,-1.003448486328125,0.058074951171875,0.17620849609375
1768216526185482200,6.740482177734375,-1.0062408447265625,0.06597900390625,0.18536376953125
1768216526195482400,6.750482421875,-1.00701904296875,0.0702056884765625,0.1950836181640625
1768216526205483500,6.7604833984375,-0.996734619140625,0.071746826171875,0.1998291015625
1768216526215483400,6.7704833984375,-0.9895782470703125,0.0766754150390625,0.2108001708984375
1768216526225484300,6.780484375,-0.984405517578125,0.0830078125,0.2083740234375
1768216526235485400,6.7904853515625,-0.975372314453125,0.08673095703125,0.2042083740234375
1768216526245485300,6.8004853515625,-0.969146728515625,0.0849609375,0.20184326171875
1768216526255486500,6.810486572265625,-0.967620849609375,0.0868072509765625,0.204254150390625
1768216526265487400,6.8204873046875,-0.9654388427734375,0.0870819091796875,0.200103759765625
1768216526275487500,6.830487548828125,-0.9732818603515625,0.0877685546875,0.2013092041015625
1768216526285488400,6.84048828125,-0.97430419921875,0.0851898193359375,0.200653076171875
1768216526295489300,6.8504892578125,-0.9613494873046875,0.0793304443359375,0.1872100830078125
1768216526305489400,6.860489501953125,-0.96942138671875,0.078582763671875,0.1817169189453125
1768216526315490600,6.870490478515625,-0.9707183837890625,0.0796051025390625,0.185943603515625
1768216526325491500,6.880491455078125,-0.9657135009765625,0.0709228515625,0.182891845703125
1768216526335491300,6.8904912109375,-0.9659576416015625,0.0677490234375,0.1767120361328125
1768216526345492500,6.900492431640625,-0.961151123046875,0.0740814208984375,0.1768646240234375
1768216526355492400,6.910492431640625,-0.957366943359375,0.0748748779296875,0.1775970458984375
1768216526365493200,6.9204931640625,-0.95904541015625,0.07061767578125,0.1744232177734375
1768216526375494400,6.930494384765625,-0.96429443359375,0.071502685546875,0.1758880615234375
1768216526385494500,6.94049462890625,-0.9749603271484375,0.0699462890625,0.1772918701171875
1768216526395495400,6.950495361328125,-0.9911346435546875,0.0716400146484375,0.171478271484375
1768216526405496300,6.960496337890625,-1.00054931640625,0.066802978515625,0.1673431396484375
1768216526415496400,6.970496337890625,-1.000030517578125,0.0704193115234375,0.1615447998046875
1768216526425497300,6.980497314453125,-0.9871826171875,0.065765380859375,0.16448974609375
1768216526435498500,6.99049853515625,-0.9861602783203125,0.06219482421875,0.1657562255859375
1768216526445498400,7.000498291015625,-0.9886322021484375,0.066986083984375,0.1717681884765625
1768216526455499500,7.01049951171875,-0.9882049560546875,0.0677490234375,0.1716461181640625
1768216526465500400,7.02050048828125,-0.9972991943359375,0.06463623046875,0.171539306640625
1768216526475500300,7.030500244140625,-1.010284423828125,0.070220947265625,0.1709747314453125
1768216526485501400,7.04050146484375,-1.011810302734375,0.074493408203125,0.1732330322265625
1768216526495502600,7.050502685546875,-1.0084381103515625,0.0750732421875,0.1735382080078125
1768216526505502500,7.06050244140625,-0.9982757568359375,0.0737762451171875,0.17572021484375
1768216526515503400,7.07050341796875,-0.9844512939453125,0.073394775390625,0.176544189453125
1768216526525503500,7.08050341796875,-0.978302001953125,0.0749053955078125,0.1750640869140625
1768216526535504400,7.09050439453125,-0.9744720458984375,0.074310302734375,0.1727752685546875
1768216526545505500,7.100505615234375,-0.971405029296875,0.07415771484375,0.1705780029296875
1768216526555505400,7.11050537109375,-0.9712677001953125,0.0738372802734375,0.1709747314453125
1768216526565506600,7.120506591796875,-0.972137451171875,0.0734100341796875,0.1719818115234375
1768216526575507500,7.130507568359375,-0.974395751953125,0.0715789794921875,0.1696014404296875
1768216526585507300,7.14050732421875,-0.9780120849609375,0.0720672607421875,0.1706390380859375
1768216526595508200,7.15050830078125,-0.9784088134765625,0.073455810546875,0.16900634765625
1768216526605509600,7.160509521484375,-0.9797515869140625,0.07342529296875,0.169219970703125
1768216526615509500,7.170509521484375,-0.98309326171875,0.07928466796875,0.1729736328125
1768216526625510400,7.180510498046875,-0.9731292724609375,0.0866851806640625,0.1821136474609375
1768216526635511300,7.19051123046875,-0.96832275390625,0.0848388671875,0.1794891357421875
1768216526645511400,7.200511474609375,-0.969390869140625,0.0843048095703125,0.1742401123046875
1768216526655512300,7.21051220703125,-0.9758453369140625,0.07958984375,0.16790771484375
1768216526665513500,7.220513427734375,-0.98858642578125,0.077301025390625,0.171051025390625
1768216526675513600,7.230513671875,-0.9927978515625,0.0755615234375,0.168731689453125
1768216526685514500,7.240514404296875,-0.99017333984375,0.0727996826171875,0.170989990234375
1768216526695514400,7.250514404296875,-0.982391357421875,0.07122802734375,0.1746368408203125
1768216526705515300,7.260515380859375,-0.9782867431640625,0.067230224609375,0.1736602783203125
1768216526715516400,7.270516357421875,-0.9819488525390625,0.0684661865234375,0.1722259521484375
1768216526725516300,7.280516357421875,-0.984222412109375,0.0666351318359375,0.1692047119140625
1768216526735517400,7.290517333984375,-0.988006591796875,0.0665435791015625,0.164642333984375
1768216526745518300,7.300518310546875,-0.98687744140625,0.067657470703125,0.1632232666015625
1768216526755518500,7.3105185546875,-0.985595703125,0.069122314453125,0.1647491455078125
1768216526765519400,7.320519287109375,-0.9857025146484375,0.0730438232421875,0.1656646728515625
1768216526775520300,7.330520263671875,-0.98590087890625,0.0720672607421875,0.164703369140625
1768216526785520400,7.340520263671875,-0.98406982421875,0.0748748779296875,0.1622772216796875
1768216526795521500,7.350521484375,-0.984588623046875,0.07452392578125,0.1642913818359375
1768216526805522400,7.3605224609375,-0.9846038818359375,0.07232666015625,0.1642913818359375
1768216526815522600,7.3705224609375,-0.9874267578125,0.070098876953125,0.1611328125
1768216526825523500,7.3805234375,-0.9881134033203125,0.0726470947265625,0.1613311767578125
1768216526835523300,7.3905234375,-0.9879913330078125,0.0720977783203125,0.160400390625
1768216526845524200,7.400524169921875,-0.9866943359375,0.0709686279296875,0.16094970703125
1768216526855525400,7.410525390625,-0.984161376953125,0.0704193115234375,0.1627197265625
1768216526865525500,7.420525390625,-0.98388671875,0.0711669921875,0.1633758544921875
1768216526875526400,7.4305263671875,-0.9821624755859375,0.07012939453125,0.1629791259765625
1768216526885527300,7.44052734375,-0.9817047119140625,0.0710601806640625,0.16229248046875
1768216526895527400,7.45052734375,-0.9796600341796875,0.069793701171875,0.16217041015625
1768216526905528300,7.4605283203125,-0.981719970703125,0.068328857421875,0.1631011962890625
1768216526915529500,7.470529541015625,-0.9837799072265625,0.0667266845703125,0.1643524169921875
1768216526925529600,7.480529541015625,-0.983489990234375,0.065185546875,0.1624908447265625
1768216526935530500,7.490530517578125,-0.984771728515625,0.0632476806640625,0.1607818603515625
1768216526945531400,7.500531494140625,-0.9884185791015625,0.0626220703125,0.160675048828125
1768216526955531300,7.51053125,-0.9915924072265625,0.0638275146484375,0.1604766845703125
1768216526965532400,7.520532470703125,-0.9941253662109375,0.0647430419921875,0.1584014892578125
1768216526975533600,7.530533447265625,-0.994537353515625,0.0651092529296875,0.1597900390625
1768216526985533400,7.540533447265625,-0.991943359375,0.0658416748046875,0.1617279052734375
1768216526995534300,7.550534423828125,-0.9923095703125,0.0644378662109375,0.1600341796875
1768216527005534500,7.560534423828125,-0.991943359375,0.0672607421875,0.16107177734375
1768216527015535400,7.570535400390625,-0.9916534423828125,0.0677642822265625,0.1608734130859375
1768216527025536300,7.580536376953125,-0.9868316650390625,0.0683441162109375,0.1609954833984375
1768216527035536600,7.59053662109375,-0.986236572265625,0.066741943359375,0.159271240234375
1768216527045537500,7.60053759765625,-0.9841461181640625,0.0687408447265625,0.1632232666015625
1768216527055538400,7.610538330078125,-0.98394775390625,0.066619873046875,0.164520263671875
1768216527065538300,7.620538330078125,-0.983245849609375,0.0688018798828125,0.1642608642578125
1768216527075539500,7.63053955078125,-0.982757568359375,0.0687408447265625,0.163238525390625
1768216527085540400,7.640540283203125,-0.981903076171875,0.0684661865234375,0.162109375
1768216527095540500,7.65054052734375,-0.9843597412109375,0.06683349609375,0.1628265380859375
1768216527105541400,7.660541259765625,-0.980926513671875,0.0674285888671875,0.1613616943359375
1768216527115542500,7.67054248046875,-0.9780731201171875,0.0648193359375,0.16229248046875
1768216527125542400,7.68054248046875,-0.979736328125,0.0650634765625,0.158538818359375
1768216527135543300,7.690543212890625,-0.9808502197265625,0.06549072265625,0.1573944091796875
1768216527145544400,7.70054443359375,-0.9833221435546875,0.06634521484375,0.1583099365234375
1768216527155544600,7.710544677734375,-0.987396240234375,0.0698394775390625,0.1583099365234375
1768216527165545500,7.72054541015625,-0.9848480224609375,0.069244384765625,0.15850830078125
1768216527175545300,7.73054541015625,-0.9831695556640625,0.0677032470703125,0.1575164794921875
1768216527185546500,7.74054638671875,-0.9831085205078125,0.0694122314453125,0.157867431640625
1768216527195547400,7.75054736328125,-0.9826202392578125,0.068115234375,0.157989501953125
1768216527205547300,7.76054736328125,-0.9835357666015625,0.06817626953125,0.157989501953125
1768216527215548400,7.77054833984375,-0.986114501953125,0.0667266845703125,0.15777587890625
1768216527225549600,7.780549560546875,-0.9884490966796875,0.0670166015625,0.1598968505859375
1768216527235549400,7.790549560546875,-0.9861602783203125,0.06500244140625,0.1620941162109375
1768216527245550300,7.80055029296875,-0.9855194091796875,0.0626068115234375,0.160430908203125
1768216527255551200,7.81055126953125,-0.988983154296875,0.0663299560546875,0.1588897705078125
1768216527265551400,7.82055126953125,-0.991851806640625,0.06878662109375,0.1579437255859375
1768216527275552500,7.830552490234375,-0.9902496337890625,0.0682373046875,0.1585540771484375
1768216527285553400,7.840553466796875,-0.9906158447265625,0.0701751708984375,0.158782958984375
1768216527295553500,7.850553466796875,-0.987945556640625,0.07135009765625,0.1591949462890625
1768216527305554400,7.860554443359375,-0.98577880859375,0.0673370361328125,0.1567230224609375
1768216527315554300,7.87055419921875,-0.984161376953125,0.0693511962890625,0.1572723388671875
1768216527325555200,7.88055517578125,-0.983795166015625,0.0655517578125,0.15484619140625
1768216527335556600,7.890556640625,-0.9868927001953125,0.06695556640625,0.1550445556640625
1768216527345556500,7.900556396484375,-0.9860076904296875,0.06793212890625,0.1529998779296875
1768216527355557400,7.910557373046875,-0.98504638671875,0.0664520263671875,0.150848388671875
1768216527365558300,7.920558349609375,-0.9852142333984375,0.064300537109375,0.1530303955078125
1768216527375558400,7.930558349609375,-0.9825592041015625,0.061798095703125,0.1511688232421875
1768216527385559300,7.940559326171875,-0.98114013671875,0.060394287109375,0.1503753662109375
1768216527395560400,7.950560546875,-0.9855194091796875,0.0601654052734375,0.15032958984375
1768216527405560600,7.960560546875,-0.984954833984375,0.0624847412109375,0.1516571044921875
1768216527415561500,7.9705615234375,-0.98211669921875,0.063232421875,0.150238037109375
1768216527425562400,7.980562255859375,-0.983245849609375,0.06573486328125,0.1516571044921875
1768216527435562500,7.9905625,-0.989227294921875,0.06292724609375,0.1514434814453125
1768216527445563400,8.0005634765625,-0.9941864013671875,0.0639495849609375,0.15240478515625
1768216527455564500,8.010564453125,-0.9933624267578125,0.062042236328125,0.153167724609375
1768216527465564400,8.020564453125,-0.989013671875,0.064117431640625,0.157379150390625
1768216527475565300,8.0305654296875,-0.9821319580078125,0.0659942626953125,0.1597747802734375
1768216527485565400,8.0405654296875,-0.97784423828125,0.067779541015625,0.1561737060546875
1768216527495566300,8.05056640625,-0.97906494140625,0.064361572265625,0.156219482421875
1768216527505567200,8.060567138671875,-0.979888916015625,0.0663909912109375,0.1561126708984375
1768216527515567400,8.0705673828125,-0.983001708984375,0.066986083984375,0.15338134765625
1768216527525568500,8.080568603515625,-0.9873809814453125,0.0653839111328125,0.1497802734375
1768216527535569400,8.0905693359375,-0.9891204833984375,0.06451416015625,0.14898681640625
1768216527545569500,8.100569580078124,-0.98992919921875,0.06378173828125,0.148162841796875
1768216527555570400,8.1105703125,-0.9891204833984375,0.064300537109375,0.1480560302734375
1768216527565571300,8.1205712890625,-0.991119384765625,0.0640106201171875,0.1455078125
1768216527575571200,8.1305712890625,-0.991363525390625,0.0634765625,0.146240234375
1768216527585572600,8.140572509765626,-0.989501953125,0.0650177001953125,0.146820068359375
1768216527595573500,8.150573486328126,-0.9861297607421875,0.0630645751953125,0.1456298828125
1768216527605573400,8.160573486328126,-0.9884033203125,0.0625457763671875,0.1466217041015625
1768216527615574300,8.17057421875,-0.9887847900390625,0.0633087158203125,0.1490325927734375
1768216527625575400,8.180575439453126,-0.988677978515625,0.0619659423828125,0.1485595703125
1768216527635575300,8.1905751953125,-0.9894561767578125,0.060943603515625,0.1475067138671875
1768216527645576400,8.200576416015625,-0.9871063232421875,0.062286376953125,0.1502685546875
1768216527655576600,8.21057666015625,-0.988189697265625,0.062957763671875,0.15045166015625
1768216527665577500,8.220577392578125,-0.9863433837890625,0.06097412109375,0.1507110595703125
1768216527675578400,8.230578369140625,-0.9884796142578125,0.0624847412109375,0.149871826171875
1768216527685578200,8.240578125,-0.9891204833984375,0.0641937255859375,0.1503143310546875
1768216527695579600,8.25057958984375,-0.9887237548828125,0.0618743896484375,0.1503753662109375
1768216527705580500,8.26058056640625,-0.98602294921875,0.061431884765625,0.1499481201171875
1768216527715580400,8.270580322265625,-0.98687744140625,0.061981201171875,0.1484832763671875
1768216527725581300,8.280581298828125,-0.9898529052734375,0.062896728515625,0.1477203369140625
1768216527735582500,8.29058251953125,-0.992706298828125,0.061767578125,0.148712158203125
1768216527745582300,8.300582275390624,-0.994049072265625,0.061370849609375,0.1485595703125
1768216527755583500,8.31058349609375,-0.9915313720703125,0.0610809326171875,0.1486053466796875
1768216527765584400,8.32058447265625,-0.9885711669921875,0.0615997314453125,0.150543212890625
1768216527775584500,8.33058447265625,-0.985626220703125,0.062652587890625,0.151824951171875
1768216527785585400,8.34058544921875,-0.9852752685546875,0.0615234375,0.151031494140625
1768216527795585300,8.350585205078126,-0.986541748046875,0.0608062744140625,0.15057373046875
1768216527805586400,8.36058642578125,-0.9859466552734375,0.0620880126953125,0.150970458984375
1768216527815587600,8.370587646484376,-0.9825286865234375,0.061492919921875,0.1500396728515625
1768216527825587500,8.38058740234375,-0.9830169677734375,0.0623931884765625,0.1501617431640625
1768216527835588400,8.39058837890625,-0.9850006103515625,0.0632781982421875,0.14801025390625
1768216527845589500,8.400589599609376,-0.9868011474609375,0.0625762939453125,0.1491546630859375
1768216527855589400,8.41058935546875,-0.9890594482421875,0.0621337890625,0.1461334228515625
1768216527865590300,8.42059033203125,-0.99072265625,0.06292724609375,0.14581298828125
1768216527875591400,8.43059130859375,-0.990631103515625,0.0628662109375,0.1469573974609375
1768216527885591600,8.440591552734375,-0.9886474609375,0.0623931884765625,0.1466827392578125
1768216527895592400,8.450592529296875,-0.98663330078125,0.0601654052734375,0.1457672119140625
1768216527905593300,8.46059326171875,-0.9866790771484375,0.0601959228515625,0.1472625732421875
1768216527915593500,8.470593505859375,-0.98883056640625,0.06060791015625,0.1463165283203125
1768216527925594400,8.480594482421875,-0.98931884765625,0.0616912841796875,0.1459197998046875
1768216527935595500,8.490595458984375,-0.9883575439453125,0.0616302490234375,0.1469268798828125
1768216527945595400,8.500595458984375,-0.98876953125,0.062652587890625,0.1478729248046875
1768216527955596500,8.510596435546875,-0.98675537109375,0.0614776611328125,0.147003173828125
1768216527965597400,8.520597412109375,-0.985748291015625,0.061859130859375,0.1479949951171875
1768216527975597300,8.530597412109374,-0.987152099609375,0.0621337890625,0.148956298828125
1768216527985598200,8.54059814453125,-0.986785888671875,0.0612030029296875,0.150665283203125
1768216527995598300,8.550598388671874,-0.98828125,0.0625152587890625,0.1496734619140625
1768216528005599500,8.560599609375,-0.9895477294921875,0.0612945556640625,0.1475830078125
1768216528015600400,8.570600341796874,-0.990814208984375,0.0609588623046875,0.1481475830078125
1768216528025600500,8.5806005859375,-0.989105224609375,0.0610504150390625,0.1473388671875
1768216528035601400,8.590601318359376,-0.9876708984375,0.0601959228515625,0.1482086181640625
1768216528045602300,8.600602294921876,-0.98577880859375,0.0618743896484375,0.1501007080078125
1768216528055602400,8.6106025390625,-0.9859161376953125,0.0626373291015625,0.1502532958984375
1768216528065603600,8.620603515625,-0.9852752685546875,0.0634918212890625,0.1492767333984375
1768216528075604500,8.6306044921875,-0.98675537109375,0.0627899169921875,0.1481170654296875
1768216528085604400,8.640604248046875,-0.9868621826171875,0.0655517578125,0.1490478515625
1768216528095605200,8.650605224609375,-0.98748779296875,0.0652008056640625,0.147674560546875
1768216528105606400,8.6606064453125,-0.987762451171875,0.0638275146484375,0.1466522216796875
1768216528115606300,8.670606201171875,-0.9860382080078125,0.0639190673828125,0.14892578125
1768216528125607400,8.680607421875,-0.9873809814453125,0.062530517578125,0.1486358642578125
1768216528135607600,8.690607666015625,-0.9888458251953125,0.0633544921875,0.1470794677734375
1768216528145608400,8.7006083984375,-0.990447998046875,0.0632171630859375,0.1473846435546875
1768216528155609300,8.710609375,-0.988189697265625,0.0610504150390625,0.14642333984375
1768216528165609500,8.720609375,-0.986297607421875,0.06365966796875,0.1444549560546875
1768216528175610400,8.7306103515625,-0.9854736328125,0.06414794921875,0.1453857421875
1768216528185611500,8.740611572265625,-0.98529052734375,0.063812255859375,0.1456756591796875
1768216528195611400,8.750611328125,-0.9829254150390625,0.06378173828125,0.1453857421875
1768216528205612500,8.760612548828124,-0.985076904296875,0.064361572265625,0.1463775634765625
1768216528215613400,8.770613525390624,-0.9873809814453125,0.0633392333984375,0.1463165283203125
1768216528225613300,8.78061328125,-0.9839324951171875,0.063873291015625,0.1479034423828125
1768216528235614200,8.7906142578125,-0.9852142333984375,0.0612030029296875,0.1472320556640625
1768216528245615400,8.800615478515626,-0.991424560546875,0.06134033203125,0.145843505859375
1768216528255615500,8.810615478515626,-0.9950714111328125,0.06219482421875,0.1475830078125
1768216528265616400,8.820616455078126,-0.996673583984375,0.05963134765625,0.148590087890625
1768216528275617300,8.8306171875,-0.9961090087890625,0.0599822998046875,0.14825439453125
1768216528285617400,8.840617431640625,-0.98828125,0.0615386962890625,0.1512908935546875
1768216528295618300,8.850618408203125,-0.98040771484375,0.06390380859375,0.1521759033203125
1768216528305619500,8.860619384765625,-0.978118896484375,0.0620574951171875,0.15301513671875
1768216528315619600,8.87061962890625,-0.979766845703125,0.06219482421875,0.152374267578125
1768216528325620500,8.880620361328125,-0.9819793701171875,0.0634765625,0.151580810546875
1768216528335620400,8.890620361328125,-0.9847869873046875,0.064117431640625,0.150177001953125
1768216528345621200,8.900621337890625,-0.9866943359375,0.06329345703125,0.147125244140625
1768216528355622700,8.91062255859375,-0.9876708984375,0.0636138916015625,0.1468963623046875
1768216528365622500,8.92062255859375,-0.9853515625,0.063568115234375,0.146759033203125
1768216528375623400,8.93062353515625,-0.9851531982421875,0.0644378662109375,0.1445159912109375
1768216528385624300,8.940624267578125,-0.9864349365234375,0.0636444091796875,0.1451873779296875
1768216528395625500,8.95062548828125,-0.9876861572265625,0.06195068359375,0.1443634033203125
1768216528405626600,8.960626708984375,-0.9891510009765625,0.0621490478515625,0.1455841064453125
1768216528415627800,8.970627685546875,-0.9893341064453125,0.06207275390625,0.146087646484375
1768216528425627600,8.980627685546875,-0.9907989501953125,0.060211181640625,0.1472930908203125
1768216528435628500,8.990628662109375,-0.993133544921875,0.060211181640625,0.149566650390625
1768216528445629700,9.000629638671874,-0.995025634765625,0.0588531494140625,0.149322509765625
1768216528455629600,9.010629638671874,-0.9954986572265625,0.0589752197265625,0.150421142578125
1768216528465630500,9.02063037109375,-0.995086669921875,0.061370849609375,0.1505889892578125
1768216528475630600,9.030630615234376,-0.9922027587890625,0.060791015625,0.152008056640625
1768216528485631700,9.0406318359375,-0.98907470703125,0.0614166259765625,0.1525115966796875
1768216528495632600,9.050632568359376,-0.987548828125,0.0626373291015625,0.152496337890625
1768216528505632500,9.060632568359376,-0.9851226806640625,0.063507080078125,0.1515045166015625
1768216528515633700,9.070633544921876,-0.985076904296875,0.064208984375,0.1529541015625
1768216528525634600,9.080634521484376,-0.9853363037109375,0.064178466796875,0.151214599609375
1768216528535634400,9.090634521484375,-0.9832916259765625,0.0626373291015625,0.1518402099609375
1768216528545635600,9.100635498046875,-0.9865875244140625,0.0628814697265625,0.1507110595703125
1768216528555636700,9.11063671875,-0.9906463623046875,0.0618743896484375,0.1503143310546875
1768216528565636600,9.12063671875,-0.990753173828125,0.061798095703125,0.1512451171875
1768216528575637500,9.130637451171875,-0.99249267578125,0.064117431640625,0.151580810546875
1768216528585638400,9.140638427734375,-0.989593505859375,0.0623626708984375,0.152313232421875
1768216528595638500,9.150638427734375,-0.9861297607421875,0.063140869140625,0.1544952392578125
1768216528605639700,9.1606396484375,-0.986968994140625,0.064727783203125,0.154937744140625
1768216528615640600,9.170640625,-0.987274169921875,0.066162109375,0.1565399169921875
1768216528625640700,9.180640625,-0.9862060546875,0.0652923583984375,0.1542510986328125
1768216528635641600,9.1906416015625,-0.9847412109375,0.063873291015625,0.1532135009765625
1768216528645641500,9.200641357421874,-0.9842376708984375,0.0640869140625,0.1535186767578125
1768216528655642600,9.210642578125,-0.9889068603515625,0.0640411376953125,0.15338134765625
1768216528665643800,9.220643798828124,-0.98858642578125,0.0651702880859375,0.1531524658203125
1768216528675643600,9.2306435546875,-0.988555908203125,0.06524658203125,0.154205322265625
1768216528685644500,9.24064453125,-0.98748779296875,0.066253662109375,0.1529388427734375
1768216528695645700,9.250645751953124,-0.9854583740234375,0.06573486328125,0.1531982421875
1768216528705645600,9.2606455078125,-0.985565185546875,0.063568115234375,0.1529998779296875
1768216528715646500,9.270646484375,-0.9844970703125,0.0634765625,0.1529083251953125
1768216528725647600,9.280647705078126,-0.9858245849609375,0.0648651123046875,0.1526336669921875
1768216528735647700,9.290647705078126,-0.9861907958984375,0.06561279296875,0.1538848876953125
1768216528745648600,9.300648681640626,-0.9862823486328125,0.0664825439453125,0.15423583984375
1768216528755649500,9.3106494140625,-0.986114501953125,0.064178466796875,0.154052734375
1768216528765649700,9.320649658203125,-0.985870361328125,0.066253662109375,0.1556396484375
1768216528775650800,9.33065087890625,-0.9912109375,0.067474365234375,0.15325927734375
1768216528785651700,9.340651611328125,-0.9817047119140625,0.0653533935546875,0.1562042236328125
1768216528795651600,9.350651611328125,-0.9836273193359375,0.0677947998046875,0.15863037109375
1768216528805652700,9.36065283203125,-0.9890899658203125,0.06866455078125,0.1573333740234375
1768216528815652600,9.370652587890625,-0.9871978759765625,0.069061279296875,0.1566009521484375
1768216528825653500,9.380653564453125,-0.98675537109375,0.06842041015625,0.15838623046875
1768216528835654700,9.390654541015625,-0.9842376708984375,0.06707763671875,0.15899658203125
1768216528845654800,9.40065478515625,-0.98211669921875,0.06488037109375,0.1586761474609375
1768216528855655700,9.41065576171875,-0.983917236328125,0.067657470703125,0.1588897705078125
1768216528865656600,9.420656494140625,-0.9813690185546875,0.0667266845703125,0.157806396484375
1768216528875656700,9.43065673828125,-0.98309326171875,0.0653533935546875,0.1585235595703125
1768216528885657600,9.44065771484375,-0.9873199462890625,0.067352294921875,0.157806396484375
1768216528895658800,9.45065869140625,-0.989776611328125,0.0649871826171875,0.160186767578125
1768216528905658600,9.46065869140625,-0.9912567138671875,0.0676116943359375,0.1592864990234375
1768216528915659800,9.47065966796875,-0.990234375,0.067626953125,0.157501220703125
1768216528925660700,9.48066064453125,-0.9907379150390625,0.0681610107421875,0.158447265625
1768216528935660500,9.49066064453125,-0.99090576171875,0.069427490234375,0.159912109375
1768216528945661400,9.500661376953126,-0.989593505859375,0.0703125,0.1584014892578125
1768216528955662800,9.510662841796876,-0.986175537109375,0.0712432861328125,0.1595001220703125
1768216528965662700,9.520662841796875,-0.985137939453125,0.070037841796875,0.1587982177734375
1768216528975663600,9.53066357421875,-0.9851837158203125,0.071929931640625,0.158111572265625
1768216528985664500,9.54066455078125,-0.983612060546875,0.0701446533203125,0.1587066650390625
1768216528995664600,9.55066455078125,-0.9802093505859375,0.0688629150390625,0.15618896484375
1768216529005665500,9.56066552734375,-0.9803924560546875,0.0691680908203125,0.15814208984375
1768216529015665400,9.57066552734375,-0.9805145263671875,0.06982421875,0.157440185546875
1768216529025666800,9.580666748046875,-0.9798736572265625,0.066070556640625,0.155853271484375
1768216529035667700,9.590667724609375,-0.980010986328125,0.0675201416015625,0.15740966796875
1768216529045667600,9.60066748046875,-0.9818878173828125,0.0716094970703125,0.158966064453125
1768216529055668500,9.61066845703125,-0.98114013671875,0.0705108642578125,0.1591644287109375
1768216529065669600,9.620669677734375,-0.9836578369140625,0.0722198486328125,0.1577606201171875
1768216529075669500,9.63066943359375,-0.985137939453125,0.072418212890625,0.159332275390625
1768216529085670700,9.640670654296875,-0.9874725341796875,0.0721435546875,0.158935546875
1768216529095671600,9.650671630859375,-0.990631103515625,0.0694732666015625,0.16156005859375
1768216529105671700,9.660671630859374,-0.9905853271484375,0.06982421875,0.163818359375
1768216529115672600,9.670672607421874,-0.981414794921875,0.0713958740234375,0.1647491455078125
1768216529125673500,9.680673583984374,-0.9751129150390625,0.0706024169921875,0.164459228515625
1768216529135673600,9.690673583984376,-0.9720306396484375,0.0674896240234375,0.1634063720703125
1768216529145674800,9.7006748046875,-0.9756011962890625,0.067169189453125,0.1615142822265625
1768216529155675600,9.710675537109376,-0.98126220703125,0.0682220458984375,0.1584930419921875
1768216529165675500,9.720675537109376,-0.9849395751953125,0.07073974609375,0.158050537109375
1768216529175676700,9.7306767578125,-0.98577880859375,0.0699005126953125,0.1571502685546875
1768216529185676500,9.740676513671875,-0.9870758056640625,0.0707550048828125,0.1562347412109375
1768216529195677400,9.750677490234375,-0.985687255859375,0.0711212158203125,0.156280517578125
1768216529205678600,9.7606787109375,-0.9862213134765625,0.0718994140625,0.155670166015625
1768216529215678700,9.7706787109375,-0.98828125,0.0698699951171875,0.1551361083984375
1768216529225679600,9.7806796875,-0.9893951416015625,0.0680999755859375,0.15478515625
1768216529235680500,9.790680419921875,-0.9883880615234375,0.07049560546875,0.1580963134765625
1768216529245680600,9.8006806640625,-0.98675537109375,0.0670928955078125,0.1559295654296875
1768216529255681500,9.810681640625,-0.9857635498046875,0.067413330078125,0.159332275390625
1768216529265682700,9.8206826171875,-0.986968994140625,0.066986083984375,0.1587677001953125
1768216529275682600,9.8306826171875,-0.98602294921875,0.0688018798828125,0.1591339111328125
1768216529285683700,9.84068359375,-0.98553466796875,0.06939697265625,0.1623687744140625
1768216529295684600,9.8506845703125,-0.9860382080078125,0.072174072265625,0.1597442626953125
1768216529305684500,9.8606845703125,-0.98370361328125,0.0705108642578125,0.160186767578125
1768216529315685600,9.870685546875,-0.983795166015625,0.07183837890625,0.1607666015625
1768216529325686800,9.880686767578124,-0.9835205078125,0.0717010498046875,0.1620025634765625
1768216529335686700,9.890686767578124,-0.9845123291015625,0.0704345703125,0.1596832275390625
1768216529345687600,9.9006875,-0.983001708984375,0.070068359375,0.1590576171875
1768216529355688400,9.9106884765625,-0.9826507568359375,0.070068359375,0.157623291015625
1768216529365688600,9.9206884765625,-0.981964111328125,0.0689697265625,0.1581268310546875
1768216529375689500,9.930689453125,-0.9833221435546875,0.068939208984375,0.1598968505859375
1768216529385689900,9.94068994140625,-0.986663818359375,0.0695037841796875,0.15960693359375
1768216529395689200,9.950689208984375,-0.9873809814453125,0.0684051513671875,0.159393310546875
1768216529405690000,9.960690185546875,-0.9844512939453125,0.07025146484375,0.1603546142578125
1768216529415690200,9.970690185546875,-0.9850921630859375,0.0697174072265625,0.1615142822265625
1768216529425691100,9.980691162109375,-0.98309326171875,0.0699005126953125,0.1630401611328125
1768216529435692300,9.9906923828125,-0.982513427734375,0.07061767578125,0.1612701416015625
1768216529445692400,10.0006923828125,-0.9844207763671875,0.0708465576171875,0.160552978515625
1768216529455693300,10.010693359375,-0.9843597412109375,0.0687103271484375,0.1610260009765625
1768216529465694200,10.020694091796875,-0.987274169921875,0.068084716796875,0.159515380859375
1768216529475694000,10.030694091796875,-0.988555908203125,0.070220947265625,0.1585693359375
1768216529485695500,10.040695556640625,-0.9887847900390625,0.070404052734375,0.1580657958984375
1768216529495696400,10.0506962890625,-0.987335205078125,0.068389892578125,0.1581878662109375
1768216529505696300,10.0606962890625,-0.984619140625,0.068267822265625,0.1561126708984375
1768216529515697200,10.070697265625,-0.9849395751953125,0.0689849853515625,0.1561126708984375
1768216529525698300,10.0806982421875,-0.986328125,0.0690155029296875,0.158111572265625
1768216529535698200,10.0906982421875,-0.9847869873046875,0.06964111328125,0.1576995849609375
1768216529545699300,10.10069921875,-0.98443603515625,0.0703887939453125,0.156707763671875
1768216529555700200,10.1107001953125,-0.986328125,0.0701141357421875,0.156890869140625
1768216529565700400,10.120700439453126,-0.9849853515625,0.0699462890625,0.15667724609375
1768216529575701200,10.130701171875,-0.98248291015625,0.069183349609375,0.1569366455078125
1768216529585701000,10.140701171875,-0.983123779296875,0.0696258544921875,0.156219482421875
1768216529595702300,10.150702392578125,-0.9831695556640625,0.0699462890625,0.155548095703125
1768216529605703400,10.160703369140625,-0.9832000732421875,0.07012939453125,0.1572418212890625
1768216529615703300,10.170703369140625,-0.9859161376953125,0.069488525390625,0.1591949462890625
1768216529625704200,10.1807041015625,-0.986358642578125,0.0692291259765625,0.159332275390625
1768216529635705300,10.190705322265625,-0.987091064453125,0.068603515625,0.158843994140625
1768216529645705200,10.200705322265625,-0.9876861572265625,0.0679168701171875,0.1590423583984375
1768216529655706000,10.2107060546875,-0.9868011474609375,0.065948486328125,0.1587677001953125
1768216529665707300,10.220707275390625,-0.987701416015625,0.065399169921875,0.15771484375
1768216529675707400,10.230707275390625,-0.9859161376953125,0.0672454833984375,0.1585693359375
1768216529685708300,10.240708251953125,-0.984832763671875,0.0664520263671875,0.1585845947265625
1768216529695709200,10.250709228515625,-0.983642578125,0.0654144287109375,0.158294677734375
1768216529705709300,10.260709228515625,-0.9848785400390625,0.0670623779296875,0.15826416015625
1768216529715710200,10.270710205078124,-0.9886474609375,0.069244384765625,0.1579132080078125
1768216529725711400,10.28071142578125,-0.9865570068359375,0.0691070556640625,0.157073974609375
1768216529735711200,10.290711181640624,-0.9868011474609375,0.0689697265625,0.15606689453125
1768216529745712400,10.30071240234375,-0.98675537109375,0.06951904296875,0.15643310546875
1768216529755712300,10.310712158203126,-0.986236572265625,0.070037841796875,0.1561279296875
1768216529765713200,10.320713134765626,-0.9869384765625,0.069305419921875,0.1548309326171875
1768216529775714000,10.330714111328126,-0.9869232177734375,0.0691680908203125,0.15496826171875
1768216529785714200,10.340714111328126,-0.9856719970703125,0.07080078125,0.1546478271484375
1768216529795715300,10.35071533203125,-0.9861297607421875,0.068695068359375,0.1541900634765625
1768216529805716200,10.36071630859375,-0.9870758056640625,0.0660858154296875,0.1524200439453125
1768216529815716400,10.37071630859375,-0.9813690185546875,0.067596435546875,0.1528472900390625
1768216529825717200,10.38071728515625,-0.9874267578125,0.0673370361328125,0.1521759033203125
1768216529835718100,10.39071826171875,-0.9801177978515625,0.0611724853515625,0.1479644775390625
1768216529845718300,10.40071826171875,-0.9842071533203125,0.066436767578125,0.153564453125
1768216529855719400,10.410719482421875,-0.98809814453125,0.068450927734375,0.1534271240234375
1768216529865720300,10.42072021484375,-0.9855499267578125,0.0688323974609375,0.152801513671875
1768216529875720200,10.43072021484375,-0.9849853515625,0.0676422119140625,0.1558685302734375
1768216529885721000,10.44072119140625,-0.985198974609375,0.067169189453125,0.1556549072265625
1768216529895722200,10.45072216796875,-0.9871673583984375,0.0688934326171875,0.1508636474609375
1768216529905722000,10.46072216796875,-0.99249267578125,0.0673065185546875,0.1522979736328125
1768216529915723300,10.47072314453125,-0.9932098388671875,0.065826416015625,0.1582489013671875
1768216529925724200,10.48072412109375,-0.98797607421875,0.066680908203125,0.15423583984375
1768216529935724300,10.490724365234374,-0.9825286865234375,0.0676116943359375,0.1574859619140625
1768216529945725200,10.50072509765625,-0.977935791015625,0.06707763671875,0.156585693359375
1768216529955725300,10.510725341796874,-0.97796630859375,0.0668792724609375,0.1539306640625
1768216529965726200,10.520726318359374,-0.98382568359375,0.066619873046875,0.1521453857421875
1768216529975727400,10.530727294921874,-0.987060546875,0.0653076171875,0.150177001953125
1768216529985727200,10.540727294921876,-0.9906768798828125,0.0651702880859375,0.1481170654296875
1768216529995728100,10.55072802734375,-0.9922943115234375,0.0660858154296875,0.146820068359375
1768216530005729300,10.560729248046876,-0.99017333984375,0.064483642578125,0.14691162109375
1768216530015729200,10.570729248046876,-0.989532470703125,0.0659637451171875,0.1452484130859375
1768216530025730000,10.58072998046875,-0.9864349365234375,0.0666656494140625,0.1448211669921875
1768216530035731200,10.590731201171875,-0.985870361328125,0.0655975341796875,0.1435089111328125
1768216530045731300,10.6007314453125,-0.9842376708984375,0.065399169921875,0.1453094482421875
1768216530055732200,10.610732177734375,-0.982421875,0.06573486328125,0.1475830078125
1768216530065733000,10.620733154296875,-0.9835968017578125,0.06268310546875,0.1489105224609375
1768216530075733200,10.630733154296875,-0.985809326171875,0.0632476806640625,0.1492919921875
1768216530085734100,10.640734130859375,-0.987213134765625,0.063323974609375,0.149688720703125
1768216530095735300,10.6507353515625,-0.9905242919921875,0.0634765625,0.151458740234375
1768216530105735400,10.6607353515625,-0.99072265625,0.0645904541015625,0.1505584716796875
1768216530115736300,10.670736328125,-0.9906768798828125,0.063140869140625,0.1502685546875
1768216530125737200,10.6807373046875,-0.9913787841796875,0.0623016357421875,0.1495513916015625
1768216530135737000,10.690737060546875,-0.9924774169921875,0.0631866455078125,0.1503143310546875
1768216530145738200,10.70073828125,-0.989013671875,0.065460205078125,0.149078369140625
1768216530155738400,10.71073828125,-0.989166259765625,0.0660858154296875,0.1494293212890625
1768216530165739300,10.7207392578125,-0.984375,0.0665283203125,0.1491546630859375
1768216530175740200,10.730740234375,-0.9863433837890625,0.065032958984375,0.1479949951171875
1768216530185740300,10.740740234375,-0.984832763671875,0.0636444091796875,0.1497955322265625
1768216530195741200,10.7507412109375,-0.987518310546875,0.06536865234375,0.15020751953125
1768216530205742300,10.760742431640624,-0.98876953125,0.063720703125,0.1486663818359375
1768216530215742500,10.770742431640626,-0.990234375,0.0633697509765625,0.1501312255859375
1768216530225743400,10.780743408203126,-0.988677978515625,0.06396484375,0.1513671875
1768216530235744300,10.790744140625,-0.9884490966796875,0.0634613037109375,0.14971923828125
1768216530245744000,10.800744140625,-0.98736572265625,0.0630340576171875,0.1490631103515625
1768216530255745300,10.810745361328125,-0.987030029296875,0.064056396484375,0.149688720703125
1768216530265746400,10.820746337890625,-0.9857635498046875,0.06353759765625,0.1495208740234375
1768216530275746300,10.830746337890625,-0.986328125,0.0638580322265625,0.1489715576171875
1768216530285747200,10.840747314453125,-0.9868621826171875,0.06317138671875,0.1483001708984375
1768216530295748400,10.850748291015625,-0.98651123046875,0.061614990234375,0.14715576171875
1768216530305748200,10.860748291015625,-0.98651123046875,0.061737060546875,0.1487884521484375
1768216530315749000,10.8707490234375,-0.9880828857421875,0.0614471435546875,0.1477508544921875
1768216530325750300,10.880750244140625,-0.9854583740234375,0.0597076416015625,0.14691162109375
1768216530335750400,10.89075048828125,-0.985931396484375,0.060546875,0.145599365234375
1768216530345751300,10.900751220703125,-0.98748779296875,0.0604400634765625,0.1461029052734375
1768216530355752200,10.910752197265625,-0.9863128662109375,0.060333251953125,0.147918701171875
1768216530365752300,10.92075244140625,-0.9884033203125,0.061981201171875,0.149322509765625
1768216530375753200,10.930753173828125,-0.9888916015625,0.0611419677734375,0.147613525390625
1768216530385753000,10.940753173828124,-0.99200439453125,0.0614013671875,0.1463165283203125
1768216530395754200,10.950754150390624,-0.9901123046875,0.0622100830078125,0.1484375
1768216530405755400,10.96075537109375,-0.9932403564453125,0.0623626708984375,0.1476287841796875
1768216530415755300,10.97075537109375,-0.9928741455078125,0.063751220703125,0.146820068359375
1768216530425756200,10.980756103515626,-0.9901885986328125,0.0632781982421875,0.14739990234375
1768216530435757300,10.99075732421875,-0.9887847900390625,0.0628204345703125,0.14739990234375
1768216530445757400,11.00075732421875,-0.986419677734375,0.06451416015625,0.1472625732421875
1768216530455758300,11.01075830078125,-0.986114501953125,0.065277099609375,0.14703369140625
1768216530465759200,11.02075927734375,-0.9866943359375,0.06439208984375,0.1463470458984375
1768216530475759400,11.03075927734375,-0.98614501953125,0.0647430419921875,0.145965576171875
1768216530485760300,11.04076025390625,-0.987213134765625,0.063140869140625,0.146087646484375
1768216530495761400,11.050761474609375,-0.9871368408203125,0.062164306640625,0.1478271484375
1768216530505761300,11.06076123046875,-0.98541259765625,0.0605926513671875,0.1453704833984375
1768216530515762400,11.070762451171875,-0.9856719970703125,0.0627593994140625,0.147125244140625
1768216530525763300,11.080763427734375,-0.9861907958984375,0.0641326904296875,0.1427764892578125
1768216530535763200,11.09076318359375,-0.9857177734375,0.0621185302734375,0.14996337890625
1768216530545764000,11.10076416015625,-0.9933319091796875,0.06549072265625,0.152374267578125
1768216530555765500,11.110765625,-0.9853973388671875,0.061981201171875,0.144744873046875
1768216530565765400,11.120765380859375,-0.986663818359375,0.058319091796875,0.14520263671875
1768216530575766300,11.130766357421875,-0.9931640625,0.061370849609375,0.1468048095703125
1768216530585766400,11.140766357421874,-0.9821014404296875,0.062408447265625,0.1461029052734375
1768216530595767300,11.150767333984374,-0.9863739013671875,0.063568115234375,0.1475372314453125
1768216530605768200,11.160768310546874,-0.9859619140625,0.061431884765625,0.147491455078125
1768216530615768300,11.170768310546874,-0.9865264892578125,0.061004638671875,0.146636962890625
1768216530625769500,11.18076953125,-0.9864349365234375,0.0605316162109375,0.1453704833984375
1768216530635770400,11.190770263671874,-0.989593505859375,0.0571136474609375,0.1436309814453125
1768216530645770200,11.200770263671876,-0.9881134033203125,0.0560150146484375,0.141632080078125
1768216530655771100,11.210771240234376,-0.9908294677734375,0.0567626953125,0.1442413330078125
1768216530665772300,11.220772216796876,-0.991058349609375,0.05810546875,0.145782470703125
1768216530675772200,11.230772216796876,-0.990264892578125,0.0607452392578125,0.146240234375
1768216530685773300,11.240773193359376,-0.9888458251953125,0.0637664794921875,0.144134521484375
1768216530695774200,11.250774169921876,-0.98895263671875,0.0650787353515625,0.142242431640625
1768216530705774300,11.2607744140625,-0.988525390625,0.06585693359375,0.1422119140625
1768216530715775200,11.270775146484375,-0.9912872314453125,0.065704345703125,0.143585205078125
1768216530725776100,11.280776123046875,-0.9911346435546875,0.0654296875,0.1444549560546875
1768216530735776300,11.2907763671875,-0.98846435546875,0.064788818359375,0.1457672119140625
1768216530745777400,11.30077734375,-0.9813232421875,0.0648040771484375,0.146240234375
1768216530755778300,11.3107783203125,-0.9777679443359375,0.0638580322265625,0.146240234375
1768216530765778200,11.320778076171875,-0.9794921875,0.06317138671875,0.147430419921875
1768216530775779300,11.330779296875,-0.979522705078125,0.0603179931640625,0.1455841064453125
1768216530785779200,11.340779296875,-0.98675537109375,0.0597991943359375,0.143463134765625
1768216530795780000,11.350780029296875,-0.9903717041015625,0.058685302734375,0.142791748046875
1768216530805781200,11.36078125,-0.992706298828125,0.059539794921875,0.142974853515625
1768216530815781400,11.370781494140624,-0.9918212890625,0.0578765869140625,0.1404266357421875
1768216530825782300,11.3807822265625,-0.9917755126953125,0.0581512451171875,0.14013671875
1768216530835783200,11.390783203125,-0.9897308349609375,0.0582427978515625,0.13934326171875
1768216530845783300,11.400783203125,-0.9913787841796875,0.057952880859375,0.1396942138671875
1768216530855784200,11.4107841796875,-0.989837646484375,0.0587310791015625,0.140655517578125
1768216530865785300,11.420785400390624,-0.98699951171875,0.0579071044921875,0.1411590576171875
1768216530875785500,11.430785400390626,-0.986175537109375,0.0579833984375,0.1438140869140625
1768216530885786400,11.440786376953126,-0.987945556640625,0.0566253662109375,0.1424713134765625
1768216530895787300,11.450787353515626,-0.9885101318359375,0.05694580078125,0.14251708984375
1768216530905787100,11.460787109375,-0.9899444580078125,0.0549774169921875,0.144012451171875
1768216530915788300,11.470788330078125,-0.991485595703125,0.0562286376953125,0.1408843994140625
1768216530925789400,11.48078955078125,-0.9921875,0.0574951171875,0.142578125
1768216530935789300,11.490789306640625,-0.99169921875,0.0589141845703125,0.143646240234375
1768216530945790200,11.500790283203125,-0.99029541015625,0.0580291748046875,0.1453094482421875
1768216530955791400,11.510791259765625,-0.9888763427734375,0.05914306640625,0.1455078125
1768216530965791200,11.520791259765625,-0.988739013671875,0.060516357421875,0.145050048828125
1768216530975792000,11.530792236328125,-0.9876708984375,0.0595245361328125,0.143463134765625
1768216530985793300,11.540793212890625,-0.98724365234375,0.0592803955078125,0.142181396484375
1768216530995793400,11.55079345703125,-0.986328125,0.0612030029296875,0.141845703125
1768216531005794300,11.560794189453125,-0.9874267578125,0.0606689453125,0.1422119140625
1768216531015794200,11.570794189453125,-0.9902496337890625,0.0597991943359375,0.143280029296875
1768216531025795300,11.58079541015625,-0.9920196533203125,0.0612945556640625,0.14373779296875
1768216531035796500,11.59079638671875,-0.991851806640625,0.0618896484375,0.1432647705078125
1768216531045796400,11.60079638671875,-0.9895172119140625,0.0605926513671875,0.1446533203125
1768216531055797200,11.61079736328125,-0.9869384765625,0.06243896484375,0.14544677734375
1768216531065798400,11.62079833984375,-0.9864044189453125,0.061981201171875,0.145355224609375
1768216531075798300,11.63079833984375,-0.985931396484375,0.06329345703125,0.1449737548828125
1768216531085799200,11.640799072265626,-0.988525390625,0.0609130859375,0.1435546875
1768216531095800300,11.65080029296875,-0.988037109375,0.05908203125,0.1437835693359375
1768216531105800400,11.660800537109376,-0.9892120361328125,0.0586395263671875,0.14202880859375
1768216531115801300,11.67080126953125,-0.9906463623046875,0.05902099609375,0.1424102783203125
1768216531125802200,11.68080224609375,-0.9906158447265625,0.057373046875,0.1421356201171875
1768216531135802400,11.69080224609375,-0.988739013671875,0.0584259033203125,0.1420440673828125
1768216531145803300,11.70080322265625,-0.9880218505859375,0.05859375,0.1422882080078125
1768216531155804400,11.710804443359375,-0.9877166748046875,0.0581512451171875,0.140716552734375
1768216531165804300,11.72080419921875,-0.987091064453125,0.059722900390625,0.1416473388671875
1768216531175805400,11.730805419921875,-0.98614501953125,0.05908203125,0.1411895751953125
1768216531185806300,11.740806396484375,-0.9866485595703125,0.0579986572265625,0.1414337158203125
1768216531195806200,11.75080615234375,-0.9877471923828125,0.0579376220703125,0.14105224609375
1768216531205807000,11.76080712890625,-0.9888916015625,0.0580596923828125,0.1413421630859375
1768216531215808500,11.77080859375,-0.9889373779296875,0.059600830078125,0.1421356201171875
1768216531225808400,11.780808349609375,-0.989105224609375,0.05792236328125,0.1435699462890625
1768216531235809300,11.790809326171875,-0.989288330078125,0.0576019287109375,0.1438446044921875
1768216531245809400,11.800809326171875,-0.9907989501953125,0.0585174560546875,0.143707275390625
1768216531255810300,11.810810302734374,-0.989898681640625,0.057830810546875,0.1441802978515625
1768216531265811200,11.820811279296874,-0.990203857421875,0.058380126953125,0.1449432373046875
1768216531275811000,11.83081103515625,-0.990692138671875,0.0587615966796875,0.143341064453125
1768216531285812500,11.8408125,-0.98760986328125,0.0578155517578125,0.1437835693359375
1768216531295813400,11.8508134765625,-0.987823486328125,0.058624267578125,0.143951416015625
1768216531305813200,11.860813232421876,-0.987091064453125,0.0576629638671875,0.1434783935546875
1768216531315814100,11.870814208984376,-0.98687744140625,0.05780029296875,0.142242431640625
1768216531325815300,11.880815185546876,-0.9852142333984375,0.056976318359375,0.1429595947265625
1768216531335815200,11.890815185546876,-0.987640380859375,0.0579833984375,0.1432647705078125
1768216531345816300,11.90081640625,-0.98919677734375,0.0588531494140625,0.14312744140625
1768216531355817200,11.910817138671876,-0.98883056640625,0.0592193603515625,0.1417236328125
1768216531365817300,11.9208173828125,-0.987884521484375,0.0592193603515625,0.1434173583984375
1768216531375818200,11.930818359375,-0.9893646240234375,0.0578765869140625,0.142730712890625
1768216531385819100,11.940819091796875,-0.98931884765625,0.0591278076171875,0.143218994140625
1768216531395819300,11.9508193359375,-0.9871368408203125,0.060577392578125,0.1417388916015625
1768216531405820200,11.960820068359375,-0.9861602783203125,0.059906005859375,0.1428375244140625
1768216531415821000,11.970821044921875,-0.986663818359375,0.0608367919921875,0.142730712890625
1768216531425821200,11.9808212890625,-0.9859466552734375,0.0582733154296875,0.142242431640625
1768216531435822000,11.990822021484375,-0.9864959716796875,0.059295654296875,0.1406707763671875
1768216531445823200,12.0008232421875,-0.9878082275390625,0.056976318359375,0.1399993896484375
1768216531455823000,12.010822998046875,-0.98980712890625,0.057342529296875,0.140350341796875
1768216531465824000,12.020823974609375,-0.9924468994140625,0.060089111328125,0.141387939453125
1768216531475825200,12.0308251953125,-0.99468994140625,0.061859130859375,0.1420745849609375
1768216531485825000,12.040824951171874,-0.9924774169921875,0.063507080078125,0.14306640625
1768216531495826000,12.050825927734374,-0.99078369140625,0.0642852783203125,0.1421661376953125
1768216531505826300,12.060826416015624,-0.9919891357421875,0.06317138671875,0.142120361328125
1768216531515827200,12.0708271484375,-0.99542236328125,0.06158447265625,0.1437530517578125
1768216531525828000,12.080828125,-0.996978759765625,0.0632476806640625,0.1427154541015625
1768216531535828200,12.090828125,-0.9940643310546875,0.0607452392578125,0.14471435546875
1768216531545829000,12.1008291015625,-0.987152099609375,0.0611572265625,0.1470947265625
1768216531555830000,12.110830078125,-0.981475830078125,0.0618438720703125,0.1478729248046875
1768216531565830100,12.120830078125,-0.977569580078125,0.060516357421875,0.1480255126953125
1768216531575831300,12.130831298828125,-0.979522705078125,0.0603485107421875,0.1474151611328125
1768216531585832200,12.140832275390625,-0.985443115234375,0.0580291748046875,0.145965576171875
1768216531595832000,12.15083203125,-0.98681640625,0.058197021484375,0.1442718505859375
1768216531605833000,12.1608330078125,-0.9881744384765625,0.058746337890625,0.1424407958984375
1768216531615834000,12.170834228515625,-0.9902496337890625,0.0578765869140625,0.1412811279296875
1768216531625834200,12.180834228515625,-0.988983154296875,0.0597381591796875,0.1407623291015625
1768216531635835100,12.190835205078125,-0.990936279296875,0.05938720703125,0.13922119140625
1768216531645836000,12.2008359375,-0.989105224609375,0.0592803955078125,0.13958740234375
1768216531655836200,12.210836181640625,-0.9892425537109375,0.0592498779296875,0.1401824951171875
1768216531665837000,12.220837158203125,-0.990325927734375,0.057891845703125,0.1401519775390625
1768216531675838200,12.230838134765625,-0.9888458251953125,0.0580596923828125,0.1416015625
1768216531685838300,12.24083837890625,-0.9871826171875,0.0563812255859375,0.1439666748046875
1768216531695839200,12.250839111328125,-0.9869384765625,0.056732177734375,0.1451416015625
1768216531705840000,12.260840087890625,-0.988037109375,0.05657958984375,0.1447601318359375
1768216531715840000,12.270840087890624,-0.989288330078125,0.0582733154296875,0.1460418701171875
1768216531725841200,12.280841064453124,-0.98968505859375,0.0607452392578125,0.1468505859375
1768216531735841000,12.290841064453126,-0.988677978515625,0.0594329833984375,0.1473846435546875
1768216531745842200,12.30084228515625,-0.990478515625,0.06085205078125,0.146881103515625
1768216531755843000,12.310843017578126,-0.9897308349609375,0.0615081787109375,0.1474456787109375
1768216531765843200,12.32084326171875,-0.9893341064453125,0.062713623046875,0.14691162109375
1768216531775844000,12.330843994140626,-0.9891357421875,0.0615692138671875,0.1456756591796875
1768216531785845000,12.340844970703126,-0.9887847900390625,0.0618896484375,0.1443939208984375
1768216531795845000,12.35084521484375,-0.9883575439453125,0.061309814453125,0.144500732421875
1768216531805846300,12.36084619140625,-0.990081787109375,0.062286376953125,0.1453704833984375
1768216531815847200,12.37084716796875,-0.991241455078125,0.0616455078125,0.144378662109375
1768216531825847000,12.380846923828125,-0.993255615234375,0.06195068359375,0.1451873779296875
1768216531835848200,12.39084814453125,-0.9942626953125,0.06072998046875,0.1470184326171875
1768216531845849000,12.40084912109375,-0.990875244140625,0.0634765625,0.1481781005859375
1768216531855849000,12.410848876953125,-0.9888763427734375,0.0618896484375,0.148956298828125
1768216531865850000,12.42085009765625,-0.9886474609375,0.06304931640625,0.1501007080078125
1768216531875851300,12.430851318359375,-0.9862213134765625,0.0651702880859375,0.1512603759765625
1768216531885851100,12.44085107421875,-0.9869232177734375,0.0657196044921875,0.151885986328125
1768216531895852000,12.45085205078125,-0.9843292236328125,0.06402587890625,0.1481475830078125
1768216531905853000,12.46085302734375,-0.9833221435546875,0.0664215087890625,0.147705078125
1768216531915853000,12.47085302734375,-0.9875030517578125,0.0631103515625,0.1468353271484375
1768216531925854200,12.480854248046874,-0.9846649169921875,0.06329345703125,0.1473541259765625
1768216531935855000,12.490855224609374,-0.989044189453125,0.0627899169921875,0.1480255126953125
1768216531945855200,12.500855224609374,-0.98834228515625,0.060882568359375,0.145599365234375
1768216531955856100,12.510856201171874,-0.9887542724609375,0.0622100830078125,0.1453704833984375
1768216531965857000,12.52085693359375,-0.9891510009765625,0.06292724609375,0.1468963623046875
1768216531975857000,12.53085693359375,-0.9881744384765625,0.062652587890625,0.14697265625
1768216531985858300,12.5408583984375,-0.9857025146484375,0.062957763671875,0.148468017578125
1768216531995859200,12.550859130859376,-0.985809326171875,0.0622711181640625,0.149444580078125
1768216532005859000,12.560859130859376,-0.9865264892578125,0.06365966796875,0.1497344970703125
1768216532015860000,12.57085986328125,-0.9854278564453125,0.0631256103515625,0.1506195068359375
1768216532025860000,12.580860107421875,-0.9847564697265625,0.0621795654296875,0.152313232421875
1768216532035861000,12.590861083984375,-0.9853363037109375,0.0641632080078125,0.150421142578125
1768216532045862100,12.600862060546875,-0.9886932373046875,0.0641021728515625,0.1533660888671875
1768216532055862300,12.6108623046875,-0.987091064453125,0.062835693359375,0.15240478515625
1768216532065863200,12.62086328125,-0.986968994140625,0.0641326904296875,0.153350830078125
1768216532075864000,12.630864013671875,-0.988861083984375,0.063812255859375,0.1528167724609375
1768216532085864200,12.6408642578125,-0.9877471923828125,0.0630645751953125,0.15081787109375
1768216532095865000,12.650864990234375,-0.9870452880859375,0.0630340576171875,0.1528472900390625
1768216532105866200,12.6608662109375,-0.985595703125,0.0620269775390625,0.1525726318359375
1768216532115866000,12.6708662109375,-0.9866485595703125,0.064239501953125,0.1515045166015625
1768216532125867000,12.680866943359375,-0.9866790771484375,0.0650482177734375,0.1534881591796875
1768216532135868200,12.6908681640625,-0.986602783203125,0.0638580322265625,0.15338134765625
1768216532145868000,12.700867919921874,-0.9857940673828125,0.062530517578125,0.1526947021484375
1768216532155869000,12.710868896484374,-0.98455810546875,0.0627899169921875,0.15325927734375
1768216532165870000,12.7208701171875,-0.9871826171875,0.064300537109375,0.153839111328125
1768216532175870200,12.7308701171875,-0.9885711669921875,0.0640106201171875,0.152587890625
1768216532185871000,12.74087109375,-0.9878692626953125,0.0640106201171875,0.1517791748046875
1768216532195872000,12.7508720703125,-0.9864044189453125,0.067718505859375,0.154632568359375
1768216532205872000,12.7608720703125,-0.9893951416015625,0.0691375732421875,0.15509033203125
1768216532215873000,12.770873046875,-0.9878082275390625,0.0689239501953125,0.1532440185546875
1768216532225874200,12.780874267578126,-0.9866790771484375,0.0683746337890625,0.15435791015625
1768216532235874300,12.790874267578126,-0.9864654541015625,0.0671234130859375,0.1556549072265625
1768216532245875200,12.800875244140625,-0.9855804443359375,0.063995361328125,0.1515045166015625
1768216532255876000,12.8108759765625,-0.98388671875,0.0641021728515625,0.150787353515625
1768216532265876000,12.8208759765625,-0.98260498046875,0.062469482421875,0.154205322265625
1768216532275877000,12.830877197265625,-0.9809417724609375,0.062469482421875,0.1533660888671875
1768216532285878300,12.840878173828125,-0.9805450439453125,0.0671234130859375,0.1552276611328125
1768216532295878100,12.850878173828125,-0.98248291015625,0.06671142578125,0.155792236328125
1768216532305879000,12.860879150390625,-0.9855194091796875,0.0685577392578125,0.153411865234375
1768216532315879200,12.870879150390625,-0.9868011474609375,0.06707763671875,0.1534271240234375
1768216532325880000,12.880880126953125,-0.9911651611328125,0.0660247802734375,0.156158447265625
1768216532335881200,12.890881103515625,-0.9930419921875,0.064697265625,0.15753173828125
1768216532345881300,12.90088134765625,-0.99102783203125,0.065032958984375,0.15997314453125
1768216532355882200,12.91088232421875,-0.9856414794921875,0.06707763671875,0.1595916748046875
1768216532365883100,12.920883056640625,-0.978851318359375,0.0676422119140625,0.1590423583984375
1768216532375883000,12.930883056640624,-0.9778289794921875,0.0658721923828125,0.1590423583984375
1768216532385884200,12.94088427734375,-0.9765777587890625,0.064544677734375,0.159912109375
1768216532395885600,12.950885498046874,-0.9797210693359375,0.0637969970703125,0.1562347412109375
1768216532405885400,12.960885498046874,-0.9840850830078125,0.0644378662109375,0.153289794921875
1768216532415886300,12.97088623046875,-0.9887237548828125,0.0645751953125,0.1539154052734375
1768216532425887500,12.980887451171874,-0.9897308349609375,0.06488037109375,0.15435791015625
1768216532435887600,12.9908876953125,-0.987335205078125,0.065582275390625,0.1541748046875
1768216532445888500,13.000888427734376,-0.9869842529296875,0.0660858154296875,0.152740478515625
1768216532455889400,13.010889404296876,-0.985321044921875,0.066680908203125,0.1529998779296875
1768216532465889500,13.0208896484375,-0.9862213134765625,0.0670318603515625,0.1540374755859375
1768216532475890400,13.030890380859375,-0.98504638671875,0.0639190673828125,0.1523284912109375
