time,seconds_elapsed,z,y,x
1768216519502551800,0.0575517578125,-0.03107785983085632,-0.14601254513040185,-0.027870003700256347
1768216519512552000,0.067552001953125,0.033331776237487794,-0.1060662278576754,0.015448913544416427
1768216519522553000,0.077552978515625,0.09845686709880828,-0.04079827619325369,0.055339025384187696
1768216519532554000,0.087553955078125,0.139844670150429,-0.006580200374219566,0.07026420731544494
1768216519542553900,0.097553955078125,0.0409468543510884,0.032994708036538214,0.07334288410842418
1768216519552554800,0.1075546875,-0.024527707535028455,0.0456427205497399,0.02767068173587322
1768216519562555000,0.117554931640625,-0.005720204277709126,0.029468671068549154,-0.00004208557605743408
1768216519572556000,0.12755615234375,0.040262963740155096,-0.011030969238001852,-0.009500234273076056
1768216519582557000,0.137556884765625,0.020094693523645398,-0.006090827688388526,-0.05137655149400234
1768216519592557000,0.14755712890625,-0.0012578911066055297,-0.0211194699941203,-0.07992284702062606
1768216519602558000,0.157557861328125,-0.013650924211740493,-0.026105989702418446,-0.045566988432407377
1768216519612558800,0.167558837890625,0.01169409105554223,0.0013318513919599354,-0.02333060670495033
1768216519622558700,0.177558837890625,0.02825578814744949,0.00023618337605148552,-0.008282090654969215
1768216519632560000,0.18756005859375,-0.012689824094623327,0.014685162630304694,-0.004033785560727119
1768216519642561000,0.19756103515625,0.016525456734746695,0.010503511297795922,0.017508184161782264
1768216519652561000,0.207560791015625,0.013426467806100845,-0.00833754716925323,0.017422843965888023
1768216519662561800,0.217561767578125,0.016758169512078164,-0.008069288154505192,0.01707622248530388
1768216519672563000,0.22756298828125,0.024446020600944755,-0.04302492100046947,0.0522626866787672
1768216519682562800,0.237562744140625,0.028427564517781136,-0.043100945378746834,0.05184066187441349
1768216519692564000,0.24756396484375,-0.029363895519822835,0.025256715929321945,0.020160744497179982
1768216519702564000,0.257564208984375,0.02274367366246879,0.05467449706085026,0.02391045241951942
1768216519712565000,0.26756494140625,0.027512276303768155,0.05358204391533509,0.023384382718801496
1768216519722566000,0.27756591796875,-0.03641439855322241,0.07443623230308294,0.10091068999171257
1768216519732565800,0.287565673828125,-0.030404490613937376,0.07344826244534924,0.10026537782549858
1768216519742567000,0.29756689453125,-0.013345803785324096,0.0005115662513300776,0.1011357309192419
1768216519752568000,0.307568115234375,-0.0212450326025486,-0.004810998744610696,0.0947352162271738
1768216519762568000,0.31756787109375,-0.016267098059505224,-0.00440292940037325,0.09424187975227832
1768216519772568800,0.32756884765625,-0.07729483660459519,0.02975779020823538,0.06866495542526245
1768216519782570000,0.337570068359375,-0.07343231595754623,0.030369784626737235,0.06829319950342178
1768216519792569900,0.34756982421875,-0.037558892413228746,0.07413810787303372,0.03534662319123745
1768216519802570800,0.35757080078125,-0.04736497776508331,0.07200010946365074,0.010597966381907463
1768216519812571000,0.36757080078125,-0.04354571173787117,0.07203589316308498,0.010219780719280242
1768216519822572000,0.377572021484375,-0.060389294511079786,0.05775284506026655,-0.022405308553576468
1768216519832573000,0.387572998046875,-0.05735562590360641,0.05776071783946827,-0.022704583761096
1768216519842572800,0.39757275390625,-0.00755903707742691,0.023830610382650046,-0.0054833998471498484
1768216519852574000,0.407573974609375,0.017834858832880853,-0.008784030561428516,0.02855214074552059
1768216519862574800,0.417574951171875,0.019418840088695287,-0.00942875820575282,0.028380291309952736
1768216519872574700,0.42757470703125,-0.0017183482252061367,0.001538224151637405,0.043917467659711835
1768216519882576000,0.437575927734375,0.04989946467876434,0.0040433753729797895,0.0380108739644289
1768216519892577000,0.447576904296875,-0.018723478235676883,0.019591493241861463,-0.008277999001741409
1768216519902577000,0.457576904296875,-0.01725508618354797,0.01924030518401414,-0.008429390171170234
1768216519912577800,0.467577880859375,-0.003318769159168005,0.024559710108488796,0.02613397368788719
1768216519922578000,0.477577880859375,0.006244008956104516,0.0035245939295738935,0.0328565599411726
1768216519932578800,0.487578857421875,-0.002776478976011276,0.018459256075229493,0.01789747574031353
1768216519942580000,0.497580078125,-0.05584390616640448,0.018797968243993816,-0.0008761983126401901
1768216519952580000,0.507580078125,-0.008259148170799016,0.05617357651218772,0.03195931884050369
1768216519962581000,0.5175810546875,-0.02158873147368431,0.06247211040081456,0.01856266165077686
1768216519972582000,0.527581787109375,-0.03551452710404992,0.030586697046738116,0.012432196071743964
1768216519982581800,0.537581787109375,0.04897241296172142,0.046788365187216546,0.04500701646208763
1768216519992583000,0.5475830078125,0.005493336719274521,0.02436800519498065,0.030317396852374074
1768216520002584000,0.557583984375,-0.039284401031583545,0.01874545260546729,0.007754851910471916
1768216520012584000,0.567583984375,-0.02365099776573479,0.020840488655958323,-0.0005716624081134796
1768216520022584800,0.577584716796875,0.00009819967746734619,0.008427618339192122,0.012207739666104316
1768216520032586000,0.5875859375,-0.0026667349912226196,0.020800631569605318,-0.030936405533552168
1768216520042585900,0.5975859375,-0.016097878972440957,0.013787866730708628,-0.015527239477634429
1768216520052586800,0.607586669921875,0.014417963061481713,0.016129790214356034,-0.011203531059622764
1768216520062587100,0.617587158203125,0.03706804015636444,0.02001766449837014,0.007958265528082847
1768216520072588000,0.627588134765625,0.015177841518074274,0.02052851836364716,0.01803893003761768
1768216520082589000,0.6375888671875,-0.014728636445850133,-0.00829063928760588,0.01187514671087265
1768216520092588800,0.6475888671875,-0.0274761090118438,-0.03019322248343378,-0.004725274956226349
1768216520102590000,0.65758984375,0.0014285714983940123,0.005981540361326187,0.007279051092267036
1768216520112591000,0.667591064453125,-0.027110125243663786,-0.02713403584221378,-0.024555180063843725
1768216520122591000,0.677591064453125,-0.030010303664579987,0.023678616425022482,0.027104864546656608
1768216520132591900,0.687591796875,-0.031891368170827626,0.02346358543485403,0.027280221113562583
1768216520142593000,0.697593017578125,-0.025496698697656393,-0.016302936557866632,0.07410977682769299
1768216520152593000,0.707593017578125,-0.08339841417670249,0.007044529950339347,0.04520516938269138
1768216520162593800,0.71759375,-0.08492167822122573,0.006798099174909293,0.045347208201885224
1768216520172595000,0.727594970703125,-0.03280570653676986,0.00039135567145422097,0.03635784606039524
1768216520182595000,0.737594970703125,-0.03259527865648269,0.0003333236075937748,0.025451836642622946
1768216520192596000,0.747595947265625,-0.01616203024983406,0.03849230080582201,0.0603448708474636
1768216520202595800,0.757595947265625,-0.01084185814037919,0.036745530203729865,0.03880173208117485
1768216520212597000,0.767596923828125,-0.05547361154928803,0.03747996369181201,-0.00953062941133976
1768216520222598000,0.777597900390625,-0.06917933468818664,0.02974096693759784,-0.0029138416200876235
1768216520232597800,0.78759765625,-0.03960471902713179,0.05078284165086224,0.05502630617320537
1768216520242599000,0.797598876953125,-0.01726546144708991,0.02433371933288872,0.028085692277550697
1768216520252600000,0.80760009765625,-0.05122282223701477,-0.000294818228110671,0.023583704683184624
1768216520262600000,0.817599853515625,-0.02000233906507492,0.003625679683871567,0.05754442647397518
1768216520272600800,0.827600830078125,-0.006046294426918029,-0.006172076231054961,0.021463059267401694
1768216520282601700,0.837601806640625,-0.0464252126969397,-0.005800137646123767,0.006497545325756073
1768216520292601900,0.847601806640625,0.0074302961312234395,-0.03074281919021159,0.004725274956226349
1768216520302603000,0.85760302734375,-0.010382423935085535,-0.006567505289427936,-0.012896890974044799
1768216520312604000,0.86760400390625,-0.017083236747980117,0.025572668277006595,-0.0007137012273073196
1768216520322604000,0.87760400390625,0.04057626747302711,0.02233909318326041,-0.006631985360383987
1768216520332605000,0.88760498046875,0.013792232378572225,0.0073193283037282526,0.018359832555055616
1768216520342604800,0.897604736328125,0.004704232168197631,-0.012138071963377297,0.032813889843225474
1768216520352605700,0.907605712890625,0.027892142466828227,-0.015928842548467218,0.030883798563480374
1768216520362607000,0.917607177734375,0.029020269713923335,0.004174052547942847,0.031094226443767546
1768216520372607000,0.92760693359375,0.03077157036066055,0.0045764776026830075,0.03092939127087593
1768216520382608100,0.937608154296875,0.044538229906558986,0.027993410884216426,0.05781038393378257
1768216520392609000,0.947609130859375,0.04422960234880447,0.017990122459828853,0.04077800059020519
1768216520402609200,0.957609130859375,0.06611293285489082,0.036672464967519046,0.08919687132239341
1768216520412610000,0.967610107421875,0.061386488854885096,-0.005359134146664292,0.08808511068820953
1768216520422611200,0.977611083984375,0.00220247848033905,-0.007905402829684317,0.04659457791447639
1768216520432611300,0.987611328125,0.039831586585566396,-0.0030524646394886074,0.05370587122440338
1768216520442612200,0.9976123046875,0.05200958870053291,-0.010962415780127048,0.03045651306211948
1768216520452613000,1.007613037109375,0.043364436886832114,-0.002431647593714297,0.020824761363863943
1768216520462613000,1.017613037109375,0.04152794217467308,0.014142360990494488,0.015834697991609574
1768216520472614100,1.0276142578125,0.02661328163743019,0.03153495594859123,0.01702478455901146
1768216520482614000,1.037614013671875,-0.038582901698723436,0.02465025620246306,0.0029997663378715515
1768216520492615200,1.047615234375,-0.02573079971447587,0.004662712847720831,0.004615969362854957
1768216520502616000,1.057615966796875,-0.054997518470138305,-0.005415887568891048,-0.022225860333442687
1768216520512616200,1.0676162109375,-0.05366963086724281,-0.008539773476775736,-0.03534545414745807
1768216520522617000,1.0776171875,-0.05128361251354217,-0.010230740504711866,-0.0542494765818119
1768216520532618000,1.087617919921875,-0.021639073421433567,0.033183271144889295,-0.01972644473314285
1768216520542618000,1.0976181640625,-0.0022844576753675936,0.02800937563832849,-0.016185411125421524
1768216520552619300,1.107619384765625,0.01775996696576476,0.027092881847918034,0.0024877251625061033
1768216520562620200,1.1176201171875,0.029065789356082675,0.032186789187137035,0.04015665382146835
1768216520572620000,1.1276201171875,0.025231398824974893,0.007389142136927694,0.006905541604757309
1768216520582621200,1.13762109375,0.055638300591707227,-0.011889357899315655,0.03186871794760227
1768216520592622000,1.1476220703125,0.009818944833427667,-0.024202220174018293,0.018234160348773003
1768216520602622000,1.1576220703125,0.09179346368685364,-0.036668135852273555,0.04211889380514622
1768216520612623000,1.167623046875,0.03914543095231056,-0.027449641130026427,0.044265258184075354
1768216520622623200,1.177623291015625,-0.005258431984856725,-0.02721155805783346,0.030259529185295102
1768216520632624000,1.1876240234375,-0.012179171158745884,-0.021283410117868332,0.032732056778669354
1768216520642625000,1.197625,-0.02886383704319596,0.008890011686552315,0.02082534588575363
1768216520652625200,1.207625244140625,0.020081834042072293,0.012921313029248267,0.011001871007680892
1768216520662626000,1.2176259765625,0.008288520395755767,0.011487992290500551,0.02435761166512966
1768216520672627200,1.227627197265625,0.008549363289028406,0.019273403736017644,0.005102291575074196
1768216520682627300,1.23762744140625,0.060853551021963354,0.012916490723658353,0.021140987706184385
1768216520692628200,1.247628173828125,0.016113076541572808,0.00018332067765295504,0.013341712132096289
1768216520702629000,1.257629150390625,0.012227175018936396,-0.0147125438275747,-0.013473814079165458
1768216520712629000,1.26762890625,0.022070304445549846,-0.012622640609927474,-0.00452478394806385
1768216520722630100,1.277630126953125,0.04697568618655205,-0.021193284149002282,0.009735212072730063
1768216520732631300,1.28763134765625,0.04865669807605445,-0.02111020897543058,0.009574468553066253
1768216520742631200,1.297631103515625,0.07591419590115547,0.00985925857750699,0.03747603643536567
1768216520752632000,1.307632080078125,0.025578824023157358,-0.012685842039249837,0.03394610874354839
1768216520762632200,1.317632080078125,0.008061725902557373,0.0043281653974205254,0.05077800107896328
1768216520772633000,1.327633056640625,0.0019816753365099428,0.009276362389326095,0.044697219860553736
1768216520782634000,1.337634033203125,0.004498407397791743,0.009613978579547256,0.04446516467034817
1768216520792634000,1.347634033203125,-0.05682729118056595,0.017747564141917974,0.002850713256001472
1768216520802635300,1.35763525390625,0.02295417460799217,0.026806393056735395,0.037104280513525004
1768216520812636200,1.36763623046875,0.03309562939405441,0.01914037020718679,0.037927871856093406
1768216520822636000,1.377635986328125,-0.03715221130847931,0.011635255274083465,0.008371522504091263
1768216520832637200,1.38763720703125,-0.027976240553706882,0.010387702898401767,0.0034013328760862348
1768216520842638000,1.39763818359375,-0.026345424481481312,0.01041479183472693,0.00324818814098835
1768216520852638000,1.407637939453125,-0.0016506898164749145,0.00044860228402540084,-0.005396306085586547
1768216520862639000,1.41763916015625,-0.01903553985953331,0.00917365093352273,0.025465865167975422
1768216520872640300,1.42764013671875,0.002574234402179718,0.0051688174726441495,0.02986146977841854
1768216520882640100,1.43764013671875,0.038744522001221776,0.012310049263108521,0.03997954368889332
1768216520892641000,1.44764111328125,-0.03334690074138343,0.008147705419268458,0.014423662149906157
1768216520902642000,1.457641845703125,-0.032957755293324585,0.0098556235820055,0.017934885141253472
1768216520912642000,1.46764208984375,0.020414938453957438,0.009257730754092336,0.04775543838739395
1768216520922643200,1.477643310546875,0.025122677753493187,0.008821914886403829,0.03489069611728191
1768216520932643000,1.48764306640625,0.01457213070988655,-0.004751012185681611,0.01021510454416275
1768216520942644200,1.497644287109375,0.004421250508353114,-0.00599958747467026,0.013523498439788818
1768216520952645000,1.50764501953125,0.015570421032235025,0.012158000506553798,0.026876316487789154
1768216520962645000,1.51764501953125,-0.02330035769715905,-0.007597615522146224,0.01616378381550312
1768216520972646100,1.527646240234375,-0.04965630357265472,0.005330492574069649,0.007062193471193313
1768216520982647300,1.537647216796875,0.009677271340414881,0.011172387002687901,0.03190729639232159
1768216520992647200,1.547647216796875,0.024125483409687874,0.017171444754395634,0.01964636523425579
1768216521002648000,1.55764794921875,0.001689268261194229,0.021362959893792867,-0.006492284628748893
1768216521012649000,1.56764892578125,0.009288052827119827,0.030162315888516603,-0.006558335602283478
1768216521022649000,1.577649169921875,-0.016429741275310515,0.012002718613296746,-0.01887245825231075
1768216521032650200,1.587650146484375,-0.005987842237949371,-0.005792100470140576,0.0002443301498889923
1768216521042651100,1.597651123046875,0.0057156742330640555,-0.004516253581736237,-0.015362404304742812
1768216521052651300,1.6076513671875,0.023712737890332937,-0.021604769293032584,-0.000008767828345298767
1768216521062652200,1.617652099609375,-0.01343231302499771,-0.0008331994211301208,0.026165537869930266
1768216521072652000,1.627652099609375,0.016337313751503824,-0.009835347978956997,0.01564355933368206
1768216521082653000,1.63765283203125,0.050879123365879055,-0.014361282704491168,0.050990767046809195
1768216521092654300,1.647654296875,0.03417107660584152,-0.04937229899950325,0.01636544386744499
1768216521102654200,1.657654296875,0.0037023616492748257,-0.02769855612348765,-0.007188450199365615
1768216521112655000,1.667655029296875,-0.0177636202275753,0.014796093925181775,0.06665244655907154
1768216521122656000,1.677656005859375,0.030765652076527473,0.010904255852103233,0.11589958480894565
1768216521132656000,1.68765625,0.032713352078199386,0.0104402550695464,0.11570318545401095
1768216521142657000,1.697656982421875,-0.006757073044776916,0.01085117395799607,0.07733575313687324
1768216521152658200,1.707658203125,0.035482962922006846,0.027210772606544194,0.08610533504784107
1768216521162658300,1.717658203125,0.1195136836528778,0.006504249061178416,0.042026539346575735
1768216521172659200,1.7276591796875,0.11361593085117637,-0.052445989090111104,0.007387772163748741
1768216521182660000,1.73766015625,0.032284386076405644,-0.0776507373701781,0.057412909048795695
1768216521192660000,1.747659912109375,-0.07452179169468581,-0.060931858688872305,0.029706571477651593
1768216521202661000,1.7576611328125,-0.02895604537129402,-0.04587959804553538,0.03810264390110969
1768216521212661000,1.767660888671875,-0.025937574332952497,-0.04555467694010585,0.03783084122240543
1768216521222662100,1.777662109375,-0.04232172290086746,0.009774849963374436,0.0011877484798431396
1768216521232663000,1.7876630859375,-0.04273673344254494,0.04941655826633796,-0.015738251879811285
1768216521242663200,1.7976630859375,-0.022147534400224683,0.06007337869601324,0.0005208090037107468
1768216521252664000,1.8076640625,-0.0042120647370815275,0.06196848999392241,0.02929506806731224
1768216521262665000,1.8176650390625,0.020481500884145496,0.04448765049679205,0.037217093238234515
1768216521272665000,1.8276650390625,0.029901728723570702,0.021173793997243045,-0.020160159975290297
1768216521282666200,1.837666259765625,0.008494272100925446,0.02491900840755552,0.00040448914766311644
1768216521292667100,1.847667236328125,0.002101940715312958,0.012910974298324435,0.06096855570375919
1768216521302667300,1.857667236328125,-0.025147300738096234,0.025409915463346987,0.03703764501810074
1768216521312668200,1.867668212890625,-0.020476897774264216,0.02528972314978018,0.03662438804209232
1768216521322669000,1.8776689453125,-0.0011105915904045104,0.019471465325076133,0.005533668729662895
1768216521332669000,1.8876689453125,0.017264365468546747,-0.004809847967140376,0.014109773895144461
1768216521342670000,1.897670166015625,-0.06715681588463485,-0.007311638187617063,-0.015128011026978493
1768216521352671200,1.907671142578125,-0.06328384690880776,0.008795026879478245,-0.04732990645170212
1768216521362671000,1.917671142578125,-0.03791325880885124,0.016018073468189686,-0.06797755768299102
1768216521372672000,1.927672119140625,-0.04541267465353012,0.0509209349473007,-0.03250818489491939
1768216521382673000,1.9376728515625,0.01244688218422234,0.042814785381127145,0.012924363502860069
1768216521392673800,1.947673828125,0.08742686597518623,0.030937464979477226,0.023736849418282507
1768216521402674700,1.9576748046875,0.01613631128668785,0.025578129903413353,0.04931961896419525
1768216521412674600,1.967674560546875,-0.029264599863812326,0.005027947697229683,0.050935821989178655
1768216521422676000,1.977676025390625,-0.026769860438629983,-0.004174984129704535,0.009760931035876273
1768216521432676900,1.9876767578125,0.001437850783392787,0.019179843701049686,0.032763036438822744
1768216521442676700,1.9976767578125,0.06671382135748863,0.003645060237776488,0.041275428718328476
1768216521452677600,2.007677734375,0.08354111058302223,-0.0017426972151733933,0.05886193881332874
1768216521462678800,2.0176787109375,0.008299114855006336,-0.03165710275722668,0.02120879224538803
1768216521472678700,2.0276787109375,-0.07429748141951859,0.005181676954217255,-0.007851882544159888
1768216521482679800,2.0376796875,-0.029949805648997425,0.02865746428351849,-0.005497428372502326
1768216521492680700,2.0476806640625,0.07008190955109894,0.04455887083578854,0.06013619653284549
1768216521502680800,2.057680908203125,0.04913140291571617,-0.0006772782070562243,0.05218319170176983
1768216521512681700,2.067681640625,-0.07304762748889625,-0.017714008932188153,-0.04776479073762893
1768216521522681600,2.077681640625,-0.06420381129793823,-0.007125961156096309,-0.09522913722395897
1768216521532682800,2.087682861328125,-0.040943347219750285,-0.015154095316305755,-0.102664840182662
1768216521542684000,2.097683837890625,0.006294204773381352,-0.0135723242838867,-0.03579904313385487
1768216521552683800,2.107683837890625,0.03612586393542588,-0.009649342153873294,-0.013732172754406928
1768216521562684700,2.1176845703125,0.040566988188028334,-0.011372896277159452,-0.014120879811048507
1768216521572685800,2.127685791015625,0.03933364700078964,0.008364837034977972,0.06569149257242679
1768216521582685700,2.137685791015625,0.06496851206012069,-0.0031968050136230884,0.08359481353163718
1768216521592686600,2.1476865234375,0.08249130926914512,-0.02719738340200856,0.161690445125103
1768216521602687700,2.157687744140625,0.03774959267973899,-0.054389633971173315,0.09954173972606659
1768216521612688000,2.16768798828125,0.022926117557287216,-0.02782406393298879,0.06254267315268516
1768216521622688800,2.177688720703125,0.02605681679844856,-0.05774670758042484,-0.007626257094740867
1768216521632689700,2.187689697265625,0.0429039067029953,-0.04103535461844876,0.05062953251898288
1768216521642689800,2.197689697265625,-0.12579853607602418,0.03822049812711775,0.12128478497862816
1768216521652690700,2.207690673828125,0.05051430864147841,0.014169157665874808,-0.046967502880096434
1768216521662690600,2.217690673828125,0.03358998878225684,0.006615381285455077,0.004686696511507034
1768216521672691700,2.227691650390625,-0.009549991698935627,0.03960172335244715,0.034686697977781296
1768216521682692900,2.23769287109375,0.07308152975849806,0.022547858829423784,-0.03537117311060428
1768216521692692700,2.247692626953125,0.08215798566155136,0.05355407819617539,-0.022028291934728623
1768216521702693600,2.257693603515625,0.10480360577702522,0.057927123914938414,-0.01362754333615303
1768216521712694500,2.267694580078125,0.07637589512877166,0.009981076592579484,-0.06361760890781878
1768216521722694700,2.277694580078125,0.06359598159790039,0.002793430110812187,-0.05281739795207977
1768216521732695800,2.28769580078125,0.06129654554910957,0.0027851920054294166,-0.05264145686328411
1768216521742696700,2.29769677734375,0.14764102311506866,-0.07592261666962877,-0.03275426861047744
1768216521752696800,2.30769677734375,0.23769115026593207,-0.0980133611150086,-0.001343231302499771
1768216521762697700,2.31769775390625,-0.026288287466764447,-0.05543682320285588,-0.04037760309576988
1768216521772698600,2.32769873046875,-0.03410568321943283,-0.05584447242198512,-0.03977145389616489
1768216521782698800,2.33769873046875,0.0899731163918972,-0.10414874033117666,-0.13011749525368213
1768216521792700000,2.347699951171875,0.2532171476345509,-0.0937776049750857,-0.19634207178950308
1768216521802699800,2.35769970703125,0.2581038967628032,0.0418521326277405,-0.045260698962211604
1768216521812700700,2.36770068359375,0.5874831506449729,-0.018137641171738505,0.003537526476383209
1768216521822701600,2.37770166015625,0.7729916206657886,-0.0535328710113652,-0.19062661675214768
1768216521832701700,2.38770166015625,0.7336942140221595,0.017442553313355893,-0.26285774022638797
1768216521842702600,2.39770263671875,0.7641173362713307,-0.0034061369153670965,-0.32276363513469697
1768216521852703700,2.407703857421875,0.9323813876330852,0.014748985114134847,-0.3781903388023376
1768216521862703900,2.417703857421875,1.1821370697021483,0.053897576137911525,-0.4385702809631824
1768216521872704800,2.427704833984375,1.6378244896829128,0.017727672131359576,-0.5481318949222564
1768216521882705700,2.43770556640625,2.0468881056547166,-0.038962457334529604,-0.7348848851114511
1768216521892705800,2.447705810546875,2.1069677496947348,-0.038009960648976264,-0.8763152170181274
1768216521902707000,2.45770703125,1.9236137542940674,-0.02010684061916545,-1.0018301869124173
1768216521912707800,2.467707763671875,1.7536628458239136,-0.0015990874934010207,-1.1801409274488688
1768216521922707700,2.477707763671875,1.6413889041662215,-0.017035287686716763,-1.3607640365809202
1768216521932708900,2.487708984375,1.5370844800829886,-0.013309819156490266,-1.5815654268443584
1768216521942708700,2.497708740234375,1.3538861136354505,0.06866848082290962,-1.785291763666272
1768216521952709600,2.507709716796875,1.1039878082253038,0.1647074913913384,-1.9404139363169668
1768216521962710800,2.517710693359375,0.9586367957435548,0.3081597210470587,-1.9607915384352206
1768216521972711000,2.5277109375,0.9474757886514067,0.4421474818628281,-1.9297996033221483
1768216521982711800,2.5377119140625,0.9993803095422684,0.5791163043159991,-1.8662614893913267
1768216521992712700,2.547712646484375,1.4011829946003853,0.6980934699393808,-1.5650567751139401
1768216522002712800,2.557712890625,1.5037304920136927,0.7840620268650352,-1.4929799654185771
1768216522012713700,2.567713623046875,1.6614976262152195,0.792706813352555,-1.3811889849722385
1768216522022715000,2.57771484375,1.755917785143852,0.8230570895612239,-1.1504694272845983
1768216522032714800,2.58771484375,1.3822224196732043,0.8327737430639565,-1.0463450359433888
1768216522042716000,2.5977158203125,0.724287064860016,0.8445499594449997,-0.9894675489455461
1768216522052716800,2.607716796875,0.44949367990717287,0.8199506479784846,-0.9136503836780786
1768216522062716700,2.617716552734375,0.3915490020692348,0.7550901994027197,-0.9359405414193868
1768216522072717600,2.627717529296875,0.25455606808811426,0.7203450492359698,-0.7648205891698598
1768216522082719000,2.637718994140625,0.20289207795485853,0.7297980103012174,-0.7537520826667546
1768216522092718800,2.64771875,-0.13510916606113313,0.6378299937650561,-0.9840227275431156
1768216522102719700,2.6577197265625,-0.1822590397708118,0.7184275251768529,-1.2982540966540574
1768216522112720000,2.667719970703125,-0.16177110914587975,0.6543972438149154,-1.6415724440395831
1768216522122720800,2.677720703125,-0.22526699137017128,0.6148577720437198,-1.8957699079483747
1768216522132721700,2.6877216796875,-0.5331532292380928,0.610806085500121,-2.2277520378053186
1768216522142721500,2.697721435546875,-0.7962403943061828,0.5965376504445448,-2.1216671600461003
1768216522152723000,2.707722900390625,-0.6600023703455925,0.668639119657129,-1.433302034047246
1768216522162723800,2.717723876953125,-0.3100438542932272,0.7252987991858273,-0.9015285687297582
1768216522172723700,2.7277236328125,-0.06825608236342669,0.6464430699400603,-0.7013479416906834
1768216522182724600,2.737724609375,-0.12862842573970557,0.6629042292669415,-0.6835498346716166
1768216522192725800,2.747725830078125,0.4583706677153706,0.5136468935290351,-0.4879010058432817
1768216522202725600,2.7577255859375,0.565788839904964,0.46302013748902826,-0.4166337589651346
1768216522212726800,2.767726806640625,0.2881152233406901,0.5260646226840093,-0.20776889021098613
1768216522222727700,2.777727783203125,-0.2843336589753628,0.4977428931608796,-0.16776187399327755
1768216522232727800,2.787727783203125,-0.6243672856017947,0.45489276247173543,0.010937573599815368
1768216522242728700,2.797728759765625,-0.5699678791552781,0.4911908046362921,0.27681846103966234
1768216522252728600,2.807728515625,-0.6055950728535652,0.49489513904694465,0.28858196406960485
1768216522262729700,2.817729736328125,0.03868015152812004,0.893200008584559,0.5882692595213651
1768216522272731000,2.82773095703125,0.0188376791998744,0.892634775917232,0.5947843405038118
1768216522282730800,2.837730712890625,0.7585796489536761,0.9051928633909672,0.9030775517374277
1768216522292731600,2.847731689453125,1.527419702897966,0.8240731347359717,1.0688947214037179
1768216522302732800,2.85773291015625,1.5203414350748061,0.7125055877819657,1.2778215494781733
1768216522312732700,2.867732666015625,0.9488388936981558,0.7187175941646099,1.326002519801259
1768216522322733600,2.877733642578125,0.011629939778149127,0.7285762134213,1.160695637744665
1768216522332734700,2.887734619140625,-0.7588973366007208,0.9700910136286168,1.1188035384327173
1768216522342734800,2.89773486328125,-0.8794052919879555,1.088657991015911,1.4542758484929799
1768216522352735700,2.90773583984375,-0.7558616221666336,0.9518251429673283,1.273250588300824
1768216522362736600,2.917736572265625,-0.5222641709551215,0.8089814371313899,0.8185060021281242
1768216522372736800,2.92773681640625,-0.11363456248641013,0.7292040629960597,0.5911071132957935
1768216522382737400,2.9377373046875,0.41336628160178657,0.6129142367605119,0.5646241800397634
1768216522392737300,2.9477373046875,0.7699436312720179,0.34699265198409557,0.46359190949499607
1768216522402738700,2.95773876953125,0.8366083527907728,0.23882826453708111,0.6719277859389782
1768216522412739600,2.967739501953125,0.7532160760939121,0.275649344195053,0.8299585395127534
1768216522422739500,2.977739501953125,0.4929571201890707,0.25011070605181157,0.5303203438997268
1768216522432740400,2.987740234375,0.33180034354925153,0.18841420139968393,0.30533553047180173
1768216522442741500,2.997741455078125,0.3142971278235316,0.14024528684057294,0.2412754384934902
1768216522452741400,3.007741455078125,0.07347790866494178,0.010419760270789264,0.1342670161485672
1768216522462742500,3.017742431640625,-0.3334492798000574,-0.04969093649461865,0.16407178730368613
1768216522472743400,3.027743408203125,-0.31766485069096084,-0.07461385389231145,0.34224633423984047
1768216522482743600,3.03774365234375,0.21183657804131506,0.0762256730031222,0.4179489332169294
1768216522492744400,3.047744384765625,0.5887766245216131,0.15348383085913955,0.42995851996242995
1768216522502745300,3.057745361328125,1.023214920246601,0.07704736464954912,0.5736497825384139
1768216522512745500,3.067745361328125,1.5897399654716253,-0.05391812573559582,0.5544277801960706
1768216522522746600,3.07774658203125,1.8045348087966442,-0.2981253068320453,0.5978197626769542
1768216522532747500,3.08774755859375,1.7957313246160744,-0.29115868268981576,0.6030564942866563
1768216522542747400,3.097747314453125,1.7273007624685763,-0.830301142405346,0.5492565150380134
1768216522552748500,3.10774853515625,1.3522238795116543,-0.8477098117154092,0.5657189895391463
1768216522562748400,3.11774853515625,0.9916413858532905,-0.7360244105353951,0.552355065575242
1768216522572749600,3.12774951171875,0.7146545825093984,-0.5235074490144849,0.44890345892906186
1768216522582750500,3.13775048828125,0.7776695493489504,-0.5302959401108325,0.4169645983546972
1768216522592750600,3.14775048828125,0.07163958732187747,-0.27927995578236875,0.08697685718536377
1768216522602751500,3.15775146484375,-0.39229046808630225,-0.2593959093347192,-0.027052257576584814
1768216522612752400,3.16775244140625,-0.2900464836642146,-0.2793962025731802,-0.07598609209358692
1768216522622752500,3.17775244140625,-1.157836741182208,-0.33585341833233834,0.5067641117453575
1768216522632753700,3.187753662109375,-1.3705582853645086,-0.2521121090020984,0.7441255916655063
1768216522642754600,3.197754638671875,-1.2834493262320756,-0.17158457408659158,0.9499690667718649
1768216522652754400,3.20775439453125,-1.2124027363672851,-0.07595781584717333,1.1435416738480328
1768216522662755600,3.217755615234375,-1.0642007183685898,-0.15899119610376655,1.2636188366025685
1768216522672756500,3.227756591796875,-0.8893748973384499,-0.4247279258325696,1.2572779431432486
1768216522682756400,3.23775634765625,-0.7035793540045618,-0.6860686856247484,1.3086761219471692
1768216522692757500,3.247757568359375,-0.7071180495247245,-0.8229447882931679,1.2821926041692495
1768216522702757600,3.257757568359375,-0.7182280570819973,-0.8644184429973364,1.1752414649695158
1768216522712758500,3.267758544921875,-0.5623220405772328,-0.9126266666535288,1.1258487807691098
1768216522722759400,3.277759521484375,-0.6178396373987197,-0.9458037637859582,0.851184867414832
1768216522732759600,3.287759521484375,-0.2687596577465534,-0.7603605410210788,0.5710539208263159
1768216522742760400,3.297760498046875,-0.3260875188603997,-0.6366928064286709,0.4613900155365467
1768216522752761600,3.30776171875,-0.8237979710564017,-0.16100310218175873,0.6537883181363344
1768216522762761500,3.317761474609375,-1.1595127115704118,0.2372198612260632,0.7355196758836507
1768216522772762600,3.3277626953125,-1.166636864361912,0.3069205346409231,0.6651064154863358
1768216522782763500,3.337763427734375,-0.7954080351352691,0.3523835877748206,0.6933616191118955
1768216522792763400,3.347763427734375,-0.40484336792826653,0.08282406662115827,0.742666040506959
1768216522802764300,3.357764404296875,0.18230521700009703,-0.3210485383125022,0.7742869211733341
1768216522812765700,3.367765625,0.6001613573670387,-0.5230671213684603,0.6152706636935472
1768216522822765600,3.377765625,0.36508882863428443,-0.4935600545182824,0.33386955103874205
1768216522832766500,3.387766357421875,-0.06764675482604653,-0.32723595824316143,0.17086276261806488
1768216522842766600,3.3977666015625,-0.42058220432996746,-0.13509458954650908,0.1853869625329971
1768216522852767500,3.407767578125,-0.7217682139068842,-0.008677556245960295,0.10907996792197226
1768216522862768400,3.417768310546875,-0.8611375216305256,0.12187822082713246,0.036090135034918785
1768216522872768500,3.4277685546875,-0.7003443176060915,0.10014690254498272,0.03900163856744766
1768216522882769700,3.437769775390625,-0.4872889383595437,0.007715798541717231,0.10506430253982543
1768216522892770600,3.4477705078125,-0.4012263464748859,-0.12044749390427023,0.24903379753530025
1768216522902770400,3.4577705078125,-0.2961035917460918,-0.30749314689710733,0.37319150760173797
1768216522912771600,3.467771484375,-0.3079723087161779,-0.4522953663896769,0.6083160222500562
1768216522922772500,3.4777724609375,-0.4037834836117923,-0.4302756961528212,0.716246235615015
1768216522932772400,3.4877724609375,-1.0898251350991428,-0.2891307570587843,0.24244039061963557
1768216522942773500,3.4977734375,-0.8987145342223346,-0.20786270597428083,-0.15308745195269582
1768216522952774400,3.5077744140625,-0.3834801157735288,-0.11233502419516443,-0.3757862002700567
1768216522962774500,3.5177744140625,-0.2232667574636638,-0.15931385218687355,-0.3367085738569498
1768216522972775400,3.527775390625,0.717413818089664,0.25428952610641714,-0.3858960908740759
1768216522982775600,3.537775634765625,1.2824015707448124,0.4134608280174434,-0.2216162137776613
1768216522992776400,3.5477763671875,1.3790876287788152,0.6886034647993743,-0.051659460088610644
1768216523002777600,3.557777587890625,0.6567310935899615,0.9864430134925991,0.06737666918039321
1768216523012777500,3.567777587890625,-0.17322598461806774,0.9550577682130038,0.06955459774136542
1768216523022778600,3.577778564453125,-0.5133537192687392,0.6850531519066542,0.06760171010792256
1768216523032779500,3.587779541015625,-0.6534373127415776,0.2853789302445948,0.12185761643052101
1768216523042779400,3.597779296875,-0.49618309649825093,-0.1294726214788854,0.2835077295452356
1768216523052780300,3.6077802734375,-0.11587912654280662,-0.41711482048034665,0.4522521848350763
1768216523062781700,3.61778173828125,0.30263708516806365,-0.7776816781781614,0.3495312305510044
1768216523072781600,3.627781494140625,0.6740227123916148,-1.1145996570020913,0.2079009921580553
1768216523082782500,3.637782470703125,0.8214970006376504,-1.1740713982768356,0.2828326067626476
1768216523092783400,3.647783447265625,0.9608432197466492,-1.2733885354667902,-0.3898731778115034
1768216523102783500,3.657783447265625,0.6236220201924443,-1.017671899166703,-0.6060223583549261
1768216523112784400,3.667784423828125,0.25364742881059643,-1.104846324750781,-0.6007108079433441
1768216523122785500,3.67778564453125,0.10750029751509427,-1.2356675843596459,-0.42933600414991374
1768216523132785700,3.68778564453125,0.2538672090411186,-1.2921220236398279,-0.3365437386840582
1768216523142786600,3.69778662109375,0.4551292015761137,-1.2702055215165018,-0.16531155823171137
1768216523152786400,3.707786376953125,1.0564204397559165,-1.7882111582443116,0.02563946816921234
1768216523162787300,3.717787353515625,0.914121508321166,-2.295099334760755,0.2529845809876919
1768216523172788500,3.72778857421875,0.4711088609963655,-2.3628800546973943,0.06917582755684852
1768216523182788600,3.73778857421875,0.5994400573551655,-2.422964667173475,0.1709708991676569
1768216523192789500,3.74778955078125,0.27659634272158146,-1.95320692852512,0.052152796563506125
1768216523202790400,3.757790283203125,-0.013189151918888092,-1.4081081176884471,0.18485270952582358
1768216523212790500,3.76779052734375,0.6693237409204245,-0.8926895748443902,0.07908347358703613
1768216523222791400,3.77779150390625,0.8359528114914894,-0.8153961995445191,-0.07450023745000361
1768216523232792300,3.787792236328125,0.931555458202958,-0.6227808931931853,-0.08847031061351299
1768216523242792700,3.797792724609375,1.338186294069886,-0.2937251721769571,0.014637012639641761
1768216523252793600,3.807793701171875,1.8458143291682003,-0.18499080282226205,-0.01300093587040901
1768216523262794500,3.81779443359375,2.4472592966049906,0.18232874400615692,0.37396249197423453
1768216523272794400,3.82779443359375,3.070051587975025,0.7409042915314435,0.8335071719050406
1768216523282795500,3.83779541015625,3.433500284719467,1.1310694380268453,1.03325057657063
1768216523292795400,3.84779541015625,2.556976977908611,1.1041647722274064,0.7942179485678672
1768216523302796500,3.857796630859375,1.4636404736876487,1.2509428949028252,0.6300023688793182
1768216523312797400,3.86779736328125,0.6172597916841507,1.3307330554544925,0.5642997703909873
1768216523322797600,3.877797607421875,-0.08954290828108787,1.0787152736723422,0.1664309176504612
1768216523332798500,3.887798583984375,-0.3576356265515089,0.8974065203636884,-0.1689145511597395
1768216523342799400,3.89779931640625,-0.3888824132084846,0.5957508474484086,-0.5584358467936515
1768216523352799500,3.907799560546875,-0.2546434541106224,0.21694763744473455,-0.4295265582859516
1768216523362800600,3.917800537109375,-0.35841245614290235,-0.13398060042262078,-0.006930676046013832
1768216523372801500,3.927801513671875,-0.5272188707530499,-0.5566191527605057,0.5124000718057156
1768216523382801400,3.937801513671875,-0.871342104780674,-0.6421697765350342,0.943196796157956
1768216523392802600,3.947802490234375,-1.36553899589777,-0.6275961845204234,1.0313830291330814
1768216523402803500,3.957803466796875,-1.4255764082312583,-0.20705548124462364,0.7558072616308927
1768216523412803600,3.967803466796875,-0.8218886303037405,0.7468795665487646,0.05486439360976219
1768216523422804500,3.977804443359375,-0.6292717165172099,0.7376461665183305,0.19952537800073622
1768216523432805600,3.9878056640625,-0.8058902661830186,0.5288163690775632,0.46103316492289304
1768216523442805500,3.997805419921875,-1.0627087262451649,0.2904585715964436,0.6191904674857854
1768216523452806400,4.007806396484375,-1.0858552085548638,0.15634499244391917,0.7586717111513018
1768216523462806500,4.017806640625,-0.9259113148361444,-0.09789426477998495,0.7661363479435443
1768216523472807700,4.0278076171875,-0.9339391384690999,-0.4916355161964893,0.41168519664704795
1768216523482808600,4.03780859375,-0.8861386918962001,-0.5435188481688499,0.5491428255304693
1768216523492808700,4.04780859375,-1.2687363257467745,-0.24970073701143264,0.0717538613513112
1768216523502809600,4.0578095703125,-1.7260095536142586,-0.2399354220613837,-0.3816702898725867
1768216523512810500,4.067810546875,-1.6025988625228405,0.22256284697800874,-0.6556035508647561
1768216523522810400,4.077810302734375,-1.2636655983537435,0.621117928417027,-0.6292205708518624
1768216523532811500,4.0878115234375,-1.3243717037290335,0.9329963046610354,-0.5559589352861046
1768216523542812700,4.097812744140625,-1.7079887437552213,1.322250181530416,-0.6746300306349993
1768216523552812500,4.1078125,-2.2651988481462,1.7682506124943493,-0.5195584191277622
1768216523562813400,4.1178134765625,-2.3419115009486675,2.2752894495278597,-0.13994827665537596
1768216523572814600,4.127814697265625,-2.09636028483212,2.406448562788963,-0.20720044267326593
1768216523582814500,4.137814453125,-2.044561708533764,2.4353689523249864,-0.07718611553311347
1768216523592815600,4.147815673828125,-0.7775608282774686,2.231283134540915,-0.3008328122250736
1768216523602815700,4.157815673828125,-0.3729711428493261,1.8959847197428346,-0.6442952442564069
1768216523612816600,4.167816650390625,-0.3380284242838621,1.6631129524573682,-1.1142203022956847
1768216523622817500,4.177817626953125,-0.30472061344385143,1.5914876859217881,-1.1873837381839751
1768216523632817400,4.1878173828125,-0.6595119564801454,1.7945123042151332,-0.867594296554476
1768216523642818600,4.197818603515625,-0.6111795949876309,1.8566519495248794,-0.750059804020077
1768216523652819700,4.20781982421875,-0.9828349790632724,2.0917107054606077,0.28062326015010475
1768216523662819600,4.217819580078125,0.027843700215220448,1.7827657523199916,1.4120885656267403
1768216523672820500,4.227820556640625,0.06932780324816704,1.863825494416058,1.4852509786017238
1768216523682821600,4.237821533203125,0.9714058225542306,1.874045567396283,0.5180053444668651
1768216523692821500,4.247821533203125,1.1388485475957393,1.5905135801926253,-0.9718376381002366
1768216523702822400,4.257822509765625,1.0437743086725473,1.4326228196114301,-1.957396343038976
1768216523712823600,4.267823486328125,1.0140519551038742,1.375561208218336,-2.703030293440819
1768216523722823700,4.27782373046875,0.5979039338290691,1.322068979744613,-2.868442973959446
1768216523732824600,4.287824462890625,-0.16673136190176008,1.4247156997486947,-1.5828589737862349
1768216523742824400,4.297824462890625,-0.20796412052214144,1.327225631855428,0.15398907696753739
1768216523752825600,4.30782568359375,0.9207318663716315,0.8686620719164609,1.344555536840856
1768216523762826500,4.317826416015625,2.5106647240668534,0.20536080615594982,1.6900224405623971
1768216523772826400,4.327826416015625,3.1676427781552072,-0.29490926739498974,1.0378134275067596
1768216523782827500,4.33782763671875,3.019558249056339,-0.5132575654178857,-0.07353855281099676
1768216523792828700,4.34782861328125,2.3470114544361826,-0.441849741025269,-1.173209228489548
1768216523802828500,4.35782861328125,1.5177058258742093,-0.1823212913520634,-2.0836808360010384
1768216523812829400,4.367829345703125,0.918535817632079,-0.17650909794196484,-2.6180381803318857
1768216523822830300,4.377830322265625,0.32636662806272504,-0.08623261468932032,-2.728883696621656
1768216523832830500,4.38783056640625,0.03588672141730785,0.12433365115523337,-2.630458101443946
1768216523842831600,4.39783154296875,-0.1940887399047613,0.19560951973125337,-2.4534853315129874
1768216523852832500,4.40783251953125,-0.36820319779515265,-0.17373568770587444,-2.1725411688454446
1768216523862832600,4.41783251953125,-0.22799802376925943,-0.4468095553897321,-2.1001745824232696
1768216523872833500,4.42783349609375,-0.1904120972186327,-0.6342198404438794,-1.957077778609097
1768216523882833400,4.43783349609375,0.12885668153762816,-0.6834973738320171,-0.9662370416142045
1768216523892834300,4.447834228515625,0.13222528118789195,-0.6379566888846456,-1.0088705338779835
1768216523902835700,4.457835693359375,-0.44386663380563257,-0.4434947317533195,-0.8309216123912483
1768216523912835600,4.467835693359375,-0.6911515418469906,-0.41029096580967306,-0.7234402387723327
1768216523922836500,4.47783642578125,-0.6210977624118328,-0.4626815166518092,-0.5930233221806586
1768216523932837400,4.48783740234375,-0.6181313138216734,-0.41872298632934685,-0.6229729816991836
1768216523942837500,4.49783740234375,0.06252455297410488,-0.5627016875445843,-0.48108277719579634
1768216523952838400,4.50783837890625,0.15135434454977512,-0.46834597215428947,-0.3301961962882429
1768216523962839600,4.517839599609375,0.012363222488760947,-0.2823005457125604,-0.22457089886479079
1768216523972839700,4.527839599609375,-0.35016835941076274,-0.4096531062975526,-0.2833717551406473
1768216523982840600,4.537840576171875,-0.6165004977494478,-0.45075310538373886,-0.10090535622946917
1768216523992840400,4.54784033203125,-0.30239713893234726,-0.4924227210514247,0.05098302213177085
1768216524002841600,4.557841552734375,0.25023499001860616,-0.607906272405386,0.03073328417688608
1768216524012842800,4.5678427734375,0.731798609533906,-0.6096254974134266,0.15941913919225334
1768216524022842600,4.577842529296875,1.1180401528447865,-0.37475093893818556,0.013282967682182787
1768216524032843500,4.587843505859375,1.2447826187074185,-0.3248009861811995,-0.2530707979664206
1768216524042844400,4.597844482421875,1.455765794789791,-0.3697551034122705,0.23396365417540071
1768216524052844500,4.607844482421875,0.9351134429454803,-0.41134522410295904,-0.2075054169692099
1768216524062845400,4.617845458984375,-0.10597557216584681,-0.1944168028153479,-0.366665247638151
1768216524072846600,4.6278466796875,-0.6417126804172992,-0.043936172360181804,0.04204444032944739
1768216524082846700,4.6378466796875,-1.1342232258826495,0.16271949591189622,-0.4645019370120018
1768216524092847600,4.64784765625,-1.0388836140215396,0.20293504031375048,-0.6212626706499605
1768216524102848500,4.6578486328125,-0.5641957254946232,-0.505283079407364,-0.9580410948727279
1768216524112848600,4.6678486328125,-0.5715630393922329,-0.8055543122269213,-1.286609836089611
1768216524122849500,4.677849609375,-0.5811147115916013,-0.8701682386957108,-1.2757286688521503
1768216524132850700,4.6878505859375,-0.33687048642039297,-0.6277409998185932,-0.7647985965337604
1768216524142850600,4.6978505859375,-0.1491635565072298,-0.9536294889755547,-1.1597686590928584
1768216524152851500,4.7078515625,0.08600479728281497,-1.0214688072316347,-1.1925810876313596
1768216524162851600,4.7178515625,0.3888040872752666,-1.2212339853376148,-0.7667636129964143
1768216524172852500,4.7278525390625,0.1817845541268587,-1.5222738644421099,-0.5192573903545737
1768216524182853400,4.737853271484375,-0.10502513957321644,-1.5882356983885169,-0.011007058639451861
1768216524192853500,4.747853515625,-0.7418003635883331,-1.4168648401178419,0.5780623382836579
1768216524202854700,4.757854736328125,-1.2667559655845164,-1.0192242431752383,0.8811786583360284
1768216524212855600,4.76785546875,-1.0433405934303999,-0.8624313608333468,0.9289845117364078
1768216524222855700,4.777855712890625,-0.6528641890287399,-0.9334452174723148,0.6270782250609248
1768216524232856600,4.787856689453125,-0.35508886467814443,-0.8496176180981099,0.32248226091004906
1768216524242857500,4.797857421875,-0.0065998366564512245,-0.7506745749175548,0.2736073169734329
1768216524252857300,4.807857421875,0.3468915296971798,-0.735971365173906,0.2743962753940373
1768216524262858800,4.817858642578125,0.4814847090601921,-0.7080353105001151,0.30945297572799024
1768216524272859600,4.827859619140625,0.4455021260529756,-0.6418560344107449,0.3534860325913876
1768216524282859500,4.837859619140625,0.18498539599478245,-0.5012682908080518,0.4465362183410674
1768216524292860400,4.8478603515625,-0.10553718074858189,-0.25478973071351646,0.9051330229625105
1768216524302860500,4.857860595703125,-0.5233703786313534,-0.1250245560288429,1.1654492620125412
1768216524312861400,4.867861328125,-0.5935521683603525,0.027992607166618107,1.2559431874081493
1768216524322862600,4.877862548828125,-0.26012276230454445,0.045492315760999914,1.3394704886615276
1768216524332862700,4.88786279296875,0.010268296036124228,0.06333923035785556,1.126927150590345
1768216524342863600,4.897863525390625,0.493377975949645,0.26019904241114855,0.8074821384843438
1768216524352864500,4.907864501953125,0.8834335245907307,0.4533838192135095,0.5509653647825121
1768216524362864400,4.917864501953125,0.9410533543884754,0.7037528108753264,0.49368039296232163
1768216524372865500,4.927865478515625,0.9392600412309169,0.7084604040443897,0.46754788057915864
1768216524382866200,4.9378662109375,0.9319768984854221,0.9207412187218665,0.43626901828348635
1768216524392866000,4.947865966796875,0.8939572566926479,0.9955844243906438,0.3481969132073223
1768216524402867200,4.9578671875,0.891260272693634,0.9963191684059798,0.3224798497572541
1768216524412868000,4.9678681640625,0.3059165452301502,1.1772788160160184,0.17307532410100102
1768216524422868000,4.977867919921875,-0.1146948851943016,1.1706614437028764,0.08214176517911255
1768216524432869000,4.987869140625,-0.401854707506299,1.1800479884684085,0.14384374972395597
1768216524442869200,4.997869140625,-0.28156010260879993,0.982753730520606,0.3032826165299862
1768216524452870100,5.0078701171875,-0.15111819770634174,0.7774469926394522,0.19467450390346347
1768216524462871000,5.01787109375,-0.05003565827906131,0.5739546107038855,0.12565941986627877
1768216524472871200,5.02787109375,-0.11185293976664543,0.5861535825416445,0.16110614243112503
1768216524482872000,5.0378720703125,-0.25365970377027985,0.4399646579310298,0.04224821927323937
1768216524492873200,5.047873291015625,-0.36779637055993075,0.28919965757653116,-0.04655665705688297
1768216524502873000,5.057873046875,-0.31086043137311936,0.20024930836111307,0.027492402559518812
1768216524512874200,5.067874267578125,-0.3524813125282526,0.07883096013069152,0.24719759508408604
1768216524522875100,5.077875244140625,-0.5526438193887472,0.01811579466611147,0.36746845377981663
1768216524532875000,5.087875,-0.7560936773568392,0.02083352919220924,0.4258819181732833
1768216524542876000,5.0978759765625,-0.7784931406915188,-0.27130919609889387,0.40845293672755356
1768216524552877300,5.107877197265625,-0.5792722985953093,-0.42421646917909384,0.4401398683674633
1768216524562877200,5.117877197265625,-0.37513153575360775,-0.4492188084885478,0.28930750186517834
1768216524572878000,5.127878173828125,-0.19354688811302184,-0.534756134390086,0.10203487171605229
1768216524582878200,5.137878173828125,-0.01779459988772869,-0.49999666343703864,-0.08756086761839688
1768216524592879000,5.147879150390625,-0.014290391159057616,-0.4756377365976572,-0.09033829644247889
1768216524602880300,5.15788037109375,0.17900690610706804,-0.46048853665217754,-0.13145305470637977
1768216524612880100,5.167880126953125,0.14858955601155757,-0.43667613777965303,-0.2592982941791415
1768216524622881300,5.17788134765625,0.06670096187591552,-0.46994741600155826,-0.3069258684031665
1768216524632882200,5.187882080078125,-0.14574001179933546,-0.4095994764141738,-0.2916729158222675
1768216524642882000,5.197882080078125,-0.18456044858098028,-0.37454102251455185,-0.14990516865476966
1768216524652883000,5.207883056640625,-0.15353578024208545,-0.3678878482356667,-0.0405059787157923
1768216524662884400,5.21788427734375,-0.09404781848490237,-0.34064065260887144,0.08990048954710364
1768216524672884200,5.22788427734375,0.029124387675523757,-0.2589808987930417,-0.043780397276580334
1768216524682885000,5.237885009765625,0.2717132468551397,-0.21660846861824393,-0.3323024478524923
1768216524692886000,5.247885986328125,0.5170587112665176,-0.18389292458295822,-0.5334634642310441
1768216524702886100,5.25788623046875,0.703599520009756,-0.1466549346871674,-0.5725086496792733
1768216524712887000,5.267886962890625,0.8253326332777738,-0.11457096655368804,-0.560637448491156
1768216524722887000,5.277886962890625,0.8004758399188519,-0.12318798825144767,-0.5767812124319375
1768216524732888300,5.287888427734375,0.7605074021458625,-0.22408099645599722,-0.6404530357450247
1768216524742889200,5.29788916015625,0.7067541846483946,-0.2965625875599682,-0.6702047615386545
1768216524752889000,5.30788916015625,0.48177404739558694,-0.3261807501018047,-0.6760606479600072
1768216524762890000,5.317889892578125,0.1973001031666994,-0.3461734445556998,-0.6310854879409075
1768216524772891100,5.32789111328125,-0.11394728169739246,-0.30610096188634633,-0.5918627539686858
1768216524782891000,5.33789111328125,-0.30223464184701443,-0.27207331233918663,-0.5749482979163527
1768216524792892200,5.34789208984375,-0.3771019590437412,-0.26496947168335316,-0.5886858774982392
1768216524802893000,5.35789306640625,-0.40679800912737846,-0.18155001471862195,-0.4392861741475761
1768216524812893200,5.36789306640625,-0.5742004021584988,-0.05802782607674598,-0.0833566208615899
1768216524822894000,5.37789404296875,-0.5010340436607599,-0.015694558868557213,0.07046352927982807
1768216524832895000,5.38789501953125,-0.5138444253951311,0.018204349732398987,0.0993251743659377
1768216524842895000,5.39789501953125,-0.3728460551649332,0.040874300571531054,0.06448635456636548
1768216524852896300,5.407896240234375,-0.08907879790067673,0.13294292793795465,0.19119652559459208
1768216524862896000,5.417896240234375,-0.07766191635131836,0.18845263371393084,0.3154879450432956
1768216524872897000,5.42789697265625,-0.07935586078763007,0.19384791688621042,0.30041897072717544
1768216524882898200,5.437898193359375,-0.041375966483354565,0.28100217646509407,0.3209149385280907
1768216524892898000,5.44789794921875,-0.04266892890334129,0.28726810499206185,0.30794045227319
1768216524902899000,5.45789892578125,0.37398061215281486,0.3015973668567836,0.4791746785521507
1768216524912900000,5.467900146484375,0.47795595041215416,0.2955133707679808,0.3761616094537079
1768216524922900200,5.477900146484375,0.38213586155772206,0.3628345103688538,0.2853527728900313
1768216524932901000,5.487901123046875,0.27811142345964907,0.3865322698857635,0.18717866825535892
1768216524942902000,5.497902099609375,0.1433341197013855,0.45117695681899783,0.0909175576351583
1768216524952902100,5.507902099609375,0.10646423246562481,0.4936647570017725,-0.002088935103267431
1768216524962903000,5.517903076171875,0.15259469999969005,0.43147038583010433,-0.091029055185616
1768216524972904200,5.527904296875,0.16028876163363456,0.41013438700847327,-0.1321222592048347
1768216524982904300,5.537904296875,0.12532032410502433,0.414357265400514,-0.139925772562623
1768216524992905200,5.5479052734375,0.07202361820340156,0.39796332609094676,-0.14384148470163344
1768216525002906000,5.557906005859375,0.001979191118478775,0.35208274166472253,-0.10198810996487737
1768216525012906000,5.567906005859375,-0.03970715648829937,0.26684549468830226,-0.10592603393569588
1768216525022907100,5.5779072265625,-0.10587035822570323,0.23337124124020336,-0.10744885958880185
1768216525032907000,5.587906982421875,-0.16041092670857907,0.16758154899030922,-0.07623612133190036
1768216525042908200,5.597908203125,-0.24148294376432894,0.12010543900094926,-0.05368117517456412
1768216525052909000,5.607908935546875,-0.3003606646686792,0.11558540429323912,0.053379854140430685
1768216525062909200,5.6179091796875,-0.2975070288032293,0.12880195567570626,0.06341419529020786
1768216525072910000,5.62791015625,-0.3330886297941208,0.10054894400723279,0.16258257165923715
1768216525082911000,5.637910888671875,-0.3075894468784332,0.06004618016183376,0.18856836904808877
1768216525092911000,5.6479111328125,-0.17728548914194106,0.07364595870822668,0.2442478784330189
1768216525102912300,5.657912353515625,-0.08068740165233612,0.050467766086012125,0.28038974365517494
1768216525112913200,5.6679130859375,-0.015977321332693098,0.018508812571689487,0.21928324078544972
1768216525122913000,5.6779130859375,0.038655017086863516,0.010606076623126863,0.2046767694145441
1768216525132914200,5.6879140625,0.046799160575866694,-0.02009213624037802,0.127540338242054
1768216525142914000,5.6979140625,0.06454466062486171,-0.11370543576553463,0.06967106372788548
1768216525152915200,5.707915283203125,0.12648878336250782,-0.18422317945063113,0.06661050711348653
1768216525162916000,5.717916015625,0.3142015584945679,-0.23428462975807487,0.017041151171922682
1768216525172916200,5.727916259765625,0.279038475176692,-0.3622445085864514,-0.1106483862824738
1768216525182917000,5.737917236328125,0.2942857286691665,-0.37612558829225595,-0.08853241606429219
1768216525192918000,5.74791796875,0.48007834939360616,-0.35089112072736023,-0.022124299655109644
1768216525202918100,5.757918212890625,0.6127934599250555,-0.45114524650648236,-0.03951557943895459
1768216525212919300,5.767919189453125,0.5803653545290232,-0.4392379510916769,-0.08077785641476512
1768216525222920200,5.777920166015625,0.41317981911897655,-0.38499132405407727,-0.15508227903172372
1768216525232920000,5.787920166015625,0.34540333696603776,-0.3746082425318658,-0.17244579402580856
1768216525242921200,5.797921142578125,0.29493162535727024,-0.3605441344093531,-0.19398980957493184
1768216525252922000,5.807922119140625,0.21796236744523048,-0.2893065520171076,-0.18837576908543704
1768216525262922000,5.817921875,0.12107084996700286,-0.25117270926013585,-0.16068185260444878
1768216525272923100,5.827923095703125,-0.012197802793979645,-0.16688151096217332,-0.1385544842094183
1768216525282924300,5.83792431640625,-0.25095862811803815,-0.05625212164111435,-0.13033581417948006
1768216525292924200,5.847924072265625,-0.2890811457633972,0.013819558776915073,-0.04166676612347364
1768216525302925000,5.857925048828125,-0.34587329256534577,0.07519808352105319,0.07722031006366015
1768216525312925200,5.86792529296875,-0.35454292123317716,0.1267135320290923,0.21768092015534637
1768216525322926000,5.877926025390625,-0.361473597279191,0.1364422412957996,0.27941899892687794
1768216525332927200,5.88792724609375,-0.3615753040879965,0.13845811116285622,0.2776519892543554
1768216525342927000,5.897927001953125,-0.3988923505693674,0.1472491011880338,0.2842386741682887
1768216525352928300,5.90792822265625,-0.3950608095824718,0.15106142601780592,0.2385012976050377
1768216525362929200,5.91792919921875,-0.3336579541146755,0.1602101434394717,0.19495047130063176
1768216525372929000,5.927928955078125,-0.33305881917774677,0.1656114910263568,0.1959504421234131
1768216525382930000,5.937929931640625,-0.1286982761055231,0.1622697793830186,0.20197145597860217
1768216525392931600,5.947931640625,0.2032125420808792,0.11910612576529384,0.16021730383262037
1768216525402931500,5.957931396484375,0.20419979955255985,0.12073650344610214,0.165816731274873
1768216525412932400,5.967932373046875,0.20238778169453142,0.15746522864550352,0.006448591617494821
1768216525422933200,5.977933349609375,0.15328677391707896,0.17233225064873695,-0.08906272354871034
1768216525432933400,5.987933349609375,0.1585007091730833,0.18996888349577784,-0.16590689377635717
1768216525442934300,5.997934326171875,0.25964403887689114,0.13922639212161303,-0.20429989892616868
1768216525452934100,6.00793408203125,0.30840193230509755,0.11716638987436889,-0.2208560430601239
1768216525462935600,6.017935546875,0.3424503323793411,0.11242555202282964,-0.21481763967871664
1768216525472936400,6.0279365234375,0.2760287719666958,0.12880042130574584,-0.21921982016041874
1768216525482936300,6.037936279296875,0.1265162558913231,0.14240611813627183,-0.2213885425016284
1768216525492937200,6.047937255859375,0.04039923040568828,0.14760595180168748,-0.1855947600647807
1768216525502938400,6.0579384765625,0.017005495336651803,0.14114676572494209,-0.18749708655476569
1768216525512938200,6.067938232421875,-0.010629530563950537,0.1391249045085162,-0.12948621161282062
1768216525522939400,6.077939453125,-0.04784311667084694,0.14135587843097747,-0.07651669183894991
1768216525532940300,6.087940185546875,-0.04832885436117649,0.143639970780164,-0.08100392025560141
1768216525542940400,6.0979404296875,-0.04554945277571678,0.09367496658451854,-0.06366393226757645
1768216525552941300,6.10794140625,-0.1141542024463415,0.04308445090167224,-0.030397330220788714
1768216525562942200,6.117942138671875,-0.14630641351044177,0.021012392890453337,0.03218494428992271
1768216525572942300,6.1279423828125,-0.14164192883074284,-0.02738214711807668,0.06497092321291566
1768216525582943500,6.137943603515625,-0.18087094641327858,-0.05671696267388761,0.07437558815702795
1768216525592943400,6.147943359375,-0.2444599137485027,-0.052221916276961565,0.09094634533822536
1768216525602944300,6.1579443359375,-0.25281916129291054,-0.08391513152718544,0.09690671504735945
1768216525612945400,6.1679453125,-0.18176468038260934,-0.1070008966255933,0.1143763207644224
1768216525622945300,6.1779453125,-0.07045125432014465,-0.12484693443961441,0.1067693528920412
1768216525632946200,6.1879462890625,-0.02113864961862564,-0.13599018667936325,0.10665654016733168
1768216525642947300,6.197947265625,-0.039952655681967736,-0.124798272992298,0.09064297847747803
1768216525652947500,6.207947509765625,-0.05430149902999401,-0.10553696155287325,0.11520210406407713
1768216525662948400,6.2179482421875,-0.12663140670359133,-0.09147584910504519,0.13039865028262138
1768216525672949200,6.22794921875,-0.15533961479365824,-0.05322780538387596,0.10542553706765175
1768216525682949400,6.237949462890625,-0.13380290576815604,-0.0426858800381422,0.10312529730126262
1768216525692950500,6.247950439453125,-0.18349661874175072,-0.020025281549245117,0.10250409666299819
1768216525702951400,6.257951416015625,-0.19274141694903374,0.01786656914539635,0.09154606479704379
1768216525712951300,6.267951416015625,-0.15757190389037132,0.018449556665122508,0.08287336738929152
1768216525722952400,6.277952392578125,-0.13577157549262045,0.04386858701668679,0.08283084342181682
1768216525732953300,6.287953369140625,-0.06349719739854336,0.05091441387496888,0.06555617575496435
1768216525742953200,6.297953125,0.13876140495836733,0.08074066620953381,-0.012154402043670414
1768216525752954400,6.307954345703125,0.1960708536326885,0.07831351212784647,-0.04954115276038647
1768216525762954500,6.31795458984375,0.2717383812963962,0.08626790519841014,-0.07401026197597384
1768216525772955400,6.327955322265625,0.30741233674585816,0.09354805226922035,-0.10765928746908902
1768216525782956300,6.337956298828125,0.3061474313765764,0.04547784884423017,-0.19913272542133925
1768216525792956400,6.347956298828125,0.3356587725430727,-0.006470876514539122,-0.23223346938192843
1768216525802957300,6.357957275390625,0.2929547723263502,0.002966448590159416,-0.23837109535411
1768216525812958500,6.36795849609375,0.2653396201699972,0.0013435966286808251,-0.2518202133834362
1768216525822958600,6.37795849609375,0.22464286812245846,-0.033608035895600914,-0.2531136141948402
1768216525832959500,6.38795947265625,0.16601298449933527,-0.04121120437569916,-0.250952344507724
1768216525842960400,6.39796044921875,0.15153613085746764,-0.04863667820133268,-0.20969372079372406
1768216525852960300,6.407960205078125,0.12344225527346134,-0.11415252194590866,-0.17342004588544369
1768216525862961400,6.41796142578125,0.03504734798371792,-0.14180062652379274,-0.09784341137558221
1768216525872962600,6.427962646484375,0.03439794416427612,-0.14352226268462837,-0.10107201803326606
1768216525882962400,6.43796240234375,-0.32325054186880586,-0.14346929038837553,0.009714315415173768
1768216525892963300,6.44796337890625,-0.444516622146964,-0.09582067337632179,0.06470847288444638
1768216525902963500,6.45796337890625,-0.5445727411359548,-0.03235869342163205,0.15715616269633173
1768216525912964400,6.46796435546875,-0.5523264240026474,-0.004421396638825535,0.2630297357924282
1768216525922965200,6.47796533203125,-0.4933832366466522,0.03416903077922761,0.33207389979362484
1768216525932965400,6.48796533203125,-0.4939239193946123,0.03550663605853915,0.328020094358176
1768216525942966500,6.497966552734375,-0.31765316025316714,0.07453611248098313,0.36536519789025185
1768216525952967400,6.507967529296875,-0.2056698721051216,0.08628164146281778,0.35659298563078046
1768216525962967300,6.51796728515625,-0.04971475576162338,0.12960881507918237,0.34874227213039993
1768216525972968400,6.527968505859375,0.0849888982385397,0.16700805995129048,0.30182562265470625
1768216525982969300,6.53796923828125,0.16069325078129768,0.18225604409612714,0.24034809451550243
1768216525992969200,6.54796923828125,0.16056699405312538,0.18237280234359204,0.2395113514304161
1768216526002970400,6.557970458984375,0.1630623180001974,0.18351174324564634,0.16629706213772297
1768216526012971500,6.567971435546875,0.1610439639151096,0.16599800612591206,0.06735474960952997
1768216526022971400,6.577971435546875,0.1573988854110241,0.12668079880326985,-0.009628975219279527
1768216526032972300,6.58797216796875,0.1973351744800806,0.11802402961701154,-0.12368892351090907
1768216526042973200,6.59797314453125,0.25108839197754856,0.1237836160570383,-0.16795388943403958
1768216526052973300,6.607973388671875,0.2161667162001133,0.08420768473297358,-0.19697218638658523
1768216526062974500,6.617974365234375,0.25752397798299786,0.11085085005201399,-0.2282590127930045
1768216526072974300,6.627974365234375,0.263661457824707,0.1032392790697515,-0.21139014944806694
1768216526082975500,6.6379755859375,0.23062954131662844,0.07834310354851186,-0.24542656682357192
1768216526092976400,6.647976318359375,0.13760229805111884,0.07720109390653669,-0.23616671717762946
1768216526102976300,6.657976318359375,-0.06984452059864997,-0.00888531724512577,-0.3072606533154845
1768216526112977200,6.66797705078125,-0.03829319803714752,-0.09118271137736737,-0.41935660805776714
1768216526122978600,6.677978515625,-0.0039127895295619965,-0.09913388957753777,-0.37088469196408985
1768216526132978400,6.687978515625,-0.03656827394068241,-0.1616417836777866,-0.3177015294395387
1768216526142979300,6.697979248046875,-0.018692425510287283,-0.20374124213010072,-0.35878844984844327
1768216526152980200,6.707980224609375,-0.04036941978931427,-0.24636121732518076,-0.2665904970139265
1768216526162980400,6.71798046875,-0.006857610809803009,-0.21032887689210472,-0.16999299404621124
1768216526172981200,6.727981201171875,-0.10345219116806983,-0.2089326732933521,-0.048007513452321286
1768216526182982400,6.737982421875,-0.22045944495797157,-0.1410664670303464,-0.03858750480860471
1768216526192982500,6.747982421875,-0.25009645833075045,-0.061301148658990855,0.038070056805759665
1768216526202983400,6.7579833984375,-0.2597089208066463,-0.017478081284463404,0.121779290497303
1768216526212983300,6.7679833984375,-0.09042670537829399,0.047851738368719816,0.2657796190224588
1768216526222984200,6.777984130859375,-0.041055063965916634,0.11183036260865628,0.23403847297728061
1768216526232985300,6.7879853515625,0.046588148173689836,0.14995127281881868,0.18756971339955925
1768216526242985500,6.7979853515625,0.10716975038647651,0.13379355341792107,0.16142346475198863
1768216526252986400,6.807986328125,0.12203531108498572,0.15318521323874593,0.18404986871033907
1768216526262987300,6.8179873046875,0.1436170282959938,0.15682824591621755,0.14395692777484653
1768216526272987400,6.8279873046875,0.06700900491178036,0.16451901961453258,0.1570271294891834
1768216526282988300,6.83798828125,0.0674427201539278,0.16668847260810435,0.15849369491040705
1768216526292989200,6.8479892578125,0.18525018441081045,0.08546864457949996,0.023834318443387747
1768216526302989600,6.857989501953125,0.10682897412478923,0.07765804389379918,-0.025938158854842186
1768216526312990500,6.867990478515625,0.09460077619254588,0.08588226688168943,0.018816636411845684
1768216526322991400,6.877991455078125,0.1440782160669565,-0.0019587328523397443,-0.007957973267138005
1768216526332991500,6.887991455078125,0.1419260064691305,-0.03602437632232904,-0.06612783816307782
1768216526342992400,6.897992431640625,0.1894663408011198,0.023402137571200726,-0.06142316760346293
1768216526352992300,6.9079921875,0.2275602168738842,0.02946552926339209,-0.048290568177402016
1768216526362993400,6.917993408203125,0.21279870107173918,-0.01237498599179089,-0.07022840534970164
1768216526372994300,6.927994384765625,0.21502572947144508,-0.011356602729484438,-0.05856207908391952
1768216526382994400,6.937994384765625,0.0613426497131586,-0.016665157466381787,-0.017901567393541335
1768216526392995300,6.947995361328125,0.06363748265206813,-0.015523001693934202,-0.005744242740422487
1768216526402996200,6.957996337890625,-0.09298691125512122,0.0030436054795980453,-0.0525198763102293
1768216526412996600,6.96799658203125,-0.17866379175782202,-0.005217369322106242,-0.14274331420138478
1768216526422997500,6.97799755859375,-0.051392333585023875,-0.04784713525883853,-0.10794424189031124
1768216526432998400,6.987998291015625,-0.04060790472030639,-0.08218545819036661,-0.0915481106236577
1768216526442998500,6.99799853515625,-0.0644230800718069,-0.035843393732234836,-0.029936434710770843
1768216526452999400,7.00799951171875,-0.05981003331840038,-0.030116467452794313,-0.028043752831965682
1768216526463000300,7.018000244140625,-0.1485527311325073,-0.06379303853996098,-0.025320903739333152
1768216526473000400,7.02800048828125,-0.1482388428777456,-0.0669249068249017,-0.02226619234383106
1768216526483001300,7.03800146484375,-0.27533728257119655,-0.013942381438985466,-0.025692221269756555
1768216526493002500,7.04800244140625,-0.2901239328145981,0.027589140932261943,-0.002391717442125082
1768216526503002400,7.05800244140625,-0.25697569645047186,0.03344875368066132,0.0009720599025487899
1768216526513003300,7.068003173828125,-0.15731646782457828,0.020627119899913667,0.022413053468614816
1768216526523003400,7.07800341796875,-0.02178571535050869,0.016071064030751585,0.030602497404068705
1768216526533004500,7.088004638671875,0.038493104523420335,0.029431700059026476,0.016546937914192674
1768216526543005400,7.09800537109375,0.0761567724853754,0.021608970544114706,-0.004482259980589151
1768216526553005600,7.108005615234375,0.1065121632605791,0.0177528065726161,-0.023465192870050666
1768216526563006500,7.11800634765625,0.10825696110129356,0.01163636951893568,-0.016065584138035775
1768216526573007400,7.12800732421875,0.10020517207086085,0.0040100393589586015,-0.0020157237365841865
1768216526583007200,7.13800732421875,0.07857143241167068,-0.017762962640449402,-0.02080751796811819
1768216526593008600,7.148008544921875,0.04357318426668644,-0.01704560815133154,-0.0062141983397305004
1768216526603009500,7.158009521484375,0.04005085535943508,-0.007396613057330251,-0.01839636517316103
1768216526613009400,7.168009521484375,0.027034137398004532,-0.010444748581573366,-0.014230623795837163
1768216526623010300,7.17801025390625,-0.005502104547619819,0.0467005955722183,0.024066227503120898
1768216526633011500,7.188011474609375,0.092774729809165,0.12099449679516255,0.11619812936410308
1768216526643011300,7.19801123046875,0.14063187500536442,0.10554061481468378,0.09347104151025414
1768216526653012500,7.208012451171875,0.13093933303058147,0.10347294169515371,0.04513868001773953
1768216526663013400,7.218013427734375,0.06839081465899943,0.061020358956232666,-0.014263941543549298
1768216526673013500,7.228013427734375,-0.0558791236102581,0.04264101798310876,0.01873991791382432
1768216526683014400,7.238014404296875,-0.09651333181560039,0.029414456663280724,-0.0017846914596855638
1768216526693014300,7.24801416015625,0.006228665256500244,-0.009744052966311574,0.0587077711649239
1768216526703015400,7.258015380859375,0.04719079024195671,-0.04608187915198505,0.052044660013914106
1768216526713016600,7.2680166015625,0.011981529694795608,-0.03122172528095543,0.04092310814931988
1768216526723016400,7.278016357421875,-0.009684358668327332,-0.04630407053530216,0.013759206891804933
1768216526733017300,7.288017333984375,-0.009160042533278465,-0.04334500153400004,0.015578969664871692
1768216526743018500,7.2980185546875,-0.03469254319667816,-0.029797391566261648,-0.041610213630646466
1768216526753018400,7.308018310546875,-0.02156476607620716,-0.011435659315064548,-0.0250518775396049
1768216526763019300,7.318019287109375,-0.021996727752685546,0.031356603707000615,-0.014267740935832262
1768216526773020400,7.3280205078125,-0.023235914158821105,0.026286314705386758,-0.021417320429533718
1768216526783020500,7.3380205078125,-0.022483049964904783,0.030519787556678054,-0.018730127172172067
1768216526793021400,7.348021484375,-0.008851414975523948,0.058437283660471434,-0.019846417851001025
1768216526803022300,7.358022216796875,-0.008190905240178108,0.040007089282944795,-0.016331979989260434
1768216526813022500,7.3680224609375,-0.0351005394756794,0.020614844940230248,-0.04372676739320159
1768216526823023400,7.3780234375,-0.04114975651204586,0.047495180016010996,-0.03848535960838199
1768216526833023200,7.388023193359375,-0.04058043219149112,0.04908376438170671,-0.03574439033716917
1768216526843024400,7.3980244140625,-0.026199440139532088,0.03401617830507457,-0.037281829037517304
1768216526853025500,7.408025634765625,-0.0009814122527837753,0.03009133301153779,-0.01826309418231249
1768216526863025400,7.418025390625,0.002037058785557747,0.038992432347685096,-0.010527385363727807
1768216526873026300,7.4280263671875,0.0023141221612691877,0.04056896094940603,-0.009513239885121583
1768216526883027200,7.438027099609375,0.019529460856318473,0.0317399770013988,-0.012114654555171727
1768216526893027300,7.44802734375,0.04449146815538406,0.029723449547216296,-0.018036591950058935
1768216526903028500,7.458028564453125,0.02481295421719551,0.016579013552889228,-0.006269874049723148
1768216526913029400,7.468029296875,0.005178279420733452,0.0018501579113304615,0.009009966538101434
1768216526923029500,7.478029541015625,0.00859422534406185,-0.012550634819641708,-0.006083119305968284
1768216526933030400,7.488030517578125,0.009181085321307183,-0.012034721186757087,-0.0027498832300305366
1768216526943031300,7.49803125,-0.002846621602773666,-0.03099069300405681,-0.016246785923838613
1768216526953031400,7.508031494140625,-0.038158758002519604,-0.037240693309530615,-0.014512071085721253
1768216526963032600,7.518032470703125,-0.06892799027562141,-0.02560110892020166,-0.014220833054184912
1768216526973033500,7.528033447265625,-0.09352759400308132,-0.016900865918397904,-0.03299479936808347
1768216526983033300,7.538033447265625,-0.09742693952918052,-0.013602116633951663,-0.01840162587016821
1768216526993034200,7.5480341796875,-0.07190145312845707,-0.006953691595420241,0.001352729783207178
1768216527003034400,7.558034423828125,-0.07546119143664837,-0.021443331653624772,-0.014767945542931557
1768216527013035300,7.56803515625,-0.0718611211180687,0.005725976431369781,-0.004325608114153147
1768216527023036400,7.578036376953125,-0.06897416750490665,0.010407339180633425,-0.005897387475520372
1768216527033036500,7.58803662109375,-0.021612112349271774,0.01588240959085524,-0.0041457215026021
1768216527043037400,7.598037353515625,-0.015545359656214713,0.0001030219830572605,-0.019618746574968097
1768216527053038300,7.608038330078125,0.005173018723726272,0.01968194800429046,0.020478724405169485
1768216527063038500,7.61803857421875,0.007308277186751365,-0.0008175269279628992,0.03423544707894325
1768216527073039400,7.628039306640625,0.014348258826136589,0.021208207723498344,0.032390988256037236
1768216527083040500,7.63804052734375,0.0193453364610672,0.02159063116982579,0.023235914158821105
1768216527093040400,7.648040283203125,0.02800093660354614,0.02004413238018751,0.013375906662642954
1768216527103041500,7.65804150390625,0.004232523003220558,0.005181348160654306,0.02191723277568817
1768216527113042400,7.66804248046875,0.038275662380456925,0.011843436398357152,0.009508417579531669
1768216527123042300,7.678042236328125,0.06669687022268772,-0.013143632276728748,0.021086627170443534
1768216527133043500,7.68804345703125,0.050851650837063785,-0.010323533354699611,-0.013035130400955676
1768216527143044400,7.69804443359375,0.040355975785851476,-0.00589724134504795,-0.021717618550360203
1768216527153044500,7.70804443359375,-0.023472645524144173,0.03713920569643378,-0.010642682306468487
1768216527163045400,7.71804541015625,0.0018646248281002043,0.03212196205630898,-0.006884791077673435
1768216527173045500,7.72804541015625,0.01864040306210518,0.017845307161659,-0.015002777212113141
1768216527183046400,7.73804638671875,0.018939093747735024,0.01860620853155851,-0.013469576295465231
1768216527193047600,7.748047607421875,0.019782558834552762,0.03590973696671426,-0.008733195423334837
1768216527203047400,7.75804736328125,0.015872107392549514,0.024165669289603828,-0.00595759323015809
1768216527213048600,7.768048583984375,0.016200608694553375,0.024463629322871563,-0.004039776910096406
1768216527223049500,7.778049560546875,-0.031626141363382335,0.01341711545586586,0.016747428922355173
1768216527233049300,7.78804931640625,-0.031244448569416997,0.013777473200857638,0.018978256714344024
1768216527243050200,7.79805029296875,-0.002215337961912155,-0.029709274891391396,0.026182050613313912
1768216527253051400,7.808051513671875,-0.035848727494478226,0.00660568187534809,0.013240882106125354
1768216527263051500,7.818051513671875,-0.06354220558404922,0.030939620403945444,0.006604366701096296
1768216527273052400,7.828052490234375,-0.047291912528872486,0.026351927287504077,0.0156309921130538
1768216527283053300,7.83805322265625,-0.046692777591943735,0.027631957160681484,0.01886149846687913
1768216527293053400,7.848053466796875,-0.023472645524144173,0.059702992747351524,0.028437574455142018
1768216527303054300,7.858054443359375,-0.0016530279040336607,0.021808803965151308,0.007192541852593421
1768216527313054200,7.86805419921875,0.014759177714586257,0.04275112729407847,0.01556727922707796
1768216527323055600,7.8780556640625,0.01889817721545696,0.006272285202518105,-0.005081979439407587
1768216527333056500,7.888056396484375,0.019486790758371352,0.006901084625348448,-0.0016055355004966259
1768216527343056400,7.898056396484375,-0.0016448445975780486,0.031057036238536236,-0.01644800758436322
1768216527353057300,7.908057373046875,0.008323007187247275,0.01754866230264306,-0.03452025536969304
1768216527363058400,7.918058349609375,0.007186112111806869,-0.0023225977286696433,-0.01038388523980975
1768216527373058300,7.928058349609375,0.0076303487479686734,-0.0011469050128012895,-0.008028408154845238
1768216527383059500,7.9380595703125,0.034001638323068614,-0.02491400343887508,-0.024463848518580196
1768216527393060400,7.948060302734375,0.005194061511754989,-0.04043072152249515,-0.03147562697678804
1768216527403060500,7.958060546875,0.005354220509529113,-0.040028935788571834,-0.030615649146586654
1768216527413061400,7.968061279296875,0.01103811136484146,-0.017139716175571085,-0.016709142738580703
1768216527423062300,7.978062255859375,0.039057168146967886,-0.009647972180694341,-0.0294939516402781
1768216527433062400,7.9880625,0.028181553867459297,0.015071531599387525,-0.014384353052824735
1768216527443063600,7.9980634765625,-0.030339024162292477,-0.0123642454020679,-0.0156309921130538
1768216527453064400,8.008064453125,-0.07887070761919021,-0.0022109540477395057,-0.0056093643143773075
1768216527463064300,8.018064208984375,-0.07064005489051342,-0.020828633821383117,0.0028026363305747506
1768216527473065500,8.0280654296875,-0.02768763287067413,0.0001486146904528141,0.04581584862694144
1768216527483065300,8.0380654296875,0.04024082497358322,0.01965893245488405,0.07169774724990129
1768216527493066200,8.048066162109375,0.08280044828355312,0.03854293501451611,0.03912000425010919
1768216527503067400,8.0580673828125,0.07139116551876068,0.006620294922590256,0.042540334087610245
1768216527513067500,8.068067626953125,0.0639788434356451,0.028533728305995463,0.04499342632815242
1768216527523068400,8.078068359375,0.03421381976902485,0.0368490636434406,0.022132921352982518
1768216527533069300,8.0880693359375,-0.008005027279257775,0.023781930669024585,-0.00953676689118147
1768216527543069400,8.0980693359375,-0.024454057776927947,0.017521555100008843,-0.014271101936697958
1768216527553070300,8.1080703125,-0.031871056035161015,0.012057371409982443,-0.019691811811178923
1768216527563071500,8.118071533203125,-0.023529928669333455,0.018567009032331407,-0.018636019147932528
1768216527573071400,8.1280712890625,-0.042835517641901966,0.016906418876349926,-0.04216024872884154
1768216527583072500,8.138072509765625,-0.04498538915216922,0.012765081287920475,-0.03382233623340726
1768216527593073400,8.148073486328125,-0.026478257080912587,0.028887948571145534,-0.026898382189124822
1768216527603073300,8.1580732421875,0.006785714617371558,0.010523951297625898,-0.03761807525455951
1768216527613074200,8.16807421875,-0.01911386579275131,0.01365413908213377,-0.0036447862431406974
1768216527623075600,8.17807568359375,-0.018948446097970008,0.014504070442356168,-0.00290375861749053
1768216527633075500,8.188075439453126,-0.017743746483325957,0.0021524287935346365,-0.006843582284450531
1768216527643076400,8.198076416015626,-0.0021972177833318707,0.00615329846534878,0.01044949782192707
1768216527653076500,8.208076416015626,-0.012690554746985435,0.013555099154449999,0.012772387811541556
1768216527663077400,8.218077392578126,0.005549450820684433,-0.005391556845232844,0.015993541815131903
1768216527673078300,8.228078369140626,-0.01522095000743866,0.009971249318309127,0.008719605289399624
1768216527683078400,8.238078369140625,-0.015095862323045729,0.010881532563641667,0.009173048145323992
1768216527693079600,8.24807958984375,-0.01736030012369156,0.005430975540168583,0.014752894104272126
1768216527703080400,8.25808056640625,0.009183423408865929,0.0016350903885439037,0.010721008239686488
1768216527713080300,8.268080322265625,0.000872106659412384,0.007312040046416223,-0.003311608766019344
1768216527723081500,8.27808154296875,-0.02827858450114727,0.016167656273022295,-0.010551350761204958
1768216527733082400,8.288082275390625,-0.0282335763156414,0.01614434846267104,-0.010242723203450441
1768216527743082500,8.29808251953125,-0.0694423695385456,0.0011147563088685273,-0.002375204698741436
1768216527753083400,8.30808349609375,-0.04481587780416012,-0.0015622443480417132,-0.0024149521872401237
1768216527763084300,8.318084228515625,-0.015871522870659828,0.003818060450814664,0.015902356400340795
1768216527773084400,8.32808447265625,0.012950082466006279,0.014581300397031009,0.02790697470977902
1768216527783085300,8.338085205078125,0.012906243324279785,0.015059877694211899,0.02741860667094588
1768216527793085400,8.34808544921875,0.003890577697753906,-0.0026738953843712804,0.014745441450178622
1768216527803086600,8.358086669921875,0.009758008426427841,0.01030745900273323,0.018679858289659023
1768216527813087500,8.36808740234375,0.04335340403616428,0.004800751345232129,0.009923574251681565
1768216527823087400,8.37808740234375,0.0386819050937891,0.013710691574960946,0.011859656880795955
1768216527833088500,8.388088623046874,0.03882394391298294,0.013667802281305192,0.012821195389330386
1768216527843089400,8.39808935546875,0.0018792378753423689,0.01530176015868783,0.004108312101662159
1768216527853089300,8.40808935546875,-0.020066636472940443,0.01093198410924524,-0.0241762637488544
1768216527863090400,8.41809033203125,-0.03623918811678886,0.01868767626993358,-0.02639218623265624
1768216527873091600,8.428091552734376,-0.036110008779168125,0.018821495250053704,-0.02558627667725086
1768216527883091500,8.438091552734376,-0.035087095472216605,0.018574242490716278,-0.013680588697642087
1768216527893092400,8.44809228515625,-0.015534253740310668,0.014351071837730704,-0.01587795261144638
1768216527903093200,8.45809326171875,0.004278700232505798,-0.0073533949701115485,-0.024509441225975752
1768216527913093400,8.46809326171875,0.00384030881524086,-0.0072596522720530625,-0.00969137293100357
1768216527923094500,8.478094482421875,-0.01732055263519287,-0.0036811361981555816,-0.019191607204079628
1768216527933095400,8.488095458984375,-0.02222878294289112,0.006481251778081059,-0.023687457318603992
1768216527943095600,8.498095458984375,-0.012933131331205367,0.005473645638115704,-0.01451879308745265
1768216527953096400,8.508096435546875,-0.017097265273332597,0.014853797195479274,-0.005799626189470291
1768216527963097300,8.518097412109375,0.002561374920606613,0.0025874226773157714,-0.014642857858538626
1768216527973097200,8.52809716796875,0.012379589101672172,0.005584777862392366,-0.004994301155954599
1768216527983098600,8.5380986328125,-0.0014133739292621612,0.007749445082992315,0.004473346021771431
1768216527993098500,8.548098388671875,0.0021948796957731247,-0.0016750205401331185,0.021469196747243402
1768216528003099400,8.558099365234375,-0.012374912926554679,0.01094966589640826,0.01247530456110835
1768216528013100300,8.568100341796875,-0.024689035576581954,-0.0015165420427918433,-0.007117430789768695
1768216528023100400,8.578100341796874,-0.03703998310565948,-0.0054638183638453484,-0.0008497486971318721
1768216528033101300,8.588101318359374,-0.020267712002992627,-0.005300006104260683,-0.008388912030309437
1768216528043102500,8.5981025390625,-0.00613864888548851,-0.014053513663262128,0.0007138473577797413
1768216528053102600,8.6081025390625,0.012498831567168234,0.0019512071330100296,0.020006138457357884
1768216528063103500,8.618103515625,0.011232757154107093,0.008805128148384392,0.02230535531044006
1768216528073104400,8.6281044921875,0.01758767913877964,0.01673066045064479,0.013382482533901929
1768216528083104300,8.638104248046876,0.003161094379425049,0.009398016007617116,0.0027921149365603922
1768216528093105400,8.64810546875,-0.0038519992530345916,0.03311762203015387,-0.00044978959411382674
1768216528103106600,8.6581064453125,-0.0063946694731712335,0.019524455887638032,-0.00941430955529213
1768216528113106400,8.6681064453125,0.010645897176861763,0.020492752930521965,0.013730419188737868
1768216528123107300,8.678107421875,-0.002469604983925819,0.006725691525824367,0.011302753650397061
1768216528133107500,8.688107421875,-0.0023719898283481597,0.006535575781203806,0.012037059274315833
1768216528143108400,8.6981083984375,-0.032528643161058426,0.012638093907386063,-0.0004999123461544514
1768216528153109200,8.708109130859375,-0.010412672942876814,-0.009038388914987445,-0.009949585475772618
1768216528163109400,8.718109375,0.008048866420984268,0.015977102136984465,-0.029639789851754902
1768216528173110500,8.728110595703125,0.016041618740558622,0.02031768862456083,-0.02091039382070303
1768216528183111400,8.738111328125,0.01597030707001686,0.020124175346456465,-0.021307138053327797
1768216528193111300,8.748111328125,0.04087444670200348,0.01604563732855022,-0.021671879712492226
1768216528203112400,8.758112548828125,0.019688450810313222,0.021585005146637557,-0.012464198645204304
1768216528213113300,8.76811328125,0.0196066177457571,0.021759375332854686,-0.01308788350149989
1768216528223113200,8.77811328125,0.030779169145226475,0.017240253940597177,0.0014268179327249525
1768216528233114400,8.7881142578125,0.030760464444756507,0.017659356135502458,0.0011268120728433132
1768216528243115500,8.798115478515625,-0.04271452161073684,-0.006647511723078787,-0.019319179106503725
1768216528253115400,8.808115478515624,-0.07856675623655318,0.0021533055763691663,-0.003028115649521351
1768216528263116300,8.8181162109375,-0.09446808972358703,-0.022811916593089697,0.00551014172360301
1768216528273117200,8.8281171875,-0.08919511775672435,-0.01960537563674152,0.0005604103617370129
1768216528283117300,8.838117431640624,-0.08945698356330395,-0.019928652774356303,-0.0010464403130114079
1768216528293118500,8.848118408203124,0.06435878266394138,0.01861950640454888,0.03630027065426111
1768216528303119400,8.858119384765626,0.08671323781311512,0.0010141089459881187,0.04371551534682512
1768216528313119500,8.868119384765626,0.07049684702754021,0.0030889059260487553,0.0367572206415236
1768216528323120400,8.878120361328126,0.048741526815295214,0.01637771882712841,0.028292466896027324
1768216528333120300,8.888120361328125,0.048697103151679036,0.01723177837319672,0.027640724989026783
1768216528343121400,8.898121337890625,0.02115209362208843,0.024340550932474433,0.013457885857671499
1768216528353122600,8.90812255859375,0.002426350364089012,0.01682166320234537,-0.016843582773208618
1768216528363122400,8.918122314453125,-0.007162146714329719,0.02023154471106827,-0.019274024790525434
1768216528373123300,8.928123291015625,0.015577508360147475,0.0195796201409772,-0.02057151725515723
1768216528383124200,8.938124267578125,0.017516951990127563,0.027678061324730514,-0.042428982667624945
1768216528393125600,8.948125732421875,0.004958499190211295,0.019581044913083313,-0.0356426835283637
1768216528403126800,8.958126708984375,-0.00732639736533165,0.002830254989862442,-0.04376081579327583
1768216528413127700,8.968127685546875,-0.021729601249098777,0.004787891863659024,-0.03204612034112215
1768216528423127600,8.97812744140625,-0.023631050956249237,0.003941358036920428,-0.02777107337042689
1768216528433128700,8.988128662109375,-0.03816109609007835,-0.01465063930619508,-0.016899112352728844
1768216528443129600,8.998129638671875,-0.06130933196544647,-0.015256825038418173,0.003967588456720113
1768216528453129500,9.00812939453125,-0.08021978414058685,-0.029445070997253058,-0.0004177870206534862
1768216528463130600,9.018130615234375,-0.08527005326747894,-0.028918270644173023,0.007918810300529003
1768216528473130800,9.028130859375,-0.08166355320811271,-0.006061126669868826,0.0069705696649849415
1768216528483131600,9.038131591796875,-0.05381050064265728,-0.012252711318992077,0.018277853360027074
1768216528493132500,9.048132568359375,-0.02355681667625904,-0.006871347074210644,0.020754764867573976
1768216528503132700,9.058132568359374,-0.009000468057394026,0.004113536266051232,0.01834390433356166
1768216528513133600,9.068133544921874,0.014395020577311514,0.01170698706973344,0.006407382824271917
1768216528523134700,9.078134765625,0.014471008422970772,0.01769994387421757,0.018552140256762502
1768216528533134600,9.088134521484376,0.011608604729175567,0.016470657807588576,-0.00020122166052460668
1768216528543135700,9.0981357421875,0.03132745067775249,0.00020816285796463487,0.004238075961172581
1768216528553136600,9.10813671875,-0.04118132069408893,-0.008555281573161481,-0.01269201605170965
1768216528563136500,9.118136474609376,-0.04268763360381126,-0.010791443127393722,-0.005928805527091026
1768216528573137400,9.128137451171876,-0.060221536728739734,0.01071406704224646,-0.005209112950414419
1768216528583138800,9.138138916015626,-0.060713119637966155,0.009555836917832494,-0.007915449299663304
1768216528593138700,9.148138671875,0.0012239888370037077,-0.0012201163794845341,0.018179361421614883
1768216528603139600,9.1581396484375,-0.007448562440276145,0.01300707335025072,0.020214812771975992
1768216528613140500,9.168140380859375,-0.010841127488017082,0.025905060302838682,0.03383607249781489
1768216528623140600,9.178140625,-0.0007084405303001403,0.016223697309195994,0.009664338793605565
1768216528633141500,9.1881416015625,-0.001014145478606224,0.015022504825890064,0.008196896589547396
1768216528643141600,9.1981416015625,0.017999182549118996,0.0018275076881051062,-0.00027516367956995964
1768216528653142800,9.208142822265625,-0.028095629149675366,0.0001014145478606224,-0.003054419134557247
1768216528663143700,9.218143798828125,-0.025252514678239822,0.010133271479606628,-0.006781915225088596
1768216528673143600,9.2281435546875,-0.025296938341856,0.00994074458219111,0.001732669011503458
1768216528683144400,9.23814453125,-0.02564648243188858,0.009139657332375645,-0.0001686345651745796
1768216528693145600,9.2481455078125,0.00436053329706192,0.013091755959019064,-0.012058686584234236
1768216528703145500,9.2581455078125,0.0029489129334688184,-0.009195917564257979,-0.01589051983207464
1768216528713146600,9.268146728515624,0.013054711884260177,-0.011304653346538542,-0.018633973321318626
1768216528723147500,9.2781474609375,-0.00033200843334198,0.0009998977575451135,-0.02312529339119792
1768216528733147600,9.288147705078124,-0.0007288987964391708,-0.000496332149580121,-0.025018559791892766
1768216528743148500,9.2981484375,-0.005604395878314972,0.013849880849942564,-0.011126081909239291
1768216528753149400,9.3081494140625,-0.004513678032159805,-0.010750015138462186,-0.015603519584238529
1768216528763149800,9.31814990234375,-0.002722118440270424,0.007234627428650856,-0.002859481084346771
1768216528773150700,9.328150634765626,-0.05580781193971634,0.017099603360891343,-0.02981368511393666
1768216528783151600,9.338151611328126,-0.05654314047694206,0.015121142894774675,-0.03361380804926157
1768216528793151700,9.34815185546875,0.017260346880555152,0.016175181992352006,0.016379180131852626
1768216528803152600,9.358152587890626,0.01677636275589466,0.014408902972191572,0.014087562063336372
1768216528813152500,9.368152587890625,-0.037188451665639874,0.02178052771873772,-0.0006157938107848167
1768216528823153700,9.378153564453125,-0.018956044882535935,0.02481280808672309,-0.009454057043790817
1768216528833154600,9.388154541015625,-0.014922259321808814,0.017537848647683856,0.006560673689842224
1768216528843154700,9.39815478515625,0.009455810609459877,0.002997501315549016,0.011178104357421398
1768216528853155600,9.408155517578125,0.029918168401718136,-0.02031739636361599,0.006679623894393444
1768216528863156500,9.418156494140625,0.01202069266140461,0.004823913025110959,0.008165916929394007
1768216528873156600,9.428156494140625,0.03682955522537231,-0.006898819603025913,-0.002479980247467756
1768216528883157800,9.43815771484375,0.019711247164011,-0.023373569063842296,0.004535013081133366
1768216528893158700,9.44815869140625,-0.021969839745759962,-0.006704100748524069,-0.002682224821299314
1768216528903158800,9.45815869140625,-0.04632452880144119,-0.03241948369815945,0.020109160440415143
1768216528913159700,9.46815966796875,-0.06115852531790733,-0.008967369505390524,0.01028349360525608
1768216528923160600,9.47816064453125,-0.0514957939594984,-0.010840323770418762,-0.00860752321705222
1768216528933160400,9.488160400390624,-0.056793315845727915,-0.0071603931486606594,-0.0008854045324027537
1768216528943161600,9.49816162109375,-0.058736266607046124,0.004363748167455196,0.012022007835656403
1768216528953162800,9.508162841796874,-0.046131636577844616,0.012564590279757976,-0.004219955782592297
1768216528963162600,9.51816259765625,-0.012803951993584632,0.021620149525254963,0.00540098226070404
1768216528973163500,9.52816357421875,-0.0027788170635700223,0.009562193593382834,-0.0023129531174898147
1768216528983164700,9.53816455078125,-0.0033761984348297117,0.028250673580914733,-0.010022212320566177
1768216528993164500,9.54816455078125,0.01189385141134262,0.010521978536248207,-0.004972819976508617
1768216529003165700,9.558165771484376,0.045130935102701185,-0.002865691629424691,-0.030125965933501718
1768216529013165800,9.568165771484376,0.043210196173191065,-0.00114339788146317,-0.011195055492222309
1768216529023166700,9.578166748046876,0.04816927988529205,-0.03308350056484342,-0.033751316823810336
1768216529033167600,9.588167724609375,0.048022564890980717,-0.03479505372308194,-0.033914690691977736
1768216529043167500,9.59816748046875,0.028090952974557874,0.0179945063740015,-0.0038280338555574415
1768216529053168600,9.608168701171875,0.035271219867467875,0.006107376964390277,-0.002333995905518532
1768216529063169800,9.618169677734375,0.010464110869169235,0.022268238170444963,-0.016560235787183044
1768216529073169700,9.628169677734375,0.010378186151385306,0.022224764354899524,-0.017069792744517327
1768216529083170600,9.638170654296875,-0.004254734835028648,0.02418174364157021,-0.0023918635725975034
1768216529093171700,9.648171630859375,-0.05829261449277401,-0.004844663552194833,0.018478344368189573
1768216529103171600,9.658171630859375,-0.05801613563895225,-0.00158726919144392,0.039644904907047744
1768216529113172500,9.66817236328125,0.031878654819726945,0.013708864944055675,0.04859335051625967
1768216529123173600,9.678173583984375,0.09376257180273533,0.006088380002975464,0.046196664638072246
1768216529133173800,9.688173828125,0.09386194052398204,0.006221870189532637,0.04674816104099154
1768216529143174700,9.698174560546875,0.08917407496869563,-0.02737783626914024,0.01845700931921601
1768216529153175600,9.708175537109375,0.03374854034483433,-0.017049699804559348,-0.010616963343322277
1768216529163175700,9.71817578125,-0.00215630125105381,0.007905512427538633,-0.014096622152626513
1768216529173176600,9.728176513671874,-0.010229717591404914,0.0001134703118354082,-0.022149434096366164
1768216529183176400,9.738176513671876,-0.010079495465755463,0.0006830868933349847,-0.021472703878581523
1768216529193177600,9.748177490234376,-0.009041969111561774,0.013178630524873733,-0.029369010086357592
1768216529203178800,9.7581787109375,-0.014130816683173179,0.021402853512763977,-0.03469458902329206
1768216529213178600,9.7681787109375,-0.03421089715957641,0.002021715085953474,-0.039410219368338585
1768216529223179500,9.778179443359376,-0.045079497176408766,-0.014881561985239386,-0.04271145287081599
1768216529233180400,9.788180419921876,-0.04504208777546882,-0.014045257291570305,-0.04284647742733359
1768216529243180500,9.7981806640625,-0.019135493102669716,-0.02305069378502667,-0.031884938430041074
1768216529253181700,9.808181640625,-0.009422492861747742,-0.019209508186951278,0.0010972937174141407
1768216529263182600,9.8181826171875,-0.02127425869703293,-0.02278006015010178,-0.004897562783211469
1768216529273182700,9.8281826171875,-0.02133329540789127,-0.02256444463804364,-0.005355097292363643
1768216529283183600,9.83818359375,-0.012135843473672867,-0.0048651948835700745,-0.0022106617867946625
1768216529293184500,9.8481845703125,-0.007385434076189994,0.0010290507867932318,0.029250352142751214
1768216529303184400,9.858184326171875,-0.012303601256012917,0.028414778101444244,0.003571867137402296
1768216529313185800,9.868185791015625,0.010705518409609795,0.012317045259475707,0.008525982413440943
1768216529323186700,9.878186767578125,0.009957330390810966,0.025625878035277126,0.015011983431875705
1768216529333186600,9.8881865234375,0.01279752225279808,0.02461947747170925,0.0278906080968678
1768216529343187500,9.8981875,0.003186228820681572,0.012518047724291681,0.0057188160382211205
1768216529353188600,9.908188720703125,0.01810147387981415,0.009277239172160626,0.0000564063623547554
1768216529363188500,9.9181884765625,0.021628478962182996,0.009508709840476512,-0.013579174149781464
1768216529373189600,9.928189697265625,0.02836392469704151,-0.0013484189342707394,-0.008595540518313646
1768216529383189800,9.938189697265624,0.015007599517703056,-0.001897431119158864,0.008632803788781165
1768216529393189000,9.948189208984376,-0.017813889110088348,0.003508957969024777,0.0055297232069075105
1768216529403190000,9.95818994140625,-0.024898878934979437,-0.0073883566856384275,0.0031665012069046496
1768216529413190400,9.9681904296875,0.0038069910675287244,0.010847484163567423,0.012385872711986302
1768216529423191300,9.97819140625,-0.002410568273067474,0.006132146079465746,0.02395034603849053
1768216529433192200,9.988192138671875,0.017305939587950705,0.008332797928899526,0.03944382937699556
1768216529443192300,9.9981923828125,0.023178046491742134,0.015762144212052225,0.023064503114670513
1768216529453193200,10.008193115234375,0.004717676171660423,0.018533435556292534,0.0173160225905478
1768216529463194000,10.018194091796875,0.0055360068172216415,-0.0017837416116148232,0.02304565228372812
1768216529473194200,10.0281943359375,-0.022840777361392974,-0.007273132808133959,0.009217764069885014
1768216529483195400,10.0381953125,-0.03523264142274856,0.014504180040210484,0.0006831599585711955
1768216529493196300,10.0481962890625,-0.023138299003243445,-0.002831570164114237,-0.0025604981377720833
1768216529503196200,10.058196044921875,0.0035942250996828075,-0.0035471710875630376,-0.02251563706025481
1768216529513197000,10.068197021484375,0.0005664017111063003,0.003876256911456585,-0.021972470094263553
1768216529523198200,10.0781982421875,-0.012909165933728216,0.0045317982107400895,-0.0016419219881296156
1768216529533198300,10.0881982421875,-0.01272562606036663,0.004893398064747452,-0.0006580255173146725
1768216529543199200,10.09819921875,0.005956862577795982,0.01852883244641125,-0.013705430877953766
1768216529553200000,10.1082001953125,-0.012440963900089263,0.016130466067790984,-0.011056085412949323
1768216529563200300,10.1182001953125,0.0008820435315370559,0.015229425574839115,-0.012506138090789317
1768216529573201200,10.128201171875,0.02560731946527958,0.008600216693431138,-0.00918181597366929
1768216529583201300,10.138201171875,0.02580196525454521,0.009303250396251678,-0.00827010795623064
1768216529593202400,10.148202392578124,0.0192798700094223,0.017305574261769652,-0.020788521006703375
1768216529603203300,10.158203369140624,0.019101006311178205,0.019305223646387457,-0.0035142917312681672
1768216529613203200,10.168203125,-0.007425181564688682,0.01312251642346382,0.016275281365960837
1768216529623204400,10.178204345703126,-0.0116594581335783,0.01054185228049755,0.01829714258238673
1768216529633205200,10.188205322265626,-0.011545476365089416,0.010474120806530117,0.019041385078430173
1768216529643205000,10.198205078125,-0.024435353076457975,-0.0027018793698400257,0.017136720500886438
1768216529653206300,10.208206298828125,-0.015630699852108954,-0.02219071595482528,0.01530994346514344
1768216529663207200,10.218207275390625,-0.0243558580994606,-0.027667539930716155,0.005672346547991037
1768216529673207300,10.228207275390625,-0.006704466074705123,-0.009443243388831615,0.014902677838504314
1768216529683208200,10.238208251953125,-0.006517419070005416,-0.00921732567846775,0.015976152288913727
1768216529693209000,10.248208984375,0.01598082846403122,-0.02712802622653544,0.014533552265167235
1768216529703209200,10.258209228515625,0.004081716355681419,-0.01086041671037674,0.015581892274320124
1768216529713210400,10.26821044921875,-0.03260463100671768,0.01086136655844748,0.013725596883147954
1768216529723211300,10.278211181640625,-0.011796236255764961,0.010070800702646375,0.007193126374483108
1768216529733211400,10.28821142578125,-0.011489362263679503,0.01058795644454658,0.008901829988509417
1768216529743212300,10.29821240234375,-0.013612345767021179,0.009769406603276728,0.0005088263049721717
1768216529753212200,10.308212158203125,-0.012880524361133575,0.015801234113425017,0.005608049140125513
1768216529763213000,10.318213134765625,-0.007533902636170387,0.021281930546835064,0.004078647615760564
1768216529773214500,10.32821435546875,-0.014160627299547195,0.014611951263621449,-0.007236965516209602
1768216529783214300,10.33821435546875,-0.013693009787797927,0.014134031553566455,-0.004254150313138962
1768216529793215200,10.34821533203125,-0.0010094693034887314,0.0312350231539458,-0.005247983656078576
1768216529803216100,10.358216064453124,-0.005141454541683197,0.011457871146872639,-0.007849690587073565
1768216529813216300,10.36821630859375,-0.013918635237216948,-0.012922463806718586,-0.022546032198518515
1768216529823217200,10.378217041015626,0.04268704908192158,0.003450798041000962,-0.014948270545899867
1768216529833218300,10.38821826171875,-0.01643383292853832,0.0011175327878445386,-0.01980155579596758
1768216529843218400,10.398218505859376,0.05557283414006233,-0.059309682580828665,-0.05900017824023961
1768216529853219300,10.40821923828125,0.015890812093019485,-0.0073738167036324735,-0.0015213643483817576
1768216529863220200,10.41822021484375,-0.021973346877098083,0.012861746595427393,-0.0011969546996057033
1768216529873220000,10.42822021484375,0.003267477363348007,0.01700469161905348,-0.005893880344182253
1768216529883221200,10.43822119140625,0.009034954848885536,0.005663213393464684,0.025523878965526818
1768216529893222400,10.448222412109375,0.007243395256996154,0.0017475743196904657,0.025066198325902223
1768216529903222300,10.45822216796875,-0.011873977667093276,0.019021292138472198,-0.020882629030942915
1768216529913223200,10.46822314453125,-0.06380524043440819,0.00393792397081852,-0.005143792629241943
1768216529923224300,10.478224365234375,-0.07046469832360744,-0.009893179113417864,0.05532981916442513
1768216529933224200,10.48822412109375,-0.018668460112810134,-0.0006144786365330219,0.018621698361635207
1768216529943225000,10.49822509765625,0.03536474336981773,0.010018266797810793,0.053806847380846734
1768216529953225200,10.50822509765625,0.08109539793133735,0.0067124301854521035,0.048611178433895105
1768216529963226400,10.518226318359375,0.024104513686895368,0.004530702232196927,0.009068710988014936
1768216529973227300,10.528227294921875,-0.006867547681927681,-0.005872545295208692,-0.0064088441289961336
1768216529983227100,10.53822705078125,-0.006198854640126228,-0.0033940994177013633,-0.003110679366439581
1768216529993228300,10.548228271484374,-0.05698620806932449,0.0067920712929219005,-0.03361410031020641
1768216530003229200,10.558229248046874,-0.03576747895181179,-0.0064024874534457914,-0.031056963173300027
1768216530013229000,10.56822900390625,-0.029157120901346204,0.010417202987521886,-0.046226036863029
1768216530023230200,10.578230224609374,0.0015168343037366865,0.019415406022593378,-0.04937178754284978
1768216530033231400,10.5882314453125,0.0017699322819709777,0.02111037337221205,-0.04843260699659586
1768216530043231200,10.598231201171876,0.023539281019568443,0.0101938425604254,-0.04283332568481564
1768216530053232000,10.608232177734376,0.04153437191545963,0.014844006453827023,-0.01987988172918558
1768216530063233000,10.61823291015625,0.030090017837285994,-0.014277823938429355,-0.006697451812028884
1768216530073233200,10.628233154296876,0.030115736800432204,-0.013802899903059005,-0.006731061820685863
1768216530083234300,10.638234375,0.008469137659668922,-0.007813084903731941,-0.002846329341828823
1768216530093235200,10.648235107421876,-0.03766074535250664,-0.0051425505202263595,0.018934709833562373
1768216530103235300,10.6582353515625,-0.039462241816520686,0.00622479279898107,0.010860708971321582
1768216530113236200,10.668236328125,-0.038839141482114786,-0.007506868498772383,0.008961305090785026
1768216530123237000,10.678237060546875,-0.04556114321351051,-0.015395210595801472,0.0028517361693084237
1768216530133237200,10.6882373046875,-0.045448915010690684,-0.015086363842338323,0.0034613925002515314
1768216530143238400,10.69823828125,-0.022202479457855223,0.016324308139458298,-0.0010157529138028621
1768216530153238300,10.70823828125,-0.02373626489639282,0.023044044848531484,0.0019274609312415123
1768216530163239200,10.7182392578125,0.02324994268417358,0.028330168557912108,-0.001169043779373169
1768216530173240000,10.728239990234375,0.003954290583729743,0.014381284312903881,-0.012796353209018707
1768216530183240200,10.738240234375,0.003968319109082222,0.01493256152011454,-0.012941168507188558
1768216530193241300,10.748241455078125,-0.007491232538223266,0.01872574325799942,0.00895823635086417
1768216530203242200,10.7582421875,-0.019703648379445073,0.0030832068376243113,-0.005990910977870225
1768216530213242400,10.768242431640624,-0.01963935097157955,0.0036492432225495573,-0.0058066404521465295
1768216530223243300,10.7782431640625,-0.03390694577693939,0.0010477554872632027,0.008846738800406456
1768216530233244200,10.788244140625,-0.01847907502055168,0.007905658558011055,0.021625556352734564
1768216530243244300,10.798244384765624,-0.016028759258985517,0.00424954720325768,0.0062817106179893015
1768216530253245400,10.808245361328124,-0.005168927070498466,0.0015201222393661736,0.0007893968120217322
1768216530263246300,10.818246337890624,-0.0016337386816740035,0.013024316745996474,0.007913987994939089
1768216530273246200,10.82824609375,0.011032266145944594,0.009274608823657035,0.007336041976511478
1768216530283247400,10.838247314453126,0.005724222865700721,0.013388766144216059,0.0030595337010920045
1768216530293248300,10.848248291015626,0.0006926584392786026,0.007272511753626167,-0.0024190438404679297
1768216530303248100,10.858248046875,0.004275777623057365,-0.007681019489280879,-0.01283215517476201
1768216530313249300,10.868249267578125,0.0043920974791049954,-0.006305749080702662,0.003879033390432596
1768216530323250200,10.878250244140625,-0.010856909579038619,-0.008910817012563348,-0.005310089106857777
1768216530333250300,10.888250244140625,0.015117489632964134,-0.02567106888387352,-0.012086743634939194
1768216530343251200,10.898251220703125,0.010754618248343468,-0.017090177945420146,-0.023266747688502072
1768216530353252000,10.908252197265625,-0.004230184915661812,-0.017711524714156983,-0.01664762180969119
1768216530363252200,10.918252197265625,0.0075333181142807,-0.01844078883677721,0.002635316939651966
1768216530373253400,10.92825341796875,-0.012798691296577453,-0.0021553514029830695,0.017475597066432237
1768216530383253200,10.938253173828125,-0.017492402070760724,-0.010381291423924266,0.0013480536080896853
1768216530393254400,10.94825439453125,-0.047993338796496386,-0.007884177378565073,-0.011185264750570058
1768216530403255300,10.95825537109375,-0.02941957122981548,0.00012822948954999445,0.009709785370528697
1768216530413255200,10.968255126953125,-0.06005027181506157,0.0019728709755465388,0.0019340368025004863
1768216530423256300,10.97825634765625,-0.05639467191696167,0.016125607229582964,-0.005795972927659749
1768216530433257200,10.98825732421875,-0.030003508597612378,0.011910875611379742,0.00007876432463526726
1768216530443257300,10.99825732421875,0.007031798332929611,0.02429630993194878,-0.0008745908774435519
1768216530453258200,11.00825830078125,0.010111059647798537,0.031965492852963504,-0.0026209961533546445
1768216530463259100,11.018259033203124,0.0045031566381454466,0.023329949117824433,-0.008846592669934034
1768216530473259300,11.02825927734375,0.009959083956480026,0.026632826588116585,-0.012065700846910476
1768216530483260400,11.038260498046874,0.010045008674263953,0.026522242353111503,-0.01144201599061489
1768216530493261300,11.04826123046875,0.0003863689690828323,0.000907616364210844,0.007405015559494495
1768216530503261400,11.058261474609376,0.017322890722751616,-0.014870748330280183,-0.01634936951547861
1768216530513262300,11.068262451171876,0.014768530064821242,0.0058901540171355,0.0009964636914432047
1768216530523263200,11.07826318359375,0.009613631519675253,0.018737579826265574,-0.041838615559041496
1768216530533263000,11.08826318359375,0.009516600885987282,0.01797437690142542,-0.04216916268765926
1768216530543264500,11.098264404296875,-0.06034837797880172,0.03138462422508746,0.05302358804866671
1768216530553265400,11.108265380859375,0.017949498188495634,-0.0014926131779327988,-0.019175386721640823
1768216530563265300,11.118265380859375,0.005958031621575355,-0.03625489714257419,-0.012287965295463799
1768216530573266200,11.12826611328125,-0.05741232452690601,-0.00498458347953856,0.005384761778265238
1768216530583266300,11.138266357421875,-0.05715513489544391,-0.004221344022080302,0.006800473795086145
1768216530593267200,11.14826708984375,0.009694295540452003,0.017750103158876297,0.015566986966133118
1768216530603268400,11.158268310546875,0.013963643422722816,-0.0030997561136260625,0.016627017413079738
1768216530613268500,11.1682685546875,0.008690671455860137,-0.0071964873753488055,0.009992840095609426
1768216530623269400,11.178269287109375,0.009845102187991141,-0.011804784888401627,-0.0006977730058133602
1768216530633270300,11.188270263671875,0.010149053570628166,-0.011484284229762852,0.0012291034035384655
1768216530643270100,11.198270263671875,-0.006000701719522476,-0.05536131028123199,-0.03349325040951371
1768216530653271300,11.208271240234374,-0.03235445563793182,-0.04745473840776831,-0.00623275690972805
1768216530663272400,11.2182724609375,-0.03437631685435772,-0.033519225100986656,0.010073357985913753
1768216530673272300,11.228272216796874,-0.026420389413833616,-0.006663038085773587,0.015345453169941901
1768216530683273200,11.238273193359374,-0.02626782920062542,-0.005654482097737491,0.01595496337041259
1768216530693274400,11.2482744140625,-0.01221884558200836,0.02507591600231826,-0.004251373834162951
1768216530703274200,11.258274169921876,-0.01314823538661003,0.03891260857712477,-0.022409546337276695
1768216530713275100,11.268275146484376,-0.008893500551581382,0.04722052779309451,-0.022553192591667173
1768216530723276300,11.2782763671875,-0.035956279522180556,0.046123453271389,-0.009105681997537612
1768216530733276400,11.2882763671875,-0.03441723338663578,0.04360957075431943,-0.0003596270926296711
1768216530743277300,11.29827734375,-0.008135375660657883,0.03755052644368261,0.01306304132118821
1768216530753278200,11.3082783203125,0.06202712484598159,0.03836217162013054,0.018326514807343482
1768216530763278300,11.3182783203125,0.09714578450024128,0.030296134868636724,0.019546558121591805
1768216530773279200,11.328279296875,0.08061608998179436,0.0250410638846457,0.03319675168097019
1768216530783279000,11.338279052734375,0.08073007175028324,-0.0015758710145950317,0.017353870382905007
1768216530793280300,11.3482802734375,0.010209259325265884,-0.005016366857290268,-0.0013387012578547
1768216530803281400,11.358281494140625,-0.024856793358922002,-0.013937522600777446,-0.006024228725582361
1768216530813281300,11.36828125,-0.04738660507500171,-0.0034526977371424432,-0.0025963001035153865
1768216530823282200,11.3782822265625,-0.038412440502643586,-0.017819149807095525,-0.026356968788802622
1768216530833283000,11.388282958984375,-0.03771744397580623,-0.013529197528213261,-0.028169863429665563
1768216530843283200,11.398283203125,-0.017516951990127563,-0.011439166446402669,-0.03541457386091351
1768216530853284400,11.408284423828125,-0.03359890274107456,-0.013356909701228142,-0.03181450354233384
1768216530863285200,11.41828515625,-0.018445757272839546,-0.00511642969828099,-0.022363369107991457
1768216530873285400,11.428285400390624,0.00945522608757019,-0.012602730333060025,-0.017197656907886265
1768216530883286300,11.438286376953124,0.017597616010904312,-0.011417612201720476,0.009085223731398582
1768216530893287200,11.448287109375,0.0002636193722486496,-0.024376499028690157,-0.0040653497427701945
1768216530903287300,11.458287353515624,-0.01932137106359005,-0.04031827412396669,0.01107815111428499
1768216530913288400,11.468288330078124,-0.03441957147419453,-0.027836649419926106,-0.019577683912217616
1768216530923289300,11.478289306640624,-0.041300563159584996,-0.01517977774683386,-0.0030510581336915493
1768216530933289200,11.488289306640626,-0.041267829933762545,-0.01484499283451587,-0.0029649872854351994
1768216530943290000,11.4982900390625,-0.022655483922362326,-0.009137100049108266,0.024022972883284092
1768216530953291300,11.508291259765626,-0.008730418944358826,0.0022191373541951176,0.02585077283233404
1768216530963291100,11.518291015625,-0.007380173379182815,0.01629475325141102,0.021134704095870257
1768216530973292300,11.528292236328125,0.0030699089646339414,0.006974515187740326,0.005234831913560629
1768216530983293200,11.538293212890625,0.0030108722537755964,0.007021897993423044,0.004807838673144578
1768216530993293300,11.548293212890625,0.01615501598715782,0.023666743324138224,-0.011295008735358714
1768216531003294200,11.558294189453125,0.005346037203073501,0.018309125281125306,-0.007894991033524274
1768216531013294300,11.56829443359375,-0.022406477597355843,0.009389978831633925,0.0022562544941902157
1768216531023295500,11.57829541015625,-0.03987549879252911,0.02364917113482952,0.0061475628443062305
1768216531033296400,11.58829638671875,-0.039977790123224256,0.023322532996349035,0.005576484958082437
1768216531043296300,11.598296142578125,-0.015555296528339386,0.016283099346235393,0.013802899903059005
1768216531053297400,11.60829736328125,0.009653379008173943,0.03441376278791576,0.021021014588326215
1768216531063298300,11.61829833984375,0.014831658428907393,0.02993500993866473,0.019715484947711227
1768216531073298200,11.628298095703125,0.014840426257252692,0.03013575667515397,0.019691811811178923
1768216531083299300,11.63829931640625,0.01955225721001625,0.043270401927828786,0.01634557012319565
1768216531093300200,11.64830029296875,-0.0010083002597093581,0.0021219240574166178,0.00522694086804986
1768216531103300400,11.65830029296875,-0.012443886509537696,-0.0022279782477766276,-0.011381371844559908
1768216531113301200,11.66830126953125,-0.02640577636659145,0.001452500363253057,-0.006894727949798107
1768216531123302100,11.67830224609375,-0.026015315744280815,-0.014609284382499754,-0.009001929362118244
1768216531133302300,11.68830224609375,-0.02593698981106281,-0.014312602990865706,-0.008578589383512735
1768216531143303400,11.698303466796874,-0.0004734627306461334,-0.002288220535032451,-0.006932575742155313
1768216531153304300,11.70830419921875,-0.0004208557605743408,-0.0020912731908261776,-0.00665273588746786
1768216531163304400,11.718304443359376,0.0025818331867456436,-0.0066190528135746714,-0.021918694080412388
1768216531173305300,11.728305419921876,0.008715221375226973,0.008506510527990757,-0.012684709528088568
1768216531183306200,11.73830615234375,0.017981646892428396,0.0019565043626353145,-0.017140081501752138
1768216531193306000,11.74830615234375,0.013034838140010833,-0.00889382934514433,-0.014711539180576801
1768216531203307300,11.758307373046875,0.0022340426623821256,-0.009640154200419783,-0.018580489568412302
1768216531213308400,11.768308349609375,-0.009018003714084625,-0.008473521573841571,-0.01592588340640068
1768216531223308300,11.778308349609375,-0.00949789618551731,0.006498495173826813,-0.008300649224966764
1768216531233309200,11.78830908203125,-0.011185995402932166,-0.010202719986625015,0.005574000740051269
1768216531243309300,11.798309326171875,-0.012998597782850264,-0.013569566071219742,0.00824175864458084
1768216531253310200,11.808310302734375,-0.027854221609234807,-0.004982793381251394,0.006771539961546659
1768216531263311400,11.818311279296875,-0.01900280663371086,-0.011845263029262422,0.011620587427914142
1768216531273311500,11.8283115234375,-0.021927754169702527,-0.006384769133664667,0.019542320337891578
1768216531283312400,11.8383125,-0.0266214649438858,-0.0027072861973196265,0.0045082712046802045
1768216531293313300,11.848313232421875,0.0036900866895914074,-0.012202405903860927,0.009524638061970472
1768216531303313200,11.858313232421875,0.0016290625065565108,-0.0048255935255438085,0.011633593039959669
1768216531313314300,11.868314208984375,0.00879120922088623,-0.014727503934688866,0.007053571773320436
1768216531323315500,11.8783154296875,0.010849310794472693,-0.013865662940964103,-0.005122019188851118
1768216531333315300,11.8883154296875,0.02712473829090595,-0.022570837846212086,0.001928337714076042
1768216531343316200,11.898316162109374,0.0032931963264942166,-0.013216514849849044,0.004864098905026913
1768216531353317400,11.9083173828125,-0.012001987960934638,-0.005105396847613156,0.0034719138942658897
1768216531363317200,11.918317138671876,0.0008802899658679962,-0.0016543065456673502,0.006462912403792142
1768216531373318100,11.928318115234376,0.0009077624946832656,-0.002036291600577533,0.006811871971935033
1768216531383319300,11.9383193359375,-0.013591887500882149,-0.015497976850531994,0.00031008886247873305
1768216531393319200,11.948319091796876,0.008292027527093886,0.01099624498449266,-0.009168225839734078
1768216531403320000,11.958320068359376,0.01793663870692253,0.004579473277367651,0.002006371386349201
1768216531413321000,11.968321044921876,0.013103227201104163,0.013967442815005778,0.0015755787536501883
1768216531423321000,11.978321044921875,0.0202776488751173,-0.010985285199061036,-0.00230900759473443
1768216531433322200,11.988322265625,0.020417349606752396,-0.011084909648634492,-0.0013014379873871802
1768216531443323100,11.9983232421875,0.0022767127603292464,-0.024030644733086227,-0.022403408857434987
1768216531453323000,12.008322998046875,-0.017297171759605406,-0.02093132701087743,-0.018555793518573043
1768216531463324200,12.01832421875,-0.04326806384027004,0.005564392661489546,-0.008778642000257969
1768216531473325000,12.028324951171875,-0.04341010265946388,0.005264423334226012,-0.009637012395262717
1768216531483325000,12.038324951171875,-0.06557984889149665,0.02243866283390671,-0.004028232602775097
1768216531493326000,12.048326171875,-0.02741407662630081,0.04613594742678106,-0.004072071744501591
1768216531503326200,12.058326171875,-0.03938566944897175,0.03499967291709036,-0.005471855539828539
1768216531513327000,12.0683271484375,-0.0732329939931631,0.019225399875827134,0.00939136707112193
1768216531523328000,12.078327880859375,-0.08875438825190067,0.03521470390725881,-0.002437017888575792
1768216531533328100,12.088328125,-0.08908639668524265,0.03479468839690089,-0.0045553252167999745
1768216531543329300,12.098329345703124,0.006960486662387848,0.01374737032353878,0.03641381403133273
1768216531553330200,12.108330078125,0.062360886844992636,0.019792349576205015,0.042510231210291384
1768216531563330000,12.118330078125,0.1004781437933445,0.00629709085021168,0.04289952278882265
1768216531573331200,12.128331298828124,0.08123509866297245,0.0043363852364942425,0.03642988838329911
