time,seconds_elapsed,z,y,x
1768216519502551800,0.0575517578125,0.0009678675560280681,0.009418928995728493,0.00155102857388556
1768216519512552000,0.067552001953125,-0.0006596582243219018,0.0037071239203214645,0.0035675051622092724
1768216519522553000,0.077552978515625,-0.005765204317867756,-0.01310940645635128,-0.001929525751620531
1768216519532554000,0.087553955078125,-0.008140242658555508,-0.019063809886574745,-0.006435382645577192
1768216519542553900,0.097553955078125,-0.007781514432281256,-0.018096551299095154,-0.007263891864567995
1768216519552554800,0.1075546875,-0.005229521077126265,-0.01435426902025938,-0.008067892864346504
1768216519562555000,0.117554931640625,-0.0025197546929121017,-0.01727069541811943,-0.00930439867079258
1768216519572556000,0.12755615234375,-0.0001527214189991355,-0.01568928360939026,-0.013826577924191952
1768216519582557000,0.137556884765625,-0.0005705713992938399,-0.011573635041713715,-0.013791157864034176
1768216519592557000,0.14755712890625,-0.0008739358745515347,-0.010166529566049576,-0.015226123854517937
1768216519602558000,0.157557861328125,0.001674709259532392,-0.00477229617536068,-0.01680750958621502
1768216519612558800,0.167558837890625,0.0017140171257779002,-0.006840325426310301,-0.01881636306643486
1768216519622558700,0.177558837890625,0.001695907674729824,-0.007191330194473267,-0.020401742309331894
1768216519632560000,0.18756005859375,0.0019075680756941438,-0.01123502291738987,-0.01909423992037773
1768216519642561000,0.19756103515625,0.0010002291528508067,-0.019772319123148918,-0.017309922724962234
1768216519652561000,0.207560791015625,0.0019180760718882084,-0.0271962471306324,-0.012778336182236671
1768216519662561800,0.217561767578125,0.000726844125892967,-0.04001910239458084,-0.009491195902228355
1768216519672563000,0.22756298828125,-0.00005774619057774544,-0.04166167229413986,-0.012123025953769684
1768216519682562800,0.237562744140625,-0.005517758894711733,-0.039631813764572144,-0.011332066729664803
1768216519692564000,0.24756396484375,-0.010499284602701664,-0.0376085489988327,-0.011064142920076847
1768216519702564000,0.257564208984375,-0.013520640321075916,-0.04236309230327606,-0.01736305095255375
1768216519712565000,0.26756494140625,-0.013907857239246368,-0.05280197411775589,-0.024300891906023026
1768216519722566000,0.27756591796875,-0.014765927568078041,-0.057760778814554214,-0.023684902116656303
1768216519732565800,0.287565673828125,-0.011242611333727837,-0.06291812658309937,-0.02165815979242325
1768216519742567000,0.29756689453125,-0.0052313245832920074,-0.0580834224820137,-0.030350985005497932
1768216519752568000,0.307568115234375,-0.0015081415185704827,-0.05378519743680954,-0.03463154658675194
1768216519762568000,0.31756787109375,0.002237061969935894,-0.04758775606751442,-0.03580067306756973
1768216519772568800,0.32756884765625,0.00402408093214035,-0.043181538581848145,-0.02714778110384941
1768216519782570000,0.337570068359375,0.00424858508631587,-0.03592069819569588,-0.017053604125976562
1768216519792569900,0.34756982421875,0.0030122168827801943,-0.03486855328083038,-0.013865976594388485
1768216519802570800,0.35757080078125,0.001056657754816115,-0.03985319286584854,-0.010461126454174519
1768216519812571000,0.36757080078125,-0.0007051605498418212,-0.0367358922958374,-0.0064323837868869305
1768216519822572000,0.377572021484375,0.0000719497911632061,-0.0288326945155859,-0.009303005412220955
1768216519832573000,0.387572998046875,-0.0029297976288944483,-0.030238809064030647,-0.010021915659308434
1768216519842572800,0.39757275390625,-0.007122412323951721,-0.025045378133654594,-0.013755401596426964
1768216519852574000,0.407573974609375,-0.007108259946107864,-0.018447380512952805,-0.01723800227046013
1768216519862574800,0.417574951171875,-0.007468053139746189,-0.013506152667105198,-0.016382597386837006
1768216519872574700,0.42757470703125,-0.00978175364434719,-0.019318990409374237,-0.019077831879258156
1768216519882576000,0.437575927734375,-0.007747364230453968,-0.02102474682033062,-0.01687992364168167
1768216519892577000,0.447576904296875,-0.008470321074128151,-0.014369182288646698,-0.01910616271197796
1768216519902577000,0.457576904296875,-0.004935508128255606,-0.013973969034850597,-0.021439092233777046
1768216519912577800,0.467577880859375,-0.0030818944796919823,-0.015398184768855572,-0.020017080008983612
1768216519922578000,0.477577880859375,-0.0006869138451293111,-0.016716182231903076,-0.020262625068426132
1768216519932578800,0.487578857421875,-0.003975118976086378,-0.009906746447086334,-0.019612811505794525
1768216519942580000,0.497580078125,-0.004748500883579254,-0.006262477487325668,-0.02120085433125496
1768216519952580000,0.507580078125,-0.009657422080636024,-0.00704183429479599,-0.014942755922675133
1768216519962581000,0.5175810546875,-0.008162323385477066,-0.008345717564225197,-0.012959498912096024
1768216519972582000,0.527581787109375,-0.008641029708087444,-0.018554605543613434,-0.018235841765999794
1768216519982581800,0.537581787109375,-0.006910774391144514,-0.019085640087723732,-0.01719428040087223
1768216519992583000,0.5475830078125,-0.005578266456723213,-0.013049779459834099,-0.013406019657850266
1768216520002584000,0.557583984375,-0.002209367696195841,-0.009975425899028778,-0.013692842796444893
1768216520012584000,0.567583984375,-0.003265645354986191,-0.009128663688898087,-0.013972010463476181
1768216520022584800,0.577584716796875,-0.004949828144162893,-0.00614192895591259,-0.007799603510648012
1768216520032586000,0.5875859375,-0.0050585465505719185,-0.00011727586388587952,-0.004970104433596134
1768216520042585900,0.5975859375,-0.004776251036673784,0.0016177734360098839,-0.003902442753314972
1768216520052586800,0.607586669921875,-0.005940753035247326,0.0011074766516685486,-0.001227706205099821
1768216520062587100,0.617587158203125,-0.004442192148417234,0.004339755512773991,-0.0018455595709383488
1768216520072588000,0.627588134765625,-0.0015053189126774669,0.009818194434046745,-0.0043173483572900295
1768216520082589000,0.6375888671875,-0.002218247391283512,0.017262794077396393,-0.008512360975146294
1768216520092588800,0.6475888671875,-0.00015898398123681545,0.018614966422319412,-0.005951964296400547
1768216520102590000,0.65758984375,-0.001523587736301124,0.020788639783859253,-0.0014797179028391838
1768216520112591000,0.667591064453125,-0.0034017707221210003,0.02108008973300457,0.0010330223012715578
1768216520122591000,0.677591064453125,-0.0035991109907627106,0.02204415388405323,-0.001528139691799879
1768216520132591900,0.687591796875,-0.0021082356106489897,0.01793331280350685,-0.006919428240507841
1768216520142593000,0.697593017578125,-0.0030704354867339134,0.013868531212210655,-0.010082997381687164
1768216520152593000,0.707593017578125,-0.0027682811487466097,0.01602569781243801,-0.0071481866762042046
1768216520162593800,0.71759375,-0.0027744064573198557,0.014985734596848488,-0.0006554005667567253
1768216520172595000,0.727594970703125,-0.0018415010999888182,0.016596946865320206,0.00024714507162570953
1768216520182595000,0.737594970703125,0.0005385660333558917,0.020139750093221664,-0.0013653989881277084
1768216520192596000,0.747595947265625,-0.00014486920554190874,0.017799774184823036,-0.000352401752024889
1768216520202595800,0.757595947265625,0.0016820592572912574,0.015206120908260345,0.00019887275993824005
1768216520212597000,0.767596923828125,-0.0009993560379371047,0.016925889998674393,-0.000135933980345726
1768216520222598000,0.777597900390625,-0.0006179915508255363,0.02221306413412094,-0.00006642565131187439
1768216520232597800,0.78759765625,0.001241070101968944,0.017942626029253006,0.002697771182283759
1768216520242599000,0.797598876953125,0.0018205740489065647,0.013645084574818611,0.00045459065586328506
1768216520252600000,0.80760009765625,0.002412457251921296,0.01580497995018959,-0.0005524377338588238
1768216520262600000,0.817599853515625,0.0020095210056751966,0.014437180012464523,0.005627959966659546
1768216520272600800,0.827600830078125,0.002540996763855219,0.014718884602189064,0.011659322306513786
1768216520282601700,0.837601806640625,0.004358071833848953,0.01704009622335434,0.008664865046739578
1768216520292601900,0.847601806640625,0.003787470515817404,0.018632659688591957,-0.0006093345582485199
1768216520302603000,0.85760302734375,0.00271022180095315,0.021341361105442047,0.0011494169011712074
1768216520312604000,0.86760400390625,0.004978078417479992,0.023418568074703217,0.00454984325915575
1768216520322604000,0.87760400390625,0.007111536804586649,0.018479470163583755,-0.0007184217683970928
1768216520332605000,0.88760498046875,0.006125580985099077,0.011941099539399147,-0.0013872915878891945
1768216520342604800,0.897604736328125,0.008437737822532654,0.004664279520511627,-0.00040245475247502327
1768216520352605700,0.907605712890625,0.003309022169560194,-0.004965711385011673,0.004279915243387222
1768216520362607000,0.917607177734375,0.0031841197051107883,-0.015279334969818592,0.002318763406947255
1768216520372607000,0.92760693359375,0.005321009550243616,-0.02026274986565113,0.0015818122774362564
1768216520382608100,0.937608154296875,-0.0007081205258145928,-0.02459811046719551,-0.0018360884860157967
1768216520392609000,0.947609130859375,0.0036896108649671078,-0.034191571176052094,-0.006657059770077467
1768216520402609200,0.957609130859375,0.004080030135810375,-0.04090726748108864,-0.005535868462175131
1768216520412610000,0.967610107421875,0.00653079291805625,-0.03721169754862785,-0.0015153419226408005
1768216520422611200,0.977611083984375,0.00823095440864563,-0.040408022701740265,-0.0018666130490601063
1768216520432611300,0.987611328125,0.005033654626458883,-0.04048972576856613,-0.002058462705463171
1768216520442612200,0.9976123046875,0.005877344403415918,-0.037925634533166885,-0.005521637387573719
1768216520452613000,1.007613037109375,0.0023704632185399532,-0.03929034620523453,-0.007404014468193054
1768216520462613000,1.017613037109375,0.0011568606132641435,-0.03649109601974487,-0.008806968107819557
1768216520472614100,1.0276142578125,0.00017010606825351715,-0.032330747693777084,-0.007205226458609104
1768216520482614000,1.037614013671875,0.0017035541823133826,-0.026276851072907448,-0.005727171897888184
1768216520492615200,1.047615234375,0.0014126688474789262,-0.013101517222821712,-0.002739440184086561
1768216520502616000,1.057615966796875,0.002873679157346487,-0.0011516476515680552,-0.0002427268773317337
1768216520512616200,1.0676162109375,0.001555825350806117,0.008380172774195671,0.007396331988275051
1768216520522617000,1.0776171875,0.0001518068602308631,0.011998875066637993,0.011923972517251968
1768216520532618000,1.087617919921875,-0.0033108899369835854,0.011514455080032349,0.014534834772348404
1768216520542618000,1.0976181640625,-0.0024309814907610416,0.011727241799235344,0.01535721868276596
1768216520552619300,1.107619384765625,-0.0034087407402694225,0.013714183121919632,0.009989042766392231
1768216520562620200,1.1176201171875,-0.003308073151856661,0.013896342366933823,0.005407606717199087
1768216520572620000,1.1276201171875,-0.001854185713455081,0.012849044054746628,0.0030353316105902195
1768216520582621200,1.13762109375,-0.00040223030373454094,0.014106590300798416,0.00527957733720541
1768216520592622000,1.1476220703125,0.00040038570296019316,0.014420093968510628,0.006402789615094662
1768216520602622000,1.1576220703125,0.0026369085535407066,0.0054223379120230675,0.0016594333574175835
1768216520612623000,1.167623046875,0.003561337711289525,0.004139363300055265,0.0006968909874558449
1768216520622623200,1.177623291015625,0.0016848742961883545,0.007327166851609945,0.0001035383902490139
1768216520632624000,1.1876240234375,0.0006526561919599771,0.008401153609156609,-0.0018503274768590927
1768216520642625000,1.197625,-0.0009734699269756675,0.006719367578625679,0.0006266788113862276
1768216520652625200,1.207625244140625,-0.0008420617086812854,0.004102537874132395,-0.0017360853962600231
1768216520662626000,1.2176259765625,-0.0009978568414226174,0.0043219816870987415,-0.0031859101727604866
1768216520672627200,1.227627197265625,-0.00023995258379727602,0.004265202209353447,-0.0033987010829150677
1768216520682627300,1.23762744140625,0.002708699321374297,-0.001929576974362135,-0.005938025191426277
1768216520692628200,1.247628173828125,0.005434825085103512,-0.005296086426824331,-0.007007824257016182
1768216520702629000,1.257629150390625,0.003667285433039069,-0.0027945791371166706,-0.006270129233598709
1768216520712629000,1.26762890625,0.00227057165466249,-0.006630337797105312,-0.005895162001252174
1768216520722630100,1.277630126953125,-0.00083494046702981,-0.015697868540883064,-0.009194020181894302
1768216520732631300,1.28763134765625,-0.0011197769781574607,-0.018969129770994186,-0.014464197680354118
1768216520742631200,1.297631103515625,0.00006213388405740261,-0.027490712702274323,-0.015226393938064575
1768216520752632000,1.307632080078125,-0.0009517160942777991,-0.024969736114144325,-0.01785479672253132
1768216520762632200,1.317632080078125,-0.00029657839331775904,-0.025158820673823357,-0.019279321655631065
1768216520772633000,1.327633056640625,0.0006234065513126552,-0.02764933556318283,-0.01707351580262184
1768216520782634000,1.337634033203125,0.0025075930170714855,-0.023819178342819214,-0.015374417416751385
1768216520792634000,1.347634033203125,0.0018680011853575706,-0.01608012057840824,-0.011048572137951851
1768216520802635300,1.35763525390625,0.004490416031330824,-0.02334548905491829,-0.013832639902830124
1768216520812636200,1.36763623046875,0.003594124922528863,-0.027777982875704765,-0.012239092960953712
1768216520822636000,1.377635986328125,0.001351210754364729,-0.022534484043717384,-0.0102973822504282
1768216520832637200,1.38763720703125,0.001248625572770834,-0.019406111910939217,-0.009047976695001125
1768216520842638000,1.39763818359375,-0.0016281211283057928,-0.013789771124720573,-0.010025089606642723
1768216520852638000,1.407637939453125,-0.0018516284180805087,-0.010113665834069252,-0.010792948305606842
1768216520862639000,1.41763916015625,-0.001534179667942226,-0.012066029012203217,-0.009523686021566391
1768216520872640300,1.42764013671875,-0.0020447003189474344,-0.009053554385900497,-0.011409510858356953
1768216520882640100,1.43764013671875,-0.0029011729639023542,-0.0017226715572178364,-0.006896518170833588
1768216520892641000,1.44764111328125,-0.0036222124472260475,0.008401701226830482,-0.005634399130940437
1768216520902642000,1.457641845703125,-0.002691171132028103,0.007381444796919823,-0.004678057506680489
1768216520912642000,1.46764208984375,-0.0015507141361013055,0.003036821261048317,-0.0035766763612627983
1768216520922643200,1.477643310546875,-0.002597336657345295,0.001172608695924282,-0.004141798708587885
1768216520932643000,1.48764306640625,-0.0028853993862867355,0.004995634313672781,-0.003427641000598669
1768216520942644200,1.497644287109375,-0.005987982265651226,0.003673907835036516,-0.004238307476043701
1768216520952645000,1.50764501953125,-0.007204962428659201,0.00634414330124855,-0.0036261091008782387
1768216520962645000,1.51764501953125,-0.007872084155678749,0.00748344324529171,-0.001364818774163723
1768216520972646100,1.527646240234375,-0.005811247043311596,0.004285937175154686,-0.0036059310659766197
1768216520982647300,1.537647216796875,-0.006307393312454224,0.0017583309672772884,-0.0027662361972033978
1768216520992647200,1.547647216796875,-0.0024671151768416166,0.0038558365777134895,-0.0033249673433601856
1768216521002648000,1.55764794921875,-0.0025129218120127916,0.006637508049607277,0.00031291041523218155
1768216521012649000,1.56764892578125,-0.001673957915045321,0.011575931683182716,0.0032150261104106903
1768216521022649000,1.577649169921875,-0.001554381917230785,0.012472882866859436,0.0020171361975371838
1768216521032650200,1.587650146484375,-0.0031165846157819033,0.01214948296546936,-0.0016607297584414482
1768216521042651100,1.597651123046875,-0.0025221670512109995,0.012758813798427582,-0.006549227982759476
1768216521052651300,1.6076513671875,-0.0028297393582761288,0.013956105336546898,-0.009181400761008263
1768216521062652200,1.617652099609375,-0.0022078913170844316,0.014830421656370163,-0.007453275844454765
1768216521072652000,1.627652099609375,-0.005568039137870073,0.009652156382799149,-0.0037773284129798412
1768216521082653000,1.63765283203125,-0.005405852571129799,-0.000030298251658678055,-0.0029813097789883614
1768216521092654300,1.647654296875,-0.004701904021203518,-0.006565932184457779,-0.0015351851470768452
1768216521102654200,1.657654296875,-0.006013510748744011,-0.0066098738461732864,-0.002341590356081724
1768216521112655000,1.667655029296875,-0.0065737939439713955,-0.010339761152863503,0.0045854817144572735
1768216521122656000,1.677656005859375,-0.005902943667024374,-0.01767171174287796,0.00600947393104434
1768216521132656000,1.68765625,-0.003329881001263857,-0.021127579733729362,0.003863561199977994
1768216521142657000,1.697656982421875,-0.0028848666697740555,-0.021084701642394066,0.00907004065811634
1768216521152658200,1.707658203125,-0.0006426603067666292,-0.02290358394384384,0.0039934213273227215
1768216521162658300,1.717658203125,-0.006036626640707254,-0.02769647352397442,-0.00863981619477272
1768216521172659200,1.7276591796875,-0.003197005018591881,-0.024930866435170174,-0.031185640022158623
1768216521182660000,1.73766015625,-0.0010837864829227328,-0.03165242075920105,-0.03351377323269844
1768216521192660000,1.747659912109375,-0.003662669099867344,-0.03379348665475845,-0.02129635401070118
1768216521202661000,1.7576611328125,0.001588019193150103,-0.030142826959490776,-0.019941870123147964
1768216521212661000,1.767660888671875,0.0009567126980982721,-0.030670059844851494,-0.02206689491868019
1768216521222662100,1.777662109375,-0.0006752723129466176,-0.03251882642507553,-0.018186135217547417
1768216521232663000,1.7876630859375,-0.0006571022095158696,-0.037778884172439575,-0.010392019525170326
1768216521242663200,1.7976630859375,0.0003458443097770214,-0.04342478886246681,-0.0035823164507746696
1768216521252664000,1.8076640625,0.0012563486816361547,-0.0504058375954628,-0.0006329198367893696
1768216521262665000,1.8176650390625,0.00013808731455355883,-0.05450977012515068,-0.002649199217557907
1768216521272665000,1.8276650390625,-0.004935180768370628,-0.06067787483334541,-0.002214155625551939
1768216521282666200,1.837666259765625,-0.004261667374521494,-0.056599508970975876,-0.0021158847957849503
1768216521292667100,1.847667236328125,-0.002641004975885153,-0.05440792068839073,-0.005996997468173504
1768216521302667300,1.857667236328125,0.00019259843975305557,-0.04779209569096565,-0.006520574912428856
1768216521312668200,1.867668212890625,-0.002587178722023964,-0.047417547553777695,-0.0026426916010677814
1768216521322669000,1.8776689453125,-0.00007475260645151138,-0.048752591013908386,-0.006277373526245356
1768216521332669000,1.8876689453125,-0.0009847694309428334,-0.04423701763153076,0.001063710544258356
1768216521342670000,1.897670166015625,-0.006234925240278244,-0.03869843855500221,0.007371407467871904
1768216521352671200,1.907671142578125,-0.009670333936810493,-0.03615766018629074,0.012085271999239922
1768216521362671000,1.917671142578125,-0.012375574558973312,-0.028303999453783035,0.01911947876214981
1768216521372672000,1.927672119140625,-0.01671808585524559,-0.034403689205646515,0.023887084797024727
1768216521382673000,1.9376728515625,-0.015465867705643177,-0.04244430363178253,0.015336206182837486
1768216521392673800,1.947673828125,-0.015446609817445278,-0.04836622625589371,0.017054149881005287
1768216521402674700,1.9576748046875,-0.01558056753128767,-0.052859243005514145,0.029758227989077568
1768216521412674600,1.967674560546875,-0.015192984603345394,-0.05406772717833519,0.038563068956136703
1768216521422676000,1.977676025390625,-0.013442755676805973,-0.054527655243873596,0.04309923201799393
1768216521432676900,1.9876767578125,-0.012952765449881554,-0.058099862188100815,0.04004053398966789
1768216521442676700,1.9976767578125,-0.0031992034055292606,-0.054008446633815765,0.025506068021059036
1768216521452677600,2.007677734375,-0.004401605110615492,-0.03784755989909172,0.020221425220370293
1768216521462678800,2.0176787109375,-0.0013155339984223247,-0.023534134030342102,0.02682872861623764
1768216521472678700,2.0276787109375,-0.001463065855205059,-0.023245008662343025,0.03730769455432892
1768216521482679800,2.0376796875,0.004027573391795158,-0.025876211002469063,0.030305709689855576
1768216521492680700,2.0476806640625,0.0018979795277118683,-0.027749765664339066,0.02207455039024353
1768216521502680800,2.057680908203125,-0.0016054088482633233,-0.01743561029434204,0.026119358837604523
1768216521512681700,2.067681640625,-0.004449382424354553,-0.017912819981575012,0.03606826439499855
1768216521522681600,2.077681640625,-0.009530693292617798,-0.0248106736689806,0.04249127581715584
1768216521532682800,2.087682861328125,-0.011478399857878685,-0.03269866853952408,0.04852932319045067
1768216521542684000,2.097683837890625,-0.015610028058290482,-0.042061012238264084,0.05159622058272362
1768216521552683800,2.107683837890625,-0.014647501520812511,-0.04626273363828659,0.04953717440366745
1768216521562684700,2.1176845703125,-0.013247744180262089,-0.0477604940533638,0.039272285997867584
1768216521572685800,2.127685791015625,-0.012501518242061138,-0.04775339737534523,0.03272460028529167
1768216521582685700,2.137685791015625,-0.004712305031716824,-0.0410078763961792,0.019430365413427353
1768216521592686600,2.1476865234375,0.0033300304785370827,-0.04528234899044037,0.006824244745075703
1768216521602687700,2.157687744140625,0.005212885327637196,-0.048079732805490494,0.002143206773325801
1768216521612688000,2.16768798828125,0.0077312542125582695,-0.04638208448886871,-0.0023536025546491146
1768216521622688800,2.177688720703125,0.005110437516123056,-0.031828440725803375,-0.007571800146251917
1768216521632689700,2.187689697265625,0.014664619229733944,-0.005307560786604881,-0.018144119530916214
1768216521642689800,2.197689697265625,0.0033749467693269253,-0.01907104253768921,0.005307410378009081
1768216521652690700,2.207690673828125,0.004296734929084778,-0.0021316176280379295,-0.00034641148522496223
1768216521662690600,2.217690673828125,0.0010263732401654124,0.007040042895823717,-0.004468985367566347
1768216521672691700,2.227691650390625,0.0002767310943454504,0.012588221579790115,0.0023444602265954018
1768216521682692900,2.23769287109375,0.0004386513028293848,0.020171038806438446,0.004051546566188335
1768216521692692700,2.247692626953125,0.0026964268181473017,0.024667957797646523,0.005232991650700569
1768216521702693600,2.257693603515625,0.0024306434206664562,0.020405035465955734,0.0011921774130314589
1768216521712694500,2.267694580078125,-0.001313791610300541,0.021453414112329483,-0.0017812969163060188
1768216521722694700,2.277694580078125,0.00026120187249034643,0.023284338414669037,-0.011295439675450325
1768216521732695800,2.28769580078125,-0.00200839014723897,0.024540415033698082,-0.011334246024489403
1768216521742696700,2.29769677734375,-0.001961784902960062,0.05698384344577789,-0.030857611447572708
1768216521752696800,2.30769677734375,-0.0012327939039096236,0.05383294075727463,-0.042605411261320114
1768216521762697700,2.31769775390625,-0.0018312061438336968,0.07517044991254807,-0.023965947329998016
1768216521772698600,2.32769873046875,-0.010586286894977093,0.08542543649673462,-0.025193022564053535
1768216521782698800,2.33769873046875,-0.020966490730643272,0.08675328642129898,-0.037163130939006805
1768216521792700000,2.347699951171875,-0.013214468955993652,0.09551515430212021,-0.046815063804388046
1768216521802699800,2.35769970703125,-0.01151244342327118,0.12207778543233871,-0.08418799936771393
1768216521812700700,2.36770068359375,-0.015108197927474976,0.14793987572193146,-0.127533420920372
1768216521822701600,2.37770166015625,-0.019961807876825333,0.16613219678401947,-0.14926108717918396
1768216521832701700,2.38770166015625,-0.021112294867634773,0.17754517495632172,-0.1630980670452118
1768216521842702600,2.39770263671875,-0.016066934913396835,0.2069517970085144,-0.17372940480709076
1768216521852703700,2.407703857421875,-0.014460030943155289,0.23220428824424744,-0.19066011905670166
1768216521862703900,2.417703857421875,-0.010996855795383453,0.26013579964637756,-0.24182608723640442
1768216521872704800,2.427704833984375,-0.0071274652145802975,0.29118335247039795,-0.3200879395008087
1768216521882705700,2.43770556640625,-0.0003076419234275818,0.30238327383995056,-0.3739602267742157
1768216521892705800,2.447705810546875,0.010602438822388649,0.3055046796798706,-0.3865768611431122
1768216521902707000,2.45770703125,0.0159684419631958,0.31928494572639465,-0.3998021185398102
1768216521912707800,2.467707763671875,0.017580552026629448,0.34926170110702515,-0.42406952381134033
1768216521922707700,2.477707763671875,0.020808037370443344,0.3948590159416199,-0.4613924026489258
1768216521932708900,2.487708984375,0.02169104851782322,0.44513174891471863,-0.5041664242744446
1768216521942708700,2.497708740234375,0.019394073635339737,0.49706950783729553,-0.5418642163276672
1768216521952709600,2.507709716796875,0.012851303443312645,0.5491496324539185,-0.5701358318328857
1768216521962710800,2.517710693359375,0.0054192193783819675,0.5973570942878723,-0.5941455960273743
1768216521972711000,2.5277109375,-0.003402105998247862,0.6663759350776672,-0.6204715371131897
1768216521982711800,2.5377119140625,-0.016549065709114075,0.7221899032592773,-0.6585369110107422
1768216521992712700,2.547712646484375,-0.027776062488555908,0.7601977586746216,-0.7075424194335938
1768216522002712800,2.557712890625,-0.042734239250421524,0.7906001210212708,-0.7619675397872925
1768216522012713700,2.567713623046875,-0.05462520942091942,0.7761116623878479,-0.8284441232681274
1768216522022715000,2.57771484375,-0.04659444838762283,0.7191866040229797,-0.9111341834068298
1768216522032714800,2.58771484375,-0.05147344619035721,0.6338436603546143,-0.970620334148407
1768216522042716000,2.5977158203125,-0.0583590492606163,0.5923681259155273,-0.9926105737686157
1768216522052716800,2.607716796875,-0.06879293918609619,0.5712670087814331,-0.9951722025871277
1768216522062716700,2.617716552734375,-0.08838901668787003,0.5603381991386414,-0.9909707903862
1768216522072717600,2.627717529296875,-0.09890946745872498,0.5684425830841064,-0.9796522855758667
1768216522082719000,2.637718994140625,-0.10926889628171921,0.5912208557128906,-0.9766037464141846
1768216522092718800,2.64771875,-0.11860773712396622,0.65428626537323,-0.9963508248329163
1768216522102719700,2.6577197265625,-0.1327480524778366,0.7659659385681152,-1.0453050136566162
1768216522112720000,2.667719970703125,-0.15287593007087708,0.8527218699455261,-1.102615475654602
1768216522122720800,2.677720703125,-0.1681603342294693,0.8709506988525391,-1.1410198211669922
1768216522132721700,2.6877216796875,-0.17844413220882416,0.858643651008606,-1.1342029571533203
1768216522142721500,2.697721435546875,-0.1710999310016632,0.7980090379714966,-1.081110954284668
1768216522152723000,2.707722900390625,-0.12826335430145264,0.7024003267288208,-0.9857637286186218
1768216522162723800,2.717723876953125,-0.08248867839574814,0.6354913711547852,-0.8775797486305237
1768216522172723700,2.7277236328125,-0.051499221473932266,0.657629668712616,-0.7954782247543335
1768216522182724600,2.737724609375,-0.03721828758716583,0.6992644667625427,-0.7718730568885803
1768216522192725800,2.747725830078125,-0.04716666787862778,0.6966874599456787,-0.8174863457679749
1768216522202725600,2.7577255859375,-0.08388207852840424,0.6611292362213135,-0.8973553776741028
1768216522212726800,2.767726806640625,-0.11921101063489914,0.6201249361038208,-0.9684689044952393
1768216522222727700,2.777727783203125,-0.16670234501361847,0.6064847707748413,-1.0131268501281738
1768216522232727800,2.787727783203125,-0.21561792492866516,0.5753889083862305,-1.0397343635559082
1768216522242728700,2.797728759765625,-0.27126893401145935,0.4916255474090576,-1.0505797863006592
1768216522252728600,2.807728515625,-0.32564517855644226,0.40880250930786133,-1.0399739742279053
1768216522262729700,2.817729736328125,-0.3491675555706024,0.3203829228878021,-1.0311640501022339
1768216522272731000,2.82773095703125,-0.35108235478401184,0.25163665413856506,-1.0570448637008667
1768216522282730800,2.837730712890625,-0.3380504548549652,0.2749771475791931,-1.1638551950454712
1768216522292731600,2.847731689453125,-0.30376186966896057,0.37996160984039307,-1.2870651483535767
1768216522302732800,2.85773291015625,-0.25534266233444214,0.5016965866088867,-1.378042221069336
1768216522312732700,2.867732666015625,-0.2153191864490509,0.5982838273048401,-1.3846523761749268
1768216522322733600,2.877733642578125,-0.18118011951446533,0.6944354176521301,-1.323419213294983
1768216522332734700,2.887734619140625,-0.1246597021818161,0.8217098712921143,-1.2583763599395752
1768216522342734800,2.89773486328125,-0.13573285937309265,0.9807295799255371,-1.2136235237121582
1768216522352735700,2.90773583984375,-0.1776074469089508,1.0719799995422363,-1.1805181503295898
1768216522362736600,2.917736572265625,-0.24373213946819305,1.101969599723816,-1.1681698560714722
1768216522372736800,2.92773681640625,-0.3063945472240448,1.0660896301269531,-1.1762456893920898
1768216522382737400,2.9377373046875,-0.3503204584121704,0.9616249203681946,-1.1806527376174927
1768216522392737300,2.9477373046875,-0.3635943531990051,0.8672299385070801,-1.1554827690124512
1768216522402738700,2.95773876953125,-0.35412469506263733,0.8405522704124451,-1.097217082977295
1768216522412739600,2.967739501953125,-0.3634898066520691,0.8473573923110962,-0.9875434637069702
1768216522422739500,2.977739501953125,-0.3496754765510559,0.8032458424568176,-0.8699971437454224
1768216522432740400,2.987740234375,-0.33968642354011536,0.7229229211807251,-0.7797605395317078
1768216522442741500,2.997741455078125,-0.3378256857395172,0.6402219533920288,-0.6977626085281372
1768216522452741400,3.007741455078125,-0.3396916687488556,0.6069530844688416,-0.6270837783813477
1768216522462742500,3.017742431640625,-0.3210601806640625,0.5882284045219421,-0.5959773063659668
1768216522472743400,3.027743408203125,-0.2951086759567261,0.6043196320533752,-0.6050429940223694
1768216522482743600,3.03774365234375,-0.28814661502838135,0.6411383748054504,-0.6332511901855469
1768216522492744400,3.047744384765625,-0.27446797490119934,0.6557309031486511,-0.6435357928276062
1768216522502745300,3.057745361328125,-0.2547965347766876,0.5919852256774902,-0.6237311959266663
1768216522512745500,3.067745361328125,-0.23710469901561737,0.43134257197380066,-0.5996522307395935
1768216522522746600,3.07774658203125,-0.23025718331336975,0.257113516330719,-0.6009446382522583
1768216522532747500,3.08774755859375,-0.25322097539901733,0.06927391141653061,-0.6392934322357178
1768216522542747400,3.097747314453125,-0.28474482893943787,-0.10869022458791733,-0.6818334460258484
1768216522552748500,3.10774853515625,-0.3142233192920685,-0.25726181268692017,-0.6971496939659119
1768216522562748400,3.11774853515625,-0.3338231146335602,-0.41017624735832214,-0.6553292870521545
1768216522572749600,3.12774951171875,-0.3507276773452759,-0.5671747326850891,-0.5936446189880371
1768216522582750500,3.13775048828125,-0.3631736934185028,-0.7618606090545654,-0.5342039465904236
1768216522592750600,3.14775048828125,-0.3822227418422699,-0.9517902731895447,-0.47967246174812317
1768216522602751500,3.15775146484375,-0.40995529294013977,-1.075879454612732,-0.43888670206069946
1768216522612752400,3.16775244140625,-0.42779919505119324,-1.14542818069458,-0.40629252791404724
1768216522622752500,3.17775244140625,-0.42225953936576843,-1.1875474452972412,-0.35107776522636414
1768216522632753700,3.187753662109375,-0.4125315546989441,-1.2239786386489868,-0.2549910545349121
1768216522642754600,3.197754638671875,-0.3951469659805298,-1.2727549076080322,-0.13616693019866943
1768216522652754400,3.20775439453125,-0.37213313579559326,-1.332932949066162,-0.023955881595611572
1768216522662755600,3.217755615234375,-0.3543536067008972,-1.4114398956298828,0.050277069211006165
1768216522672756500,3.227756591796875,-0.35832449793815613,-1.4624701738357544,0.10735376179218292
1768216522682756400,3.23775634765625,-0.38695773482322693,-1.5233253240585327,0.15276385843753815
1768216522692757500,3.247757568359375,-0.420752614736557,-1.5924642086029053,0.18436399102210999
1768216522702757600,3.257757568359375,-0.4480838179588318,-1.6539528369903564,0.17176644504070282
1768216522712758500,3.267758544921875,-0.48738181591033936,-1.6873183250427246,0.13742560148239136
1768216522722759400,3.277759521484375,-0.5551691055297852,-1.7521679401397705,0.07755640894174576
1768216522732759600,3.287759521484375,-0.6323219537734985,-1.8716896772384644,0.025087036192417145
1768216522742760400,3.297760498046875,-0.677192747592926,-1.9660345315933228,0.02499222755432129
1768216522752761600,3.30776171875,-0.6813356876373291,-2.02205753326416,0.0871618241071701
1768216522762761500,3.317761474609375,-0.6608855128288269,-2.020453929901123,0.20140370726585388
1768216522772762600,3.3277626953125,-0.6217740774154663,-2.0186140537261963,0.31810781359672546
1768216522782763500,3.337763427734375,-0.5846506953239441,-2.060590982437134,0.41765278577804565
1768216522792763400,3.347763427734375,-0.552181601524353,-2.1247293949127197,0.44484132528305054
1768216522802764300,3.357764404296875,-0.5457910895347595,-2.1970632076263428,0.3998386859893799
1768216522812765700,3.367765625,-0.5546364188194275,-2.2549121379852295,0.33924373984336853
1768216522822765600,3.377765625,-0.5441017150878906,-2.330646276473999,0.3253321945667267
1768216522832766500,3.387766357421875,-0.5382968783378601,-2.4156835079193115,0.3623516857624054
1768216522842766600,3.3977666015625,-0.5346214771270752,-2.447456121444702,0.40061119198799133
1768216522852767500,3.407767578125,-0.5389124751091003,-2.4162235260009766,0.42615336179733276
1768216522862768400,3.417768310546875,-0.559404194355011,-2.353048086166382,0.41890689730644226
1768216522872768500,3.4277685546875,-0.5672927498817444,-2.222318410873413,0.3674904406070709
1768216522882769700,3.437769775390625,-0.5725109577178955,-2.072817325592041,0.32913506031036377
1768216522892770600,3.4477705078125,-0.57829350233078,-1.9259456396102905,0.31938523054122925
1768216522902770400,3.4577705078125,-0.5696699023246765,-1.8130848407745361,0.34577956795692444
1768216522912771600,3.467771484375,-0.5664710402488708,-1.7381913661956787,0.3865855038166046
1768216522922772500,3.4777724609375,-0.5607516169548035,-1.6640737056732178,0.4390620291233063
1768216522932772400,3.4877724609375,-0.5739551186561584,-1.5976243019104004,0.5132631659507751
1768216522942773500,3.4977734375,-0.6094422936439514,-1.5534694194793701,0.6100970506668091
1768216522952774400,3.5077744140625,-0.6357800960540771,-1.5821820497512817,0.7080600261688232
1768216522962774500,3.5177744140625,-0.6648154854774475,-1.6350996494293213,0.7455770373344421
1768216522972775400,3.527775390625,-0.6645672917366028,-1.6529632806777954,0.6825312376022339
1768216522982775600,3.537775634765625,-0.666719913482666,-1.6929408311843872,0.5181257724761963
1768216522992776400,3.5477763671875,-0.6607353091239929,-1.740431547164917,0.34760868549346924
1768216523002777600,3.557777587890625,-0.6585847735404968,-1.7083748579025269,0.24279412627220154
1768216523012777500,3.567777587890625,-0.6666803956031799,-1.6241233348846436,0.21177814900875092
1768216523022778600,3.577778564453125,-0.6868578195571899,-1.5491164922714233,0.22053009271621704
1768216523032779500,3.587779541015625,-0.7107358574867249,-1.4922585487365723,0.2585006356239319
1768216523042779400,3.597779296875,-0.7598426938056946,-1.460309624671936,0.2678629755973816
1768216523052780300,3.6077802734375,-0.7657067179679871,-1.4735689163208008,0.2897159159183502
1768216523062781700,3.61778173828125,-0.78155517578125,-1.5086266994476318,0.29539936780929565
1768216523072781600,3.627781494140625,-0.778368353843689,-1.5730277299880981,0.2761213779449463
1768216523082782500,3.637782470703125,-0.7945278882980347,-1.6623594760894775,0.2555985152721405
1768216523092783400,3.647783447265625,-0.8009664416313171,-1.7118796110153198,0.23006552457809448
1768216523102783500,3.657783447265625,-0.7869936227798462,-1.723770260810852,0.20877142250537872
1768216523112784400,3.667784423828125,-0.7856821417808533,-1.7358185052871704,0.2167903184890747
1768216523122785500,3.67778564453125,-0.7976725101470947,-1.7123099565505981,0.2320246696472168
1768216523132785700,3.68778564453125,-0.7918764352798462,-1.6544485092163086,0.2217053472995758
1768216523142786600,3.69778662109375,-0.7896385788917542,-1.6084272861480713,0.16484686732292175
1768216523152786400,3.707786376953125,-0.7965100407600403,-1.5903704166412354,0.09733178466558456
1768216523162787300,3.717787353515625,-0.7885999083518982,-1.5953829288482666,0.05403730273246765
1768216523172788500,3.72778857421875,-0.8059334754943848,-1.596624493598938,0.048843879252672195
1768216523182788600,3.73778857421875,-0.7858769297599792,-1.5788028240203857,0.09423507004976273
1768216523192789500,3.74778955078125,-0.7124319672584534,-1.473517894744873,0.17371587455272675
1768216523202790400,3.757790283203125,-0.6437610387802124,-1.36883544921875,0.18531182408332825
1768216523212790500,3.76779052734375,-0.6085907220840454,-1.394949197769165,0.2664046585559845
1768216523222791400,3.77779150390625,-0.5984547734260559,-1.3522875308990479,0.32262879610061646
1768216523232792300,3.787792236328125,-0.6065446138381958,-1.2686039209365845,0.30392202734947205
1768216523242792700,3.797792724609375,-0.6546908020973206,-1.1579498052597046,0.19398647546768188
1768216523252793600,3.807793701171875,-0.6881142258644104,-1.1540330648422241,0.04745470732450485
1768216523262794500,3.81779443359375,-0.7132107615470886,-1.231091856956482,-0.13709357380867004
1768216523272794400,3.82779443359375,-0.7193499207496643,-1.3706318140029907,-0.3404983878135681
1768216523282795500,3.83779541015625,-0.7228578329086304,-1.4355930089950562,-0.49087804555892944
1768216523292795400,3.84779541015625,-0.7144947648048401,-1.4494174718856812,-0.541761577129364
1768216523302796500,3.857796630859375,-0.693595826625824,-1.4660334587097168,-0.5284639000892639
1768216523312797400,3.86779736328125,-0.7141461968421936,-1.4852803945541382,-0.4835644066333771
1768216523322797600,3.877797607421875,-0.7506101727485657,-1.5126720666885376,-0.43595772981643677
1768216523332798500,3.887798583984375,-0.8142476677894592,-1.5825409889221191,-0.3695198595523834
1768216523342799400,3.89779931640625,-0.8575722575187683,-1.6730259656906128,-0.2940613031387329
1768216523352799500,3.907799560546875,-0.880729615688324,-1.7255393266677856,-0.2127114236354828
1768216523362800600,3.917800537109375,-0.8828375339508057,-1.7450525760650635,-0.1454775333404541
1768216523372801500,3.927801513671875,-0.8721609711647034,-1.7708585262298584,-0.06485223025083542
1768216523382801400,3.937801513671875,-0.8732222318649292,-1.8452941179275513,0.029509160667657852
1768216523392802600,3.947802490234375,-0.8440095782279968,-1.8937901258468628,0.08730647712945938
1768216523402803500,3.957803466796875,-0.7916443347930908,-1.8634912967681885,0.05407901480793953
1768216523412803600,3.967803466796875,-0.7271193265914917,-1.7428404092788696,0.01769946701824665
1768216523422804500,3.977804443359375,-0.6360021829605103,-1.662691593170166,-0.037034086883068085
1768216523432805600,3.9878056640625,-0.5623615384101868,-1.6267743110656738,-0.04621516168117523
1768216523442805500,3.997805419921875,-0.48627689480781555,-1.6307942867279053,-0.06094217300415039
1768216523452806400,4.007806396484375,-0.3970251977443695,-1.5990712642669678,-0.1487676501274109
1768216523462806500,4.017806640625,-0.33821141719818115,-1.57059645652771,-0.2900983989238739
1768216523472807700,4.0278076171875,-0.32903623580932617,-1.5507277250289917,-0.44713690876960754
1768216523482808600,4.03780859375,-0.3513719141483307,-1.5609798431396484,-0.4585128724575043
1768216523492808700,4.04780859375,-0.38898879289627075,-1.6163934469223022,-0.3453971743583679
1768216523502809600,4.0578095703125,-0.44963136315345764,-1.708558201789856,-0.1793075054883957
1768216523512810500,4.067810546875,-0.4894513189792633,-1.8179982900619507,0.0011170431971549988
1768216523522810400,4.077810302734375,-0.49381038546562195,-1.8837155103683472,0.14403478801250458
1768216523532811500,4.0878115234375,-0.4973601996898651,-1.8890397548675537,0.22385279834270477
1768216523542812700,4.097812744140625,-0.5154915452003479,-1.8722662925720215,0.24805161356925964
1768216523552812500,4.1078125,-0.5121008157730103,-1.7074527740478516,0.25605833530426025
1768216523562813400,4.1178134765625,-0.49329113960266113,-1.5309405326843262,0.29842549562454224
1768216523572814600,4.127814697265625,-0.49609068036079407,-1.3409391641616821,0.39073440432548523
1768216523582814500,4.137814453125,-0.49947234988212585,-1.2254687547683716,0.5739023685455322
1768216523592815600,4.147815673828125,-0.4926129877567291,-1.1490974426269531,0.7313728928565979
1768216523602815700,4.157815673828125,-0.4985038936138153,-1.103290319442749,0.8953213691711426
1768216523612816600,4.167816650390625,-0.5154144167900085,-1.0753705501556396,1.0338387489318848
1768216523622817500,4.177817626953125,-0.5182093977928162,-1.120998740196228,1.0108088254928589
1768216523632817400,4.1878173828125,-0.5488037467002869,-1.140692949295044,0.8686923980712891
1768216523642818600,4.197818603515625,-0.5595335960388184,-1.0389481782913208,0.7562023401260376
1768216523652819700,4.20781982421875,-0.5016825795173645,-0.8832451701164246,0.754558265209198
1768216523662819600,4.217819580078125,-0.4359150528907776,-0.7199225425720215,0.8752918839454651
1768216523672820500,4.227820556640625,-0.40530574321746826,-0.5911305546760559,1.042816162109375
1768216523682821600,4.237821533203125,-0.38555359840393066,-0.4169885516166687,1.0930118560791016
1768216523692821500,4.247821533203125,-0.3585405647754669,-0.3179751932621002,1.0501654148101807
1768216523702822400,4.257822509765625,-0.33969712257385254,-0.4584265947341919,0.8903753757476807
1768216523712823600,4.267823486328125,-0.4020943343639374,-0.7023369073867798,0.761560320854187
1768216523722823700,4.27782373046875,-0.42663800716400146,-0.8417880535125732,0.8279989957809448
1768216523732824600,4.287824462890625,-0.3873146176338196,-0.7929260730743408,0.9725886583328247
1768216523742824400,4.297824462890625,-0.3176953196525574,-0.6445022225379944,1.0950684547424316
1768216523752825600,4.30782568359375,-0.2383735477924347,-0.5339341759681702,1.105543851852417
1768216523762826500,4.317826416015625,-0.19212402403354645,-0.4297283887863159,1.001481056213379
1768216523772826400,4.327826416015625,-0.15923570096492767,-0.35824453830718994,0.8079158663749695
1768216523782827500,4.33782763671875,-0.14318270981311798,-0.2881820797920227,0.6325163841247559
1768216523792828700,4.34782861328125,-0.12974275648593903,-0.24968941509723663,0.5569871664047241
1768216523802828500,4.35782861328125,-0.1117539033293724,-0.28388121724128723,0.5961697101593018
1768216523812829400,4.367829345703125,-0.088121697306633,-0.3195318281650543,0.7273752093315125
1768216523822830300,4.377830322265625,-0.04002607241272926,-0.3577423393726349,0.8538660407066345
1768216523832830500,4.38783056640625,-0.0058682756498456,-0.3015331029891968,0.9577627182006836
1768216523842831600,4.39783154296875,0.031798142939805984,-0.10686350613832474,0.9578322172164917
1768216523852832500,4.40783251953125,0.01786067895591259,0.11729957908391953,0.8445698618888855
1768216523862832600,4.41783251953125,-0.015150267630815506,0.33838003873825073,0.6988840103149414
1768216523872833500,4.42783349609375,-0.009728742763400078,0.4303843080997467,0.5728501081466675
1768216523882833400,4.43783349609375,0.006429188884794712,0.44220981001853943,0.49389776587486267
1768216523892834300,4.447834228515625,0.012641659006476402,0.43310579657554626,0.45527181029319763
1768216523902835700,4.457835693359375,0.005560846067965031,0.3974929451942444,0.46886593103408813
1768216523912835600,4.467835693359375,0.007530901115387678,0.3433026671409607,0.5062995553016663
1768216523922836500,4.47783642578125,0.014299324713647366,0.31178709864616394,0.48799434304237366
1768216523932837400,4.48783740234375,-0.0232563279569149,0.30990615487098694,0.4184098243713379
1768216523942837500,4.49783740234375,-0.052729532122612,0.3232480585575104,0.3045032322406769
1768216523952838400,4.50783837890625,-0.04814324900507927,0.34756624698638916,0.18849876523017883
1768216523962839600,4.517839599609375,-0.026876578107476234,0.3237280249595642,0.13049963116645813
1768216523972839700,4.527839599609375,-0.03005896508693695,0.2486535757780075,0.14327791333198547
1768216523982840600,4.537840576171875,-0.022002102807164192,0.21889141201972961,0.2018919587135315
1768216523992840400,4.54784033203125,-0.028664113953709602,0.22805428504943848,0.2307654172182083
1768216524002841600,4.557841552734375,-0.047358438372612,0.20530450344085693,0.21345913410186768
1768216524012842800,4.5678427734375,-0.03615289181470871,0.1492282897233963,0.14743436872959137
1768216524022842600,4.577842529296875,-0.04540045186877251,0.12061315774917603,0.03213654085993767
1768216524032843500,4.587843505859375,-0.08117376267910004,-0.0016545027028769255,-0.09654145687818527
1768216524042844400,4.597844482421875,-0.08641272783279419,-0.05416298285126686,-0.3135283589363098
1768216524052844500,4.607844482421875,-0.15646931529045105,-0.19147515296936035,-0.46473270654678345
1768216524062845400,4.617845458984375,-0.22684015333652496,-0.2725045084953308,-0.5402567386627197
1768216524072846600,4.6278466796875,-0.24427667260169983,-0.22089684009552002,-0.5903748869895935
1768216524082846700,4.6378466796875,-0.30733898282051086,-0.20846626162528992,-0.563520610332489
1768216524092847600,4.64784765625,-0.3629356622695923,-0.14238578081130981,-0.5784002542495728
1768216524102848500,4.6578486328125,-0.4999324381351471,0.0032502412796020508,-0.6466964483261108
1768216524112848600,4.6678486328125,-0.6492066383361816,0.017993535846471786,-0.6338521838188171
1768216524122849500,4.677849609375,-0.7228803038597107,-0.02525939606130123,-0.5432850122451782
1768216524132850700,4.6878505859375,-0.8349872827529907,-0.1647549867630005,-0.3649260401725769
1768216524142850600,4.6978505859375,-0.8922500610351562,-0.25458019971847534,-0.22906805574893951
1768216524152851500,4.7078515625,-0.8814732432365417,-0.2570687234401703,-0.19806262850761414
1768216524162851600,4.7178515625,-0.8602076172828674,-0.1921808123588562,-0.2189793586730957
1768216524172852500,4.7278525390625,-0.8305369019508362,-0.13093754649162292,-0.2536042630672455
1768216524182853400,4.737853271484375,-0.7793629765510559,-0.11263790726661682,-0.1961502730846405
1768216524192853500,4.747853515625,-0.7090752720832825,-0.08133605122566223,-0.06607078015804291
1768216524202854700,4.757854736328125,-0.6522048115730286,-0.03457334637641907,0.054711826145648956
1768216524212855600,4.76785546875,-0.6385523080825806,0.0018873433582484722,0.14875437319278717
1768216524222855700,4.777855712890625,-0.6417806148529053,0.05437159165740013,0.2053862363100052
1768216524232856600,4.787856689453125,-0.6323723196983337,0.0592900849878788,0.25302907824516296
1768216524242857500,4.797857421875,-0.6194722652435303,0.043910328298807144,0.25951600074768066
1768216524252857300,4.807857421875,-0.5957340002059937,0.02965894341468811,0.22079388797283173
1768216524262858800,4.817858642578125,-0.5765550136566162,0.013224311172962189,0.1373293548822403
1768216524272859600,4.827859619140625,-0.5585638880729675,0.00451307650655508,0.0652715340256691
1768216524282859500,4.837859619140625,-0.5194894671440125,0.02073226124048233,0.030546311289072037
1768216524292860400,4.8478603515625,-0.47306522727012634,0.09289675205945969,0.024359002709388733
1768216524302860500,4.857860595703125,-0.428075909614563,0.18174245953559875,0.026413898915052414
1768216524312861400,4.867861328125,-0.3811224400997162,0.2712402641773224,0.027847949415445328
1768216524322862600,4.877862548828125,-0.35425353050231934,0.35510721802711487,0.03309331089258194
1768216524332862700,4.88786279296875,-0.3305259346961975,0.4092544615268707,0.028256144374608994
1768216524342863600,4.897863525390625,-0.3144438862800598,0.4271796643733978,0.029532596468925476
1768216524352864500,4.907864501953125,-0.3068517744541168,0.38749024271965027,0.04435622692108154
1768216524362864400,4.917864501953125,-0.27876874804496765,0.32768842577934265,0.06781069189310074
1768216524372865500,4.927865478515625,-0.26557356119155884,0.3162026107311249,0.08013762533664703
1768216524382866200,4.9378662109375,-0.26041075587272644,0.3060740828514099,0.056186214089393616
1768216524392866000,4.947865966796875,-0.264175146818161,0.3183921277523041,0.03881632164120674
1768216524402867200,4.9578671875,-0.26671475172042847,0.31584692001342773,0.037810709327459335
1768216524412868000,4.9678681640625,-0.27646878361701965,0.2762289047241211,0.04466632753610611
1768216524422868000,4.977867919921875,-0.2845999598503113,0.23775100708007812,0.06174198538064957
1768216524432869000,4.987869140625,-0.2837759256362915,0.20577916502952576,0.10025697946548462
1768216524442869200,4.997869140625,-0.2541370689868927,0.1901133805513382,0.11803863942623138
1768216524452870100,5.0078701171875,-0.23484477400779724,0.18363814055919647,0.12303592264652252
1768216524462871000,5.01787109375,-0.21000893414020538,0.1513047069311142,0.13049863278865814
1768216524472871200,5.02787109375,-0.16642357409000397,0.11275193095207214,0.14948014914989471
1768216524482872000,5.0378720703125,-0.12822452187538147,0.07020740211009979,0.17470481991767883
1768216524492873200,5.047873291015625,-0.10255752503871918,0.01673557423055172,0.2000318318605423
1768216524502873000,5.057873046875,-0.06964191794395447,-0.02653519995510578,0.18876531720161438
1768216524512874200,5.067874267578125,-0.04272327572107315,-0.060981635004282,0.1769266277551651
1768216524522875100,5.077875244140625,-0.01990504562854767,-0.07974199950695038,0.18067821860313416
1768216524532875000,5.087875,0.01332833617925644,-0.07103884220123291,0.17565347254276276
1768216524542876000,5.0978759765625,0.030019698664546013,-0.03301875665783882,0.17629210650920868
1768216524552877300,5.107877197265625,0.04412578046321869,0.008079401217401028,0.18874770402908325
1768216524562877200,5.117877197265625,0.05422741547226906,0.03658028319478035,0.21296116709709167
1768216524572878000,5.127878173828125,0.06874790787696838,0.03886152803897858,0.23256537318229675
1768216524582878200,5.137878173828125,0.07766257226467133,0.036455895751714706,0.2450694441795349
1768216524592879000,5.147879150390625,0.08778645098209381,-0.004209049046039581,0.23977409303188324
1768216524602880300,5.15788037109375,0.08083586394786835,-0.035532351583242416,0.22143769264221191
1768216524612880100,5.167880126953125,0.07859814167022705,-0.03880557045340538,0.19793948531150818
1768216524622881300,5.17788134765625,0.06795348227024078,0.0029970044270157814,0.17822489142417908
1768216524632882200,5.187882080078125,0.06892680376768112,0.06585537642240524,0.15390372276306152
1768216524642882000,5.197882080078125,0.05826111510396004,0.14696994423866272,0.1366075575351715
1768216524652883000,5.207883056640625,0.07021672278642654,0.23872046172618866,0.11206737905740738
1768216524662884400,5.21788427734375,0.068436399102211,0.32608839869499207,0.09372725337743759
1768216524672884200,5.22788427734375,0.05869560316205025,0.34304067492485046,0.06467197835445404
1768216524682885000,5.237885009765625,0.051338087767362595,0.297344833612442,0.04392702132463455
1768216524692886000,5.247885986328125,0.04599622264504433,0.2298891544342041,0.04146112501621246
1768216524702886100,5.25788623046875,0.04195993393659592,0.14664727449417114,0.054405152797698975
1768216524712887000,5.267886962890625,0.03979229927062988,0.0822458565235138,0.0709107369184494
1768216524722887000,5.277886962890625,0.039921995252370834,0.0530962236225605,0.08129413425922394
1768216524732888300,5.287888427734375,0.03647617995738983,0.041565313935279846,0.08008067309856415
1768216524742889200,5.29788916015625,0.0357653833925724,0.03068549931049347,0.07236044108867645
1768216524752889000,5.30788916015625,0.024391768500208855,0.02168557234108448,0.05967964604496956
1768216524762890000,5.317889892578125,0.014729021117091179,0.035304710268974304,0.06449011713266373
1768216524772891100,5.32789111328125,-0.008231132291257381,0.07469625771045685,0.068635955452919
1768216524782891000,5.33789111328125,-0.03429575636982918,0.10540969669818878,0.06702953577041626
1768216524792892200,5.34789208984375,-0.05997544154524803,0.14022758603096008,0.05474889278411865
1768216524802893000,5.35789306640625,-0.0813843235373497,0.1700161099433899,0.065565325319767
1768216524812893200,5.36789306640625,-0.09202433377504349,0.18423978984355927,0.07912853360176086
1768216524822894000,5.37789404296875,-0.10079465806484222,0.18288663029670715,0.0970313549041748
1768216524832895000,5.38789501953125,-0.1130247488617897,0.20013588666915894,0.1099049299955368
1768216524842895000,5.39789501953125,-0.13022184371948242,0.22318901121616364,0.10905005782842636
1768216524852896300,5.407896240234375,-0.13280300796031952,0.20629264414310455,0.10079523175954819
1768216524862896000,5.417896240234375,-0.126752570271492,0.1831473857164383,0.08453663438558578
1768216524872897000,5.42789697265625,-0.1177433505654335,0.16202709078788757,0.07065007090568542
1768216524882898200,5.437898193359375,-0.09690891206264496,0.15497849881649017,0.0750136598944664
1768216524892898000,5.44789794921875,-0.07073471695184708,0.1348433941602707,0.08615392446517944
1768216524902899000,5.45789892578125,-0.040520887821912766,0.09198993444442749,0.09647074341773987
1768216524912900000,5.467900146484375,-0.01187621708959341,0.03727429360151291,0.11670401692390442
1768216524922900200,5.477900146484375,0.014759921468794346,-0.023007957264780998,0.13853713870048523
1768216524932901000,5.487901123046875,0.03659448027610779,-0.08805708587169647,0.15793833136558533
1768216524942902000,5.497902099609375,0.05789657309651375,-0.13788190484046936,0.17468109726905823
1768216524952902100,5.507902099609375,0.07279704511165619,-0.15416067838668823,0.19225572049617767
1768216524962903000,5.517903076171875,0.07696995139122009,-0.15663209557533264,0.2031744122505188
1768216524972904200,5.527904296875,0.07181623578071594,-0.14855888485908508,0.2180519551038742
1768216524982904300,5.537904296875,0.06486804783344269,-0.13096044957637787,0.2199033945798874
1768216524992905200,5.5479052734375,0.044177714735269547,-0.10814742743968964,0.21294967830181122
1768216525002906000,5.557906005859375,0.026608843356370926,-0.08545196801424026,0.18785950541496277
1768216525012906000,5.567906005859375,0.005048241466283798,-0.07041162252426147,0.15022364258766174
1768216525022907100,5.5779072265625,-0.012350988574326038,-0.06981879472732544,0.11337348818778992
1768216525032907000,5.587906982421875,-0.026793988421559334,-0.06832912564277649,0.0901179164648056
1768216525042908200,5.597908203125,-0.04074442386627197,-0.07551167160272598,0.09696463495492935
1768216525052909000,5.607908935546875,-0.0454440712928772,-0.09313513338565826,0.127367302775383
1768216525062909200,5.6179091796875,-0.050487030297517776,-0.10327911376953125,0.15851455926895142
1768216525072910000,5.62791015625,-0.05190829560160637,-0.0908786803483963,0.17256256937980652
1768216525082911000,5.637910888671875,-0.04640274494886398,-0.06924635171890259,0.16365855932235718
1768216525092911000,5.6479111328125,-0.039795055985450745,-0.03612658753991127,0.1436254233121872
1768216525102912300,5.657912353515625,-0.0317203514277935,-0.012215929105877876,0.12407435476779938
1768216525112913200,5.6679130859375,-0.024874459952116013,0.00241643562912941,0.10621727257966995
1768216525122913000,5.6779130859375,-0.022174546495079994,0.018025755882263184,0.09713775664567947
1768216525132914200,5.6879140625,-0.01962469145655632,0.029637236148118973,0.09513404965400696
1768216525142914000,5.6979140625,-0.013516997918486595,0.03737984597682953,0.10060231387615204
1768216525152915200,5.707915283203125,-0.011201910674571991,0.028931766748428345,0.10586472600698471
1768216525162916000,5.717916015625,-0.01853998564183712,0.03301066532731056,0.10800057649612427
1768216525172916200,5.727916259765625,-0.014151073060929775,0.04697621613740921,0.09848439693450928
1768216525182917000,5.737917236328125,-0.0044435844756662846,0.05900624394416809,0.06694058328866959
1768216525192918000,5.74791796875,0.006285454612225294,0.08250702917575836,0.01988437958061695
1768216525202918100,5.757918212890625,0.017192430794239044,0.08128011226654053,-0.013285825029015541
1768216525212919300,5.767919189453125,0.022986959666013718,0.05717923864722252,-0.018430158495903015
1768216525222920200,5.777920166015625,0.030419843271374702,0.033744219690561295,-0.011613264679908752
1768216525232920000,5.787920166015625,0.0373363234102726,0.021036120131611824,0.0005487247835844755
1768216525242921200,5.797921142578125,0.03880532085895538,0.010111832991242409,0.008408245630562305
1768216525252922000,5.807922119140625,0.04092162102460861,-0.002064930973574519,0.026029057800769806
1768216525262922000,5.817921875,0.04753025621175766,-0.008859986439347267,0.042684465646743774
1768216525272923100,5.827923095703125,0.0461304597556591,-0.006427736487239599,0.04811836779117584
1768216525282924300,5.83792431640625,0.04340311512351036,0.012353673577308655,0.04517211392521858
1768216525292924200,5.847924072265625,0.0372588075697422,0.026856696233153343,0.03551722690463066
1768216525302925000,5.857925048828125,0.029771331697702408,0.03624167665839195,0.02841190993785858
1768216525312925200,5.86792529296875,0.027327563613653183,0.030781034380197525,0.022933855652809143
1768216525322926000,5.877926025390625,0.024881981313228607,0.020082319155335426,0.019568685442209244
1768216525332927200,5.88792724609375,0.01913866028189659,0.015561165288090706,0.017589356750249863
1768216525342927000,5.897927001953125,0.015062160789966583,0.012384813278913498,0.02130473218858242
1768216525352928300,5.90792822265625,0.010631710290908813,0.005991548765450716,0.03551623970270157
1768216525362929200,5.91792919921875,0.0024957535788416862,-0.004524741787463427,0.05416103079915047
1768216525372929000,5.927928955078125,-0.0008867201395332813,-0.015454447828233242,0.056148238480091095
1768216525382930000,5.937929931640625,-0.005289990454912186,-0.027947602793574333,0.03813568502664566
1768216525392931600,5.947931640625,-0.006039388477802277,-0.04746055603027344,0.020517146214842796
1768216525402931500,5.957931396484375,-0.008509203791618347,-0.06738712638616562,0.015297350473701954
1768216525412932400,5.967932373046875,-0.010648155584931374,-0.08083825558423996,0.012043624185025692
1768216525422933200,5.977933349609375,-0.011798109859228134,-0.08459677547216415,0.014806387946009636
1768216525432933400,5.987933349609375,-0.012160032987594604,-0.07302134484052658,0.0243932344019413
1768216525442934300,5.997934326171875,-0.010123779997229576,-0.06255272030830383,0.028408750891685486
1768216525452934100,6.00793408203125,-0.008797792717814445,-0.04448557272553444,0.03406583517789841
1768216525462935600,6.017935546875,-0.0073735336773097515,-0.0349421352148056,0.032544638961553574
1768216525472936400,6.0279365234375,-0.005222049541771412,-0.03650662675499916,0.03104666993021965
1768216525482936300,6.037936279296875,-0.0017618043348193169,-0.030471906065940857,0.035106658935546875
1768216525492937200,6.047937255859375,0.0022518918849527836,-0.0191448125988245,0.04032238572835922
1768216525502938400,6.0579384765625,0.005594425369054079,0.0049336254596710205,0.03739716857671738
1768216525512938200,6.067938232421875,0.009663233533501625,0.025491738691926003,0.03304242342710495
1768216525522939400,6.077939453125,0.010936491191387177,0.03969277814030647,0.025187429040670395
1768216525532940300,6.087940185546875,0.013847865164279938,0.05088675022125244,0.017073802649974823
1768216525542940400,6.0979404296875,0.016295310109853745,0.055304136127233505,0.011058520525693893
1768216525552941300,6.10794140625,0.015774039551615715,0.0482107475399971,0.010311873629689217
1768216525562942200,6.117942138671875,0.01825983263552189,0.04070676118135452,0.0051826247945427895
1768216525572942300,6.1279423828125,0.015353023074567318,0.04143897071480751,-0.0030712555162608624
1768216525582943500,6.137943603515625,0.014229435473680496,0.040630169212818146,-0.0037399758584797382
1768216525592943400,6.147943359375,0.012977240607142448,0.039738476276397705,-0.00014487933367490768
1768216525602944300,6.1579443359375,0.01105497032403946,0.039022088050842285,-0.0020101573318243027
1768216525612945400,6.1679453125,0.009313339367508888,0.036803703755140305,-0.014755485579371452
1768216525622945300,6.1779453125,0.004680769983679056,0.02655905671417713,-0.025255531072616577
1768216525632946200,6.1879462890625,0.00035473122261464596,0.014222761616110802,-0.03557714447379112
1768216525642947300,6.197947265625,-0.0014279886381700635,0.0007740641012787819,-0.04129122197628021
1768216525652947500,6.207947509765625,-0.0033726664260029793,-0.005894506350159645,-0.04481273517012596
1768216525662948400,6.2179482421875,-0.007763154339045286,-0.010817360132932663,-0.03961531072854996
1768216525672949200,6.22794921875,-0.009044796228408813,-0.009071996435523033,-0.032091524451971054
1768216525682949400,6.237949462890625,-0.00929513294249773,-0.012107467278838158,-0.013721572235226631
1768216525692950500,6.247950439453125,-0.010094363242387772,-0.010104265064001083,0.0042772660963237286
1768216525702951400,6.257951416015625,-0.004710783716291189,-0.0037249289453029633,0.015824200585484505
1768216525712951300,6.267951416015625,0.00036395376082509756,0.0039408644661307335,0.023175794631242752
1768216525722952400,6.277952392578125,0.0022289655171334743,0.008780093863606453,0.02791968360543251
1768216525732953300,6.287953369140625,0.0047469004057347775,0.019809158518910408,0.02722679078578949
1768216525742953200,6.297953125,0.008694238029420376,0.03307756036520004,0.024847788736224174
1768216525752954400,6.307954345703125,0.00945947878062725,0.04894386604428291,0.01648838445544243
1768216525762954500,6.31795458984375,0.013344497419893742,0.054615866392850876,0.018567781895399094
1768216525772955400,6.327955322265625,0.013735510408878326,0.0553513802587986,0.011349393054842949
1768216525782956300,6.337956298828125,0.009116523899137974,0.06279518455266953,0.0005657209549099207
1768216525792956400,6.347956298828125,0.0007629257161170244,0.062495362013578415,-0.016609646379947662
1768216525802957300,6.357957275390625,-0.0012477608397603035,0.0614846907556057,-0.028588546440005302
1768216525812958500,6.36795849609375,-0.0005190056981518865,0.055504556745290756,-0.03369702771306038
1768216525822958600,6.37795849609375,-0.0001863768557086587,0.04866262897849083,-0.03155398368835449
1768216525832959500,6.38795947265625,0.0002547107869759202,0.03783593699336052,-0.020001120865345
1768216525842960400,6.39796044921875,0.005129893310368061,0.037022873759269714,-0.017330503091216087
1768216525852960300,6.407960205078125,0.009313764981925488,0.036656878888607025,-0.0193414818495512
1768216525862961400,6.41796142578125,0.013610241934657097,0.03619588539004326,-0.0208930391818285
1768216525872962600,6.427962646484375,0.01734740473330021,0.028414830565452576,-0.019071903079748154
1768216525882962400,6.43796240234375,0.015925008803606033,0.014913937076926231,-0.015487555414438248
1768216525892963300,6.44796337890625,0.01366288959980011,0.006215412635356188,-0.004167310893535614
1768216525902963500,6.45796337890625,0.013492180965840816,0.009592832997441292,0.004777181893587112
1768216525912964400,6.46796435546875,0.009828127920627594,0.01920819841325283,0.011632712557911873
1768216525922965200,6.47796533203125,0.009000949561595917,0.03358101099729538,0.011948030441999435
1768216525932965400,6.48796533203125,0.006557614542543888,0.04387731850147247,0.012213806621730328
1768216525942966500,6.497966552734375,0.003630800172686577,0.042687151581048965,-0.00022954680025577545
1768216525952967400,6.507967529296875,0.00042943714652210474,0.04256671294569969,-0.00868472084403038
1768216525962967300,6.51796728515625,0.0026366650126874447,0.037710968405008316,-0.013013423420488834
1768216525972968400,6.527968505859375,-0.00035159976687282324,0.02384854108095169,-0.011015716940164566
1768216525982969300,6.53796923828125,-0.004005723167210817,0.010434730909764767,-0.0027170414105057716
1768216525992969200,6.54796923828125,-0.0041718208231031895,0.010301457718014717,0.007068416103720665
1768216526002970400,6.557970458984375,-0.009408127516508102,0.006924569606781006,0.01485736295580864
1768216526012971500,6.567971435546875,-0.007536130957305431,0.007621468510478735,0.028157565742731094
1768216526022971400,6.577971435546875,-0.008149457164108753,0.013050587847828865,0.044049181044101715
1768216526032972300,6.58797216796875,-0.007248570676892996,0.01670556142926216,0.05283749848604202
1768216526042973200,6.59797314453125,-0.005067707970738411,0.035987380892038345,0.06095641851425171
1768216526052973300,6.607973388671875,-0.005888417363166809,0.045257553458213806,0.05980217829346657
1768216526062974500,6.617974365234375,-0.0016068535624071956,0.05935473367571831,0.05865249037742615
1768216526072974300,6.627974365234375,-0.0005268126260489225,0.0664028599858284,0.05388587713241577
1768216526082975500,6.6379755859375,0.008584925904870033,0.07238565385341644,0.05241874232888222
1768216526092976400,6.647976318359375,0.008722665719687939,0.10429409891366959,0.0589018240571022
1768216526102976300,6.657976318359375,0.005297573748975992,0.14054183661937714,0.05522134155035019
1768216526112977200,6.66797705078125,0.0011983525473624468,0.1641881763935089,0.039987318217754364
1768216526122978600,6.677978515625,-0.0002741091884672642,0.2001642882823944,0.033377617597579956
1768216526132978400,6.687978515625,-0.011001131497323513,0.22489812970161438,0.020474093034863472
1768216526142979300,6.697979248046875,-0.015025967732071877,0.24215488135814667,0.013627372682094574
1768216526152980200,6.707980224609375,-0.0228152796626091,0.2323494255542755,-0.0017272061668336391
1768216526162980400,6.71798046875,-0.022475726902484894,0.21918997168540955,-0.0026148376055061817
1768216526172981200,6.727981201171875,-0.032869402319192886,0.1861434131860733,0.011169450357556343
1768216526182982400,6.737982421875,-0.034365300089120865,0.15366482734680176,0.026102593168616295
1768216526192982500,6.747982421875,-0.03763819858431816,0.12824662029743195,0.034074943512678146
1768216526202983400,6.7579833984375,-0.038797736167907715,0.11817988008260727,0.026786938309669495
1768216526212983300,6.7679833984375,-0.03156616911292076,0.09855818003416061,0.026011254638433456
1768216526222984200,6.777984130859375,-0.03788771480321884,0.07248903065919876,0.02531084418296814
1768216526232985300,6.7879853515625,-0.045409128069877625,0.04974137619137764,0.02364610880613327
1768216526242985500,6.7979853515625,-0.05036207661032677,0.01965058408677578,0.019818346947431564
1768216526252986400,6.807986328125,-0.04537650942802429,0.004910327028483152,0.02168513461947441
1768216526262987300,6.8179873046875,-0.0455956868827343,-0.008907750248908997,0.01704271323978901
1768216526272987400,6.8279873046875,-0.045344289392232895,-0.002980791963636875,0.024255923926830292
1768216526282988300,6.83798828125,-0.03928666561841965,-0.026766814291477203,0.03221478313207626
1768216526292989200,6.8479892578125,-0.035011447966098785,-0.039802584797143936,0.010748029686510563
1768216526302989600,6.857989501953125,-0.02949737012386322,-0.03910590335726738,-0.008459487929940224
1768216526312990500,6.867990478515625,-0.028364628553390503,-0.030926572158932686,-0.018757807090878487
1768216526322991400,6.877991455078125,-0.024486534297466278,-0.02909351885318756,-0.026027170941233635
1768216526332991500,6.887991455078125,-0.017569469287991524,-0.02236422710120678,-0.027317991480231285
1768216526342992400,6.897992431640625,-0.022323744371533394,-0.04260504990816116,-0.020777268335223198
1768216526352992300,6.9079921875,-0.026092056185007095,-0.07908827811479568,-0.004474618472158909
1768216526362993400,6.917993408203125,-0.030309438705444336,-0.10718755424022675,0.011893169954419136
1768216526372994300,6.927994384765625,-0.03068912774324417,-0.12836982309818268,0.01883254572749138
1768216526382994400,6.937994384765625,-0.02141387015581131,-0.12796396017074585,0.015552065335214138
1768216526392995300,6.947995361328125,-0.01408769004046917,-0.11823191493749619,0.017817780375480652
1768216526402996200,6.957996337890625,-0.0029351701959967613,-0.08425583690404892,0.02990666776895523
1768216526412996600,6.96799658203125,-0.007401412818580866,-0.06948984414339066,0.03911592438817024
1768216526422997500,6.97799755859375,-0.00258109113201499,-0.05246585234999657,0.01949961483478546
1768216526432998400,6.987998291015625,-0.005346213933080435,-0.030627382919192314,-0.0019430792890489101
1768216526442998500,6.99799853515625,-0.004633019212633371,-0.02620653621852398,-0.010666262358427048
1768216526452999400,7.00799951171875,-0.008868221193552017,-0.03903371840715408,-0.025336191058158875
1768216526463000300,7.018000244140625,-0.008366481401026249,-0.03575083985924721,-0.03457070514559746
1768216526473000400,7.02800048828125,-0.0035022480878978968,-0.025000032037496567,-0.02443103864789009
1768216526483001300,7.03800146484375,0.0002227150835096836,-0.018566632643342018,-0.010967692360281944
1768216526493002500,7.04800244140625,0.003404264571145177,-0.00642668642103672,0.001755647361278534
1768216526503002400,7.05800244140625,0.005066609941422939,-0.00007105246186256409,0.0003415087703615427
1768216526513003300,7.068003173828125,0.005436301697045565,-0.001318021910265088,-0.006151570472866297
1768216526523003400,7.07800341796875,0.005820062942802906,-0.0011694175191223621,-0.012277904897928238
1768216526533004500,7.088004638671875,0.0057698204182088375,-0.010177236050367355,-0.02019212394952774
1768216526543005400,7.09800537109375,0.004257943946868181,-0.020719358697533607,-0.022989507764577866
1768216526553005600,7.108005615234375,0.007249617483466864,-0.03342040628194809,-0.02909555658698082
1768216526563006500,7.11800634765625,0.008710362017154694,-0.0406452976167202,-0.03566956892609596
1768216526573007400,7.12800732421875,0.011876769363880157,-0.04793282970786095,-0.03961840271949768
1768216526583007200,7.13800732421875,0.009631723165512085,-0.048226840794086456,-0.04371993616223335
1768216526593008600,7.148008544921875,0.013389390893280506,-0.046394363045692444,-0.04574621841311455
1768216526603009500,7.158009521484375,0.013327871449291706,-0.03434329107403755,-0.04156478866934776
1768216526613009400,7.168009521484375,0.01034371554851532,-0.012647202238440514,-0.01745566353201866
1768216526623010300,7.17801025390625,0.014307565055787563,-0.020479559898376465,0.005665900185704231
1768216526633011500,7.188011474609375,0.014406566508114338,-0.03098665177822113,0.022617384791374207
1768216526643011300,7.19801123046875,0.017723267897963524,-0.03446873277425766,0.027769535779953003
1768216526653012500,7.208012451171875,0.01643921248614788,-0.032524459064006805,0.033620186150074005
1768216526663013400,7.218013427734375,0.019612900912761688,-0.025499042123556137,0.03771692514419556
1768216526673013500,7.228013427734375,0.018239151686429977,-0.023156316950917244,0.037900254130363464
1768216526683014400,7.238014404296875,0.0204802006483078,-0.02559950202703476,0.03463628515601158
1768216526693014300,7.24801416015625,0.018664786592125893,-0.031954921782016754,0.0281665101647377
1768216526703015400,7.258015380859375,0.018124697729945183,-0.03232909366488457,0.026248501613736153
1768216526713016600,7.2680166015625,0.020167849957942963,-0.030451765283942223,0.027120059356093407
1768216526723016400,7.278016357421875,0.015035140328109264,-0.02351529709994793,0.0271911658346653
1768216526733017300,7.288017333984375,0.012139744125306606,-0.01642347127199173,0.03085491806268692
1768216526743018500,7.2980185546875,0.009185233153402805,-0.015678850933909416,0.040273185819387436
1768216526753018400,7.308018310546875,0.008138694800436497,-0.0180989820510149,0.0404512919485569
1768216526763019300,7.318019287109375,0.006309635937213898,-0.022088663652539253,0.04660292714834213
1768216526773020400,7.3280205078125,0.0072511169128119946,-0.025890016928315163,0.04429864138364792
1768216526783020500,7.3380205078125,0.006645247805863619,-0.028974223881959915,0.04142509028315544
1768216526793021400,7.348021484375,0.009664831683039665,-0.034488238394260406,0.03387812525033951
1768216526803022300,7.358022216796875,0.008345235139131546,-0.03907953202724457,0.028126228600740433
1768216526813022500,7.3680224609375,0.0075038280338048935,-0.03731544688344002,0.020802009850740433
1768216526823023400,7.3780234375,0.00992251094430685,-0.03209937736392021,0.015717236325144768
1768216526833023200,7.388023193359375,0.006675827782601118,-0.024662701413035393,0.01513444073498249
1768216526843024400,7.3980244140625,0.006352786440402269,-0.01976381614804268,0.012134656310081482
1768216526853025500,7.408025634765625,0.008306177332997322,-0.015675613656640053,0.016638847067952156
1768216526863025400,7.418025390625,0.007441448979079723,-0.01150829903781414,0.015855077654123306
1768216526873026300,7.4280263671875,0.005980682093650103,-0.01080569252371788,0.012710855342447758
1768216526883027200,7.438027099609375,0.007121580187231302,-0.015937868505716324,0.015471488237380981
1768216526893027300,7.44802734375,0.005554720759391785,-0.022801000624895096,0.01522492803633213
1768216526903028500,7.458028564453125,0.005464439745992422,-0.029494058340787888,0.011480256915092468
1768216526913029400,7.468029296875,0.004499850329011679,-0.030493635684251785,0.011231742799282074
1768216526923029500,7.478029541015625,0.003375730011612177,-0.032965317368507385,0.00601993640884757
1768216526933030400,7.488030517578125,0.0019101547077298164,-0.0365813709795475,0.0028662073891609907
1768216526943031300,7.49803125,0.0014792552683502436,-0.030835600569844246,0.0007740280125290155
1768216526953031400,7.508031494140625,0.0036615710705518723,-0.02748863957822323,-0.0026622964069247246
1768216526963032600,7.518032470703125,0.004978504031896591,-0.02075829915702343,-0.0024295360781252384
1768216526973033500,7.528033447265625,0.006919423583894968,-0.013939102180302143,-0.0035185432061553
1768216526983033300,7.538033447265625,0.011350923217833042,-0.009516123682260513,-0.006912475451827049
1768216526993034200,7.5480341796875,0.013654330745339394,-0.0062894755974411964,-0.007713323924690485
1768216527003034400,7.558034423828125,0.018661072477698326,-0.004276125691831112,-0.010874496772885323
1768216527013035300,7.56803515625,0.016855349764227867,-0.004864596761763096,-0.00759595213457942
1768216527023036400,7.578036376953125,0.017134983092546463,-0.005194562487304211,-0.005561563652008772
1768216527033036500,7.58803662109375,0.014873220585286617,-0.011190453544259071,-0.003370205406099558
1768216527043037400,7.598037353515625,0.016036488115787506,-0.016384683549404144,-0.0033923094160854816
1768216527053038300,7.608038330078125,0.012874830514192581,-0.011769289150834084,-0.0021763863041996956
1768216527063038500,7.61803857421875,0.013580035418272018,-0.010279516689479351,0.003329699393361807
1768216527073039400,7.628039306640625,0.008716059848666191,-0.006860564462840557,0.006681964732706547
1768216527083040500,7.63804052734375,0.004945556167513132,-0.010647313669323921,0.010364051908254623
1768216527093040400,7.648040283203125,0.004131649155169725,-0.013826249167323112,0.01092094462364912
1768216527103041500,7.65804150390625,0.002745207631960511,-0.019080132246017456,0.009144882671535015
1768216527113042400,7.66804248046875,0.0024091473314911127,-0.02275785058736801,0.0051374128088355064
1768216527123042300,7.678042236328125,0.0015667894622310996,-0.027038881555199623,0.004907848313450813
1768216527133043500,7.68804345703125,0.001421761349774897,-0.02751373127102852,0.002684634178876877
1768216527143044400,7.69804443359375,0.0008193543180823326,-0.025314759463071823,0.0016731657087802887
1768216527153044500,7.70804443359375,0.002679892349988222,-0.021235020831227303,0.007220147177577019
1768216527163045400,7.71804541015625,0.006188606843352318,-0.01797104999423027,0.008367703296244144
1768216527173045500,7.72804541015625,0.005551677197217941,-0.01798573136329651,0.007408290170133114
1768216527183046400,7.73804638671875,0.005705341696739197,-0.01251879520714283,0.005509988870471716
1768216527193047600,7.748047607421875,0.005122368689626455,-0.016664179041981697,0.004774197936058044
1768216527203047400,7.75804736328125,0.0039223479107022285,-0.019012555480003357,0.002036468358710408
1768216527213048600,7.768048583984375,0.0022448229137808084,-0.02070765569806099,0.002784816548228264
1768216527223049500,7.778049560546875,0.002229855628684163,-0.02430349960923195,0.0033769537694752216
1768216527233049300,7.78804931640625,0.0023641400039196014,-0.02153705805540085,0.0005368019919842482
1768216527243050200,7.79805029296875,0.002187039703130722,-0.022172221913933754,-0.0029372917488217354
1768216527253051400,7.808051513671875,0.0026633343659341335,-0.024373957887291908,-0.0011532879434525967
1768216527263051500,7.818051513671875,0.0005980530404485762,-0.029065381735563278,0.006652437150478363
1768216527273052400,7.828052490234375,0.0009467677446082234,-0.03257454186677933,0.009968639351427555
1768216527283053300,7.83805322265625,-0.0021664677187800407,-0.03356390818953514,0.01586594432592392
1768216527293053400,7.848053466796875,-0.003858039155602455,-0.03331397846341133,0.0193366426974535
1768216527303054300,7.858054443359375,-0.004084674175828695,-0.0312122143805027,0.013785816729068756
1768216527313054200,7.86805419921875,-0.006325336638838053,-0.03197557479143143,0.011092247441411018
1768216527323055600,7.8780556640625,-0.005954624619334936,-0.035339679569005966,0.007170476950705051
1768216527333056500,7.888056396484375,-0.0058108139783144,-0.03590107709169388,0.007431732956320047
1768216527343056400,7.898056396484375,-0.0036557838320732117,-0.03296467661857605,0.011842993088066578
1768216527353057300,7.908057373046875,-0.003969032317399979,-0.029985878616571426,0.012379776686429977
1768216527363058400,7.918058349609375,-0.0030875257216393948,-0.02675093710422516,0.013727069832384586
1768216527373058300,7.928058349609375,-0.0027578945737332106,-0.02110569179058075,0.010984211228787899
1768216527383059500,7.9380595703125,-0.002328060567378998,-0.016331708058714867,0.006331136450171471
1768216527393060400,7.948060302734375,-0.00107678584754467,-0.010073646903038025,0.005339061375707388
1768216527403060500,7.958060546875,0.0012739863013848662,-0.0080586988478899,0.0034522118512541056
1768216527413061400,7.968061279296875,-0.00032793544232845306,-0.010484680533409119,0.00039511476643383503
1768216527423062300,7.978062255859375,0.0021280315704643726,-0.012725996784865856,0.0035256606061011553
1768216527433062400,7.9880625,0.00196582218632102,-0.011582369916141033,0.0022240784019231796
1768216527443063600,7.9980634765625,0.0011218665167689323,-0.005778010468930006,0.0025417935103178024
1768216527453064400,8.008064453125,-0.0009345499565824866,-0.007041436620056629,-0.00032272422686219215
1768216527463064300,8.018064208984375,0.0022700317203998566,-0.01198666077107191,0.003425941336899996
1768216527473065500,8.0280654296875,0.0018849993357434869,-0.02218315564095974,0.009308175183832645
1768216527483065300,8.0380654296875,0.0018562371842563152,-0.027155011892318726,0.01246082503348589
1768216527493066200,8.048066162109375,-0.00025102344807237387,-0.029000351205468178,0.014152854681015015
1768216527503067400,8.0580673828125,0.003792187664657831,-0.03262011706829071,0.01822163164615631
1768216527513067500,8.068067626953125,0.006218647118657827,-0.03979862853884697,0.021994417533278465
1768216527523068400,8.078068359375,0.005464439745992422,-0.04098000377416611,0.026740968227386475
1768216527533069300,8.0880693359375,0.003273388836532831,-0.03436829894781113,0.025009578093886375
1768216527543069400,8.0980693359375,0.002315982710570097,-0.02824888750910759,0.021705394610762596
1768216527553070300,8.1080703125,0.00448919041082263,-0.02697390876710415,0.013517042621970177
1768216527563071500,8.118071533203125,0.001799663994461298,-0.019498148933053017,0.01419508270919323
1768216527573071400,8.1280712890625,-0.0007727975025773048,-0.012029039673507214,0.011725807562470436
1768216527583072500,8.138072509765625,0.000940147670917213,-0.012485506013035774,0.010042689740657806
1768216527593073400,8.148073486328125,-0.000030064955353736877,-0.012170389294624329,0.009358161129057407
1768216527603073300,8.1580732421875,0.0014309451216831803,-0.007540483493357897,0.007684364914894104
1768216527613074200,8.16807421875,0.0005754391895607114,-0.006228840909898281,0.007786506786942482
1768216527623075600,8.17807568359375,0.0010039417538791895,-0.007925007492303848,0.008749239146709442
1768216527633075500,8.188075439453126,0.0006222500232979655,-0.005372850224375725,0.00879600178450346
1768216527643076400,8.198076416015626,0.0019048284739255905,-0.004548868164420128,0.0073216762393713
1768216527653076500,8.208076416015626,0.0013268846087157726,-0.004675117786973715,0.00920931063592434
1768216527663077400,8.218077392578126,0.000017408281564712524,-0.006221881601959467,0.005639076232910156
1768216527673078300,8.228078369140626,0.0016794642433524132,-0.0038209762424230576,0.009727731347084045
1768216527683078400,8.238078369140625,-0.0009828978218138218,-0.0042558703571558,0.008968997746706009
1768216527693079600,8.24807958984375,0.0009298755321651697,-0.00212821364402771,0.007625330705195665
1768216527703080400,8.25808056640625,0.0014012550236657262,-0.0013788002543151379,0.004492388106882572
1768216527713080300,8.268080322265625,0.0011594630777835846,-0.0028502619825303555,0.0006636562757194042
1768216527723081500,8.27808154296875,0.0006334888166747987,-0.004108605440706015,-0.00029747840017080307
1768216527733082400,8.288082275390625,0.0014749408001080155,-0.0012857397086918354,-0.0006719524972140789
1768216527743082500,8.29808251953125,0.0019172918982803822,0.001978762913495302,0.0007725462783128023
1768216527753083400,8.30808349609375,0.0017664278857409954,0.006503933109343052,0.0040286146104335785
1768216527763084300,8.318084228515625,0.0006252634339034557,0.006775309331715107,0.004098123405128717
1768216527773084400,8.32808447265625,0.00016629381570965052,0.005010879598557949,0.005971090868115425
1768216527783085300,8.338085205078125,-0.001459299586713314,0.0038595953956246376,0.004607286304235458
1768216527793085400,8.34808544921875,-0.0025066141970455647,0.0018806853331625462,0.004846471361815929
1768216527803086600,8.358086669921875,-0.00023333972785621881,-0.0022408226504921913,0.004526892211288214
1768216527813087500,8.36808740234375,0.0010554625187069178,-0.005655296612530947,0.0028079457115381956
1768216527823087400,8.37808740234375,0.0007132463506422937,-0.009884662926197052,0.0003818059340119362
1768216527833088500,8.388088623046874,0.002991032088175416,-0.010619191452860832,-0.0023893495090305805
1768216527843089400,8.39808935546875,0.004046176560223103,-0.013988356105983257,-0.0010657585225999355
1768216527853089300,8.40808935546875,0.0023706299252808094,-0.010966207832098007,-0.00017706863582134247
1768216527863090400,8.41809033203125,0.0018087029457092285,-0.010152611881494522,-0.00028466014191508293
1768216527873091600,8.428091552734376,0.001343023031949997,-0.00702384440228343,0.0032310124952346087
1768216527883091500,8.438091552734376,0.0016751192742958665,-0.007439031265676022,0.003853393252938986
1768216527893092400,8.44809228515625,0.0012400426203384995,-0.004268120974302292,0.002794724889099598
1768216527903093200,8.45809326171875,0.00007224653381854296,-0.0033828862942755222,-0.0003123851493000984
1768216527913093400,8.46809326171875,-0.000655823852866888,-0.00006963266059756279,-0.004278350621461868
1768216527923094500,8.478094482421875,0.0016214450588449836,0.0040683867409825325,-0.005534564144909382
1768216527933095400,8.488095458984375,0.0033080782741308212,0.008237874135375023,-0.003240632824599743
1768216527943095600,8.498095458984375,0.003374124877154827,0.008194465190172195,-0.00591284828260541
1768216527953096400,8.508096435546875,0.004115936812013388,0.004969010129570961,-0.0073110563680529594
1768216527963097300,8.518097412109375,0.004219533409923315,0.0018722862005233765,-0.008672996424138546
1768216527973097200,8.52809716796875,0.0019086480606347322,0.001024120021611452,-0.0072565702721476555
1768216527983098600,8.5380986328125,0.0032998835667967796,-0.00009227730333805084,-0.00508476234972477
1768216527993098500,8.548098388671875,0.001957467757165432,-0.0018466170877218246,-0.0036757453344762325
1768216528003099400,8.558099365234375,0.0008727623498998582,-0.0035196146927773952,-0.0040006511844694614
1768216528013100300,8.568100341796875,-0.00020059023518115282,-0.006018423475325108,-0.005802936386317015
1768216528023100400,8.578100341796874,-0.000736418180167675,-0.00440694484859705,-0.005661522503942251
1768216528033101300,8.588101318359374,-0.0010897598695009947,-0.003095869207754731,-0.004603290464729071
1768216528043102500,8.5981025390625,0.0003568691899999976,-0.005193375051021576,-0.0029348195530474186
1768216528053102600,8.6081025390625,-0.000975319417193532,-0.009420638903975487,-0.0052579231560230255
1768216528063103500,8.618103515625,-0.002621419494971633,-0.009995615109801292,-0.005292011424899101
1768216528073104400,8.6281044921875,-0.0009024400496855378,-0.009919241070747375,-0.005374733824282885
1768216528083104300,8.638104248046876,-0.002007918432354927,-0.01093337219208479,-0.00211129616945982
1768216528093105400,8.64810546875,-0.000048782676458358765,-0.010791966691613197,-0.0016037044115364552
1768216528103106600,8.6581064453125,0.0000345743028447032,-0.009994616732001305,-0.0023363400250673294
1768216528113106400,8.6681064453125,0.00016741256695240736,-0.008655887097120285,-0.0017979983240365982
1768216528123107300,8.678107421875,-0.0010872025741264224,-0.009064682759344578,-0.0017162393778562546
1768216528133107500,8.688107421875,-0.0008691810071468353,-0.005480658262968063,-0.002860231325030327
1768216528143108400,8.6981083984375,-0.0007123206742107868,-0.001546370331197977,-0.0038165729492902756
1768216528153109200,8.708109130859375,-0.0002756390022113919,0.0012662163935601711,-0.0020628594793379307
1768216528163109400,8.718109375,0.0007600644021295011,0.0038201874122023582,-0.0018314309418201447
1768216528173110500,8.728110595703125,-0.000665030675008893,0.0041530681774020195,-0.0027422457933425903
1768216528183111400,8.738111328125,-0.0005478516686707735,0.004208727739751339,-0.0032596979290246964
1768216528193111300,8.748111328125,-0.0014499481767416,0.0038794102147221565,-0.00213551614433527
1768216528203112400,8.758112548828125,0.0008432999020442367,0.004862116649746895,-0.0009642578661441803
1768216528213113300,8.76811328125,0.002019952517002821,0.007003686390817165,0.0030087141785770655
1768216528223113200,8.77811328125,0.0016822635661810637,0.004397250711917877,0.0042015439830720425
1768216528233114400,8.7881142578125,0.0005422714166343212,0.004131553694605827,0.004667897243052721
1768216528243115500,8.798115478515625,0.000014432938769459724,0.005388299934566021,0.004835410043597221
1768216528253115400,8.808115478515624,0.001331982435658574,0.011208789423108101,0.0035948483273386955
1768216528263116300,8.8181162109375,0.0016723345033824444,0.0155971460044384,0.0001396629959344864
1768216528273117200,8.8281171875,0.003651686944067478,0.018178340047597885,-0.005170515738427639
1768216528283117300,8.838117431640624,0.0007283351151272655,0.013048823922872543,-0.0015832381322979927
1768216528293118500,8.848118408203124,0.000763960590120405,0.00960380956530571,0.0024936855770647526
1768216528303119400,8.858119384765626,0.0006366614834405482,0.008082346059381962,0.00630120700225234
1768216528313119500,8.868119384765626,-0.0008677433943375945,0.006910901051014662,0.0069101909175515175
1768216528323120400,8.878120361328126,-0.0005079504335299134,0.007129546720534563,0.008056681603193283
1768216528333120300,8.888120361328125,-0.00029100128449499607,0.0051585775800049305,0.009818239137530327
1768216528343121400,8.898121337890625,0.0010261981515213847,0.0032645370811223984,0.006730304099619389
1768216528353122600,8.90812255859375,0.0028737010434269905,0.002740016672760248,0.003953760489821434
1768216528363122400,8.918122314453125,0.002512576524168253,0.0009562312625348568,-0.00030090566724538803
1768216528373123300,8.928123291015625,0.0022437721490859985,-0.0011626367922872305,-0.0038342848420143127
1768216528383124200,8.938124267578125,0.001114858197979629,-0.0025400237645953894,-0.00417809933423996
1768216528393125600,8.948125732421875,-0.0002176197012886405,-0.0011660638265311718,-0.002253822050988674
1768216528403126800,8.958126708984375,-0.0009161669295281172,0.0015567522495985031,0.00043277465738356113
1768216528413127700,8.968127685546875,-0.001528876251541078,0.004999305121600628,0.001431398093700409
1768216528423127600,8.97812744140625,-0.00042552873492240906,0.009201507084071636,-0.0023665358312427998
1768216528433128700,8.988128662109375,0.0003888427745550871,0.01158669963479042,-0.004852958023548126
1768216528443129600,8.998129638671875,0.0001432992285117507,0.018832094967365265,-0.00767271313816309
1768216528453129500,9.00812939453125,0.002288559451699257,0.02458467334508896,-0.00718168867751956
1768216528463130600,9.018130615234375,0.0016832230612635612,0.025962060317397118,-0.00760593032464385
1768216528473130800,9.028130859375,0.0011107116006314754,0.027565408498048782,-0.0057746716775000095
1768216528483131600,9.038131591796875,0.001993283163756132,0.02737419307231903,-0.0067483228631317616
1768216528493132500,9.048132568359375,0.0020517960656434298,0.02476058527827263,-0.009123043157160282
1768216528503132700,9.058132568359374,0.00014230958186089993,0.023358698934316635,-0.011003500781953335
1768216528513133600,9.068133544921874,-0.0007881065830588341,0.0234532468020916,-0.007865117862820625
1768216528523134700,9.078134765625,-0.0002469521714374423,0.019043585285544395,-0.008637433871626854
1768216528533134600,9.088134521484376,-0.0018482125597074628,0.01747947558760643,-0.011848816648125648
1768216528543135700,9.0981357421875,-0.0013185098068788648,0.018115438520908356,-0.012187303975224495
1768216528553136600,9.10813671875,-0.002058259677141905,0.023521631956100464,-0.015245698392391205
1768216528563136500,9.118136474609376,-0.00201298575848341,0.02572726272046566,-0.01492159254848957
1768216528573137400,9.128137451171876,-0.0023676734417676926,0.0269240103662014,-0.010756434872746468
1768216528583138800,9.138138916015626,-0.0032017752528190613,0.027121350169181824,-0.011001445353031158
1768216528593138700,9.148138671875,-0.002632681280374527,0.0244369488209486,-0.013268157839775085
1768216528603139600,9.1581396484375,-0.0035887560807168484,0.022493906319141388,-0.01281195878982544
1768216528613140500,9.168140380859375,-0.0018551587127149105,0.018705075606703758,-0.011282507330179214
1768216528623140600,9.178140625,-0.0006269088480621576,0.016895189881324768,-0.01162019558250904
1768216528633141500,9.1881416015625,0.0008960837731137872,0.0143885537981987,-0.014266064390540123
1768216528643141600,9.1981416015625,0.0020281935576349497,0.0152338407933712,-0.014350753277540207
1768216528653142800,9.208142822265625,0.001293259672820568,0.014994120225310326,-0.012827569618821144
1768216528663143700,9.218143798828125,0.0007321317098103464,0.017278579995036125,-0.009902352467179298
1768216528673143600,9.2281435546875,0.000014257850125432014,0.01897527277469635,-0.00839580874890089
1768216528683144400,9.23814453125,-0.0002869456075131893,0.020639747381210327,-0.008261052891612053
1768216528693145600,9.2481455078125,0.0004578796215355396,0.02041476219892502,-0.008744260296225548
1768216528703145500,9.2581455078125,-0.0007229660404846072,0.019258683547377586,-0.012031665071845055
1768216528713146600,9.268146728515624,-0.001768492627888918,0.01931711472570896,-0.013487029820680618
1768216528723147500,9.2781474609375,-0.0021900711581110954,0.01816396601498127,-0.014446832239627838
1768216528733147600,9.288147705078124,-0.001648703939281404,0.02125398814678192,-0.015047258697450161
1768216528743148500,9.2981484375,-0.0007911660941317677,0.028333202004432678,-0.017687249928712845
1768216528753149400,9.3081494140625,0.00029035075567662716,0.032237038016319275,-0.022959284484386444
1768216528763149800,9.31814990234375,0.0006240448565222323,0.03402934595942497,-0.02461257390677929
1768216528773150700,9.328150634765626,0.002001660643145442,0.0441858284175396,-0.018301961943507195
1768216528783151600,9.338151611328126,0.0007358601433224976,0.03356647491455078,-0.023664770647883415
1768216528793151700,9.34815185546875,0.0009420118876732886,0.024626443162560463,-0.0220625177025795
1768216528803152600,9.358152587890626,0.0042147706262767315,0.02262321300804615,-0.015194223262369633
1768216528813152500,9.368152587890625,0.002387750893831253,0.02000739797949791,-0.010697906836867332
1768216528823153700,9.378153564453125,0.0029030723962932825,0.016002003103494644,-0.008794812485575676
1768216528833154600,9.388154541015625,0.000503990042489022,0.016037339344620705,-0.013812508434057236
1768216528843154700,9.39815478515625,0.0017365009989589453,0.015081264078617096,-0.016895649954676628
1768216528853155600,9.408155517578125,0.0009267478599213064,0.012705184519290924,-0.01999344676733017
1768216528863156500,9.418156494140625,-0.0005646222271025181,0.003468275535851717,-0.025210577994585037
1768216528873156600,9.428156494140625,-0.002734626643359661,-0.0012428055051714182,-0.02911487966775894
1768216528883157800,9.43815771484375,-0.0017311475239694118,0.0014605694450438023,-0.031302399933338165
1768216528893158700,9.44815869140625,-0.002157337497919798,0.0034519298933446407,-0.027483366429805756
1768216528903158800,9.45815869140625,-0.001906201126985252,0.008958548307418823,-0.023577041923999786
1768216528913159700,9.46815966796875,-0.0015373533824458718,0.012322386726737022,-0.023098472505807877
1768216528923160600,9.47816064453125,-0.001356791122816503,0.01717306859791279,-0.01867416314780712
1768216528933160400,9.488160400390624,-0.0003218259662389755,0.015878722071647644,-0.012449181638658047
1768216528943161600,9.49816162109375,-0.0030366522260010242,0.015101877972483635,-0.005306582897901535
1768216528953162800,9.508162841796874,-0.0015460652066394687,0.013918397948145866,-0.00221451697871089
1768216528963162600,9.51816259765625,-0.0006587001262232661,0.009192351251840591,-0.0007726815529167652
1768216528973163500,9.52816357421875,-0.00208737188950181,0.010930590331554413,-0.0010970612056553364
1768216528983164700,9.53816455078125,-0.0007472691358998418,0.01001020148396492,0.0014779490884393454
1768216528993164500,9.54816455078125,-0.0023303660564124584,0.006920941174030304,-0.005065963137894869
1768216529003165700,9.558165771484376,-0.0023444811813533306,0.002164535690099001,-0.011663943529129028
1768216529013165800,9.568165771484376,-0.0007552206516265869,0.001572788693010807,-0.014791554771363735
1768216529023166700,9.578166748046876,-0.0042996215634047985,-0.00004348345100879669,-0.017268028110265732
1768216529033167600,9.588167724609375,-0.000986710307188332,0.0037443810142576694,-0.017424730584025383
1768216529043167500,9.59816748046875,-0.0012090840609744191,0.005176096688956022,-0.012736501172184944
1768216529053168600,9.608168701171875,-0.0005394668551161885,0.003998676780611277,-0.00951342098414898
1768216529063169800,9.618169677734375,-0.00012880750000476837,0.006352911237627268,-0.0035391519777476788
1768216529073169700,9.628169677734375,-0.0006789861945435405,0.0060366359539330006,0.0011153090745210648
1768216529083170600,9.638170654296875,-0.0013975069159641862,0.008749598637223244,-0.0000013541430234909058
1768216529093171700,9.648171630859375,0.0016934415325522423,0.011644072830677032,-0.0026893443427979946
1768216529103171600,9.658171630859375,0.001377590699121356,0.007749998010694981,-0.0026707020588219166
1768216529113172500,9.66817236328125,0.0000217449851334095,-0.002173580229282379,0.0008459470700472593
1768216529123173600,9.678173583984375,-0.00005122565198689699,-0.005226362030953169,0.002927473746240139
1768216529133173800,9.688173828125,-0.0006398449186235666,-0.005626052152365446,0.0017001796513795853
1768216529143174700,9.698174560546875,-0.0011229424271732569,-0.005355475004762411,-0.000627156812697649
1768216529153175600,9.708175537109375,-0.0016125761903822422,-0.006500734947621822,0.0018902819138020277
1768216529163175700,9.71817578125,-0.0014117739629000425,-0.009527417831122875,0.0049928645603358746
1768216529173176600,9.728176513671874,-0.0007231944473460317,-0.007688763551414013,0.005092207342386246
1768216529183176400,9.738176513671876,0.0005905427969992161,-0.00646823737770319,0.005552135407924652
1768216529193177600,9.748177490234376,-0.0005077216774225235,-0.007086155004799366,0.005588715896010399
1768216529203178800,9.7581787109375,0.0020238792058080435,-0.007539158686995506,0.006228940095752478
1768216529213178600,9.7681787109375,0.0009362975251860917,-0.003654362866654992,0.0035574068315327168
1768216529223179500,9.778179443359376,0.0027232784777879715,-0.0003946535289287567,0.007440295536071062
1768216529233180400,9.788180419921876,0.0009648310951888561,0.001630960963666439,0.008751915767788887
1768216529243180500,9.7981806640625,-0.00002293533179908991,0.003701568581163883,0.009533287957310677
1768216529253181700,9.808181640625,-0.0013280896237120032,0.004924974869936705,0.006822831928730011
1768216529263182600,9.8181826171875,-0.0002391231246292591,0.004835226107388735,0.004865674767643213
1768216529273182700,9.8281826171875,-0.0011435473570600152,0.006788042839616537,-0.0006051757372915745
1768216529283183600,9.83818359375,0.0012405144516378641,0.004103842657059431,-0.0010153022594749928
1768216529293184500,9.8481845703125,0.0012501772725954652,0.001493973657488823,0.0016574740875512362
1768216529303184400,9.858184326171875,0.0012254099128767848,-0.0018091448582708836,0.0012066010385751724
1768216529313185800,9.868185791015625,0.0003765765577554703,-0.007067707367241383,0.0024913710076361895
1768216529323186700,9.878186767578125,0.000837037106975913,-0.008034168742597103,0.0032077613286674023
1768216529333186600,9.8881865234375,0.0007681756396777928,-0.006927898619323969,0.0024500852450728416
1768216529343187500,9.8981875,0.00010424957145005465,-0.004739579278975725,0.003888192353770137
1768216529353188600,9.908188720703125,0.0014534444781020284,-0.004881245084106922,0.0015006824396550655
1768216529363188500,9.9181884765625,-0.00019478588365018368,-0.0036039932165294886,0.0016383680049329996
1768216529373189600,9.928189697265625,-0.0005304428050294518,-0.00008512195199728012,-0.001448892056941986
1768216529383189800,9.938189697265624,-0.0008446957217529416,0.002033422701060772,-0.0006379592232406139
1768216529393189000,9.948189208984376,-0.00033894553780555725,0.0024995040148496628,-0.00005325954407453537
1768216529403190000,9.95818994140625,-0.000921112485229969,0.0011551403440535069,0.002255967352539301
1768216529413190400,9.9681904296875,0.0011019009398296475,-0.0023253685794770718,0.005034421570599079
1768216529423191300,9.97819140625,0.00016233779024332762,-0.0039903768338263035,0.006832055747509003
1768216529433192200,9.988192138671875,0.0006779636023566127,-0.006993873976171017,0.005319394636899233
1768216529443192300,9.9981923828125,0.00124175485689193,-0.011248007416725159,0.006582265719771385
1768216529453193200,10.008193115234375,0.002301038708537817,-0.014429586008191109,0.005697078071534634
1768216529463194000,10.018194091796875,0.0023772050626575947,-0.013316383585333824,0.0057479445822536945
1768216529473194200,10.0281943359375,0.0013053654693067074,-0.009104391559958458,0.007374591194093227
1768216529483195400,10.0381953125,0.001827344996854663,-0.007287850137799978,0.007948235608637333
1768216529493196300,10.0481962890625,-0.0003948500379920006,-0.006086541339755058,0.006043126806616783
1768216529503196200,10.058196044921875,0.0021399466786533594,-0.0052521731704473495,0.005009554326534271
1768216529513197000,10.068197021484375,-0.00012036925181746483,-0.006726822815835476,0.004988883621990681
1768216529523198200,10.0781982421875,0.00028309959452599287,-0.009905572049319744,0.0047127134166657925
1768216529533198300,10.0881982421875,-0.000642979983240366,-0.010310603305697441,0.001318658236414194
1768216529543199200,10.09819921875,-0.0007231412455439568,-0.009181422181427479,0.001745829125866294
1768216529553200000,10.1082001953125,-0.0012705120025202632,-0.007809951901435852,0.0062061939388513565
1768216529563200300,10.1182001953125,0.00021766242571175098,-0.006894357036799192,0.008255496621131897
1768216529573201200,10.128201171875,0.0025711588095873594,-0.008908556774258614,0.006343189626932144
1768216529583201300,10.138201171875,0.00046459841541945934,-0.009944792836904526,0.006740533281117678
1768216529593202400,10.148202392578124,0.0003928752848878503,-0.009696470573544502,0.003928829450160265
1768216529603203300,10.158203369140624,-0.0011174035025760531,-0.004816227592527866,0.001774864736944437
1768216529613203200,10.168203125,0.0008259196183644235,-0.0071823676116764545,0.0016315048560500145
1768216529623204400,10.178204345703126,-0.0009682520758360624,-0.006443606689572334,-0.001470811665058136
1768216529633205200,10.188205322265626,-0.00029559689573943615,-0.008658291772007942,-0.0006541777402162552
1768216529643205000,10.198205078125,-0.0009984051575884223,-0.010419173166155815,-0.001194532960653305
1768216529653206300,10.208206298828125,-0.0008098615799099207,-0.007624042220413685,-0.0005883085541427135
1768216529663207200,10.218207275390625,-0.00036324956454336643,-0.007218975108116865,0.0016021414194256067
1768216529673207300,10.228207275390625,-0.0010060222120955586,-0.008505022153258324,0.0034082906786352396
1768216529683208200,10.238208251953125,-0.00031173613388091326,-0.01426677219569683,0.002659942489117384
1768216529693209000,10.248208984375,0.0007193787605501711,-0.016268886625766754,0.0018712710589170456
1768216529703209200,10.258209228515625,-0.0009011548245325685,-0.01629764772951603,0.0021037650294601917
1768216529713210400,10.26821044921875,-0.0010947128757834435,-0.018992191180586815,0.006094129290431738
1768216529723211300,10.278211181640625,-0.00005821057129651308,-0.018077928572893143,0.005538061261177063
1768216529733211400,10.28821142578125,-0.0006682800594717264,-0.017607662826776505,0.00460233585909009
1768216529743212300,10.29821240234375,-0.0007505717221647501,-0.016330944374203682,0.004048930946737528
1768216529753212200,10.308212158203125,0.00025775458198040724,-0.017316538840532303,0.004224050790071487
1768216529763213000,10.318213134765625,0.0002196714049205184,-0.01718178205192089,0.00332203833386302
1768216529773214500,10.32821435546875,0.001587234903126955,-0.018850676715373993,0.0036946688778698444
1768216529783214300,10.33821435546875,0.0016801792662590742,-0.022607065737247467,0.007333345711231232
1768216529793215200,10.34821533203125,0.0018006758764386177,-0.024273239076137543,0.013092650100588799
1768216529803216100,10.358216064453124,-0.0021887393668293953,-0.012815522029995918,0.0056275431998074055
1768216529813216300,10.36821630859375,0.004080029204487801,-0.04071519896388054,0.018926912918686867
1768216529823217200,10.378217041015626,0.0026120946276932955,-0.022287724539637566,0.008793851360678673
1768216529833218300,10.38821826171875,0.0032689906656742096,-0.018934940919280052,-0.0013209166936576366
1768216529843218400,10.398218505859376,0.0023531296756118536,-0.024299345910549164,0.00019415561109781265
1768216529853219300,10.40821923828125,0.00007539615035057068,-0.02174205519258976,0.005395377520471811
1768216529863220200,10.41822021484375,0.0008525065495632589,-0.015201864764094353,0.004914943128824234
1768216529873220000,10.42822021484375,0.0029486343264579773,-0.014102383516728878,0.005111027508974075
1768216529883221200,10.43822119140625,0.004586212337017059,-0.018072091042995453,0.004658290185034275
1768216529893222400,10.448222412109375,0.002426853170618415,-0.013321666046977043,0.005481671076267958
1768216529903222300,10.45822216796875,0.005103596486151218,-0.01215493492782116,0.004486980382353067
1768216529913223200,10.46822314453125,0.010470923967659473,-0.019724078476428986,0.003186599351465702
1768216529923224300,10.478224365234375,0.007791250944137573,-0.02384931407868862,0.006190112326294184
1768216529933224200,10.48822412109375,0.007058790419250727,-0.032558705657720566,0.011922402307391167
1768216529943225000,10.49822509765625,0.005329067353159189,-0.03625251352787018,0.016981875523924828
1768216529953225200,10.50822509765625,0.004694428760558367,-0.04144931212067604,0.022115956991910934
1768216529963226400,10.518226318359375,0.003743680426850915,-0.04146129637956619,0.026052378118038177
1768216529973227300,10.528227294921875,0.00029904814437031746,-0.03766753524541855,0.025743640959262848
1768216529983227100,10.53822705078125,-0.0002410408342257142,-0.029598157852888107,0.026263225823640823
1768216529993228300,10.548228271484374,0.0007291413494385779,-0.020086584612727165,0.02693597972393036
1768216530003229200,10.558229248046874,-0.00041095796041190624,-0.01470194011926651,0.02477216348052025
1768216530013229000,10.56822900390625,-0.0009143719216808677,-0.011137276887893677,0.023904258385300636
1768216530023230200,10.578230224609374,0.00007978605572134256,-0.009391574189066887,0.02038409374654293
1768216530033231400,10.5882314453125,0.0010169075103476644,-0.009424518793821335,0.015790432691574097
1768216530043231200,10.598231201171876,0.001027826452627778,-0.008161647245287895,0.014028218574821949
1768216530053232000,10.608232177734376,-0.0003530833637341857,-0.003224895801395178,0.011519145220518112
1768216530063233000,10.61823291015625,0.002719671931117773,-0.0009220605716109276,0.006047148257493973
1768216530073233200,10.628233154296876,0.0023448276333510876,0.0008751130662858486,0.0037711227778345346
1768216530083234300,10.638234375,0.002185836900025606,-0.003262107726186514,0.0034219822846353054
1768216530093235200,10.648235107421876,0.004618490114808083,-0.007078518159687519,0.004101040307432413
1768216530103235300,10.6582353515625,0.004457901231944561,-0.008877484127879143,0.005369770340621471
1768216530113236200,10.668236328125,0.0031632937025278807,-0.010568511672317982,0.004861133638769388
1768216530123237000,10.678237060546875,0.002937723882496357,-0.007579646073281765,0.002232060767710209
1768216530133237200,10.6882373046875,0.002129477448761463,-0.003554876195266843,0.0034654662013053894
1768216530143238400,10.69823828125,0.0011350532295182347,0.000859313178807497,0.005300384014844894
1768216530153238300,10.70823828125,0.00032469118013978004,0.00889781303703785,0.007663420867174864
1768216530163239200,10.7182392578125,-0.00141302146948874,0.0007344256155192852,0.009456793777644634
1768216530173240000,10.728239990234375,-0.0028422721661627293,0.003963897470384836,0.0057382904924452305
1768216530183240200,10.738240234375,-0.001063280156813562,-0.0013307330664247274,0.005608860868960619
1768216530193241300,10.748241455078125,-0.00027037342078983784,-0.0024144884664565325,0.004411974456161261
1768216530203242200,10.7582421875,-0.0014453601324930787,-0.0006583998911082745,0.0044236923567950726
1768216530213242400,10.768242431640624,-0.0022095423191785812,-0.0020806933753192425,0.007672796491533518
1768216530223243300,10.7782431640625,-0.0007365482160821557,-0.004652774427086115,0.010186022147536278
1768216530233244200,10.788244140625,-0.003077422035858035,-0.006719200871884823,0.012855812907218933
1768216530243244300,10.798244384765624,-0.0023759452160447836,-0.0099264457821846,0.015822041779756546
1768216530253245400,10.808245361328124,-0.002578618936240673,-0.008913551457226276,0.01667216420173645
1768216530263246300,10.818246337890624,-0.003655601292848587,-0.011284563690423965,0.015355763956904411
1768216530273246200,10.82824609375,-0.00236149481497705,-0.011474735103547573,0.012579930014908314
1768216530283247400,10.838247314453126,-0.001644838135689497,-0.011112012900412083,0.009628614410758018
1768216530293248300,10.848248291015626,-0.0015493071405217052,-0.009899187833070755,0.00582564203068614
1768216530303248100,10.858248046875,-0.002834815066307783,-0.009332733228802681,0.0028218626976013184
1768216530313249300,10.868249267578125,-0.00045229773968458176,-0.009628301486372948,0.003442529123276472
1768216530323250200,10.878250244140625,-0.0010736130643635988,-0.0127687007188797,0.0038601127453148365
1768216530333250300,10.888250244140625,-0.0019463469507172704,-0.01849053055047989,0.004740417934954166
1768216530343251200,10.898251220703125,-0.0016952109290286899,-0.019002923741936684,0.00548210833221674
1768216530353252000,10.908252197265625,-0.00010528776329010725,-0.019230861216783524,0.006341646425426006
1768216530363252200,10.918252197265625,-0.0000890424707904458,-0.014027310535311699,0.004869717173278332
1768216530373253400,10.92825341796875,-0.0013726861216127872,-0.0091246971860528,-0.0008028158918023109
1768216530383253200,10.938253173828125,0.00036209693644195795,-0.005269505083560944,0.00016763992607593536
1768216530393254400,10.94825439453125,0.0024076709523797035,-0.0012835520319640636,-0.00212267879396677
1768216530403255300,10.95825537109375,0.004000507295131683,-0.0007192280609160662,0.00038548652082681656
1768216530413255200,10.968255126953125,0.004384276457130909,-0.001503622392192483,0.0028890836983919144
1768216530423256300,10.97825634765625,0.0026897070929408073,-0.001334511674940586,0.004364741500467062
1768216530433257200,10.98825732421875,0.001620288472622633,-0.0035049021244049072,0.0026680747978389263
1768216530443257300,10.99825732421875,0.0018469234928488731,-0.004172556567937136,0.0033826008439064026
1768216530453258200,11.00825830078125,-0.0005942441057413816,-0.006127309054136276,0.0012150611728429794
1768216530463259100,11.018259033203124,-0.0016022506169974804,-0.005258586257696152,-0.0008142674341797829
1768216530473259300,11.02825927734375,-0.0016919455956667662,-0.0055088805966079235,-0.0006804266013205051
1768216530483260400,11.038260498046874,-0.0017947435844689608,-0.005707818549126387,-0.0017038793303072453
1768216530493261300,11.04826123046875,-0.0029564755968749523,-0.005927745718508959,-0.0027716499753296375
1768216530503261400,11.058261474609376,-0.000694120186381042,-0.0006363107822835445,-0.003458213061094284
1768216530513262300,11.068262451171876,-0.00036840816028416157,-0.0017930145841091871,-0.005346434656530619
1768216530523263200,11.07826318359375,-0.003258470445871353,0.008707563392817974,-0.0072894771583378315
1768216530533263000,11.08826318359375,-0.0010839157039299607,-0.00403258204460144,-0.005111871752887964
1768216530543264500,11.098264404296875,0.0027606235817074776,-0.031853027641773224,0.013648765161633492
1768216530553265400,11.108265380859375,-0.0018404052825644612,-0.026211928576231003,0.012317445129156113
1768216530563265300,11.118265380859375,0.0028888359665870667,-0.027323264628648758,0.013716936111450195
1768216530573266200,11.12826611328125,-0.001681323628872633,-0.01431446336209774,0.010985761880874634
1768216530583266300,11.138266357421875,-0.002641925821080804,-0.015468411147594452,0.0052008433267474174
1768216530593267200,11.14826708984375,-0.002142690122127533,-0.013815207406878471,0.0038817464374005795
1768216530603268400,11.158268310546875,-0.0012715699849650264,-0.017383577302098274,0.0005847529973834753
1768216530613268500,11.1682685546875,0.0008129774942062795,-0.018755046650767326,0.0009159478358924389
1768216530623269400,11.178269287109375,0.0028452356345951557,-0.017797108739614487,0.0013039703480899334
1768216530633270300,11.188270263671875,0.0022545768879354,-0.020597048103809357,0.0028523867949843407
1768216530643270100,11.198270263671875,0.0019304701127111912,-0.018346942961215973,0.0035501348320394754
1768216530653271300,11.208271240234374,0.003460152307525277,-0.01538632158190012,0.006158420816063881
1768216530663272400,11.2182724609375,0.001953868195414543,-0.009691150858998299,0.009336104616522789
1768216530673272300,11.228272216796874,0.0009820200502872467,-0.007189061492681503,0.009356767870485783
1768216530683273200,11.238273193359374,-0.000013469485566020012,-0.00507850619032979,0.010390074923634529
1768216530693274400,11.2482744140625,-0.0016056677559390664,-0.0038461247459053993,0.011581389233469963
1768216530703274200,11.258274169921876,-0.003083988558501005,-0.003143582958728075,0.010064719244837761
1768216530713275100,11.268275146484376,-0.005809162277728319,0.000651918351650238,0.005867541767656803
1768216530723276300,11.2782763671875,-0.005906634032726288,-0.000538248335942626,0.003911982756108046
1768216530733276400,11.2882763671875,-0.007179267704486847,-0.0031832419335842133,0.0022250341717153788
1768216530743277300,11.29827734375,-0.007620819844305515,-0.006254665553569794,0.00532335601747036
1768216530753278200,11.3082783203125,-0.0077929128892719746,-0.008112531155347824,0.009368015453219414
1768216530763278300,11.3182783203125,-0.006957212928682566,-0.017079660668969154,0.017060022801160812
1768216530773279200,11.328279296875,-0.0062828632071614265,-0.023107711225748062,0.014686627313494682
1768216530783279000,11.338279052734375,-0.0036633778363466263,-0.023239005357027054,0.016338853165507317
1768216530793280300,11.3482802734375,-0.0011670062085613608,-0.020077861845493317,0.018781209364533424
1768216530803281400,11.358281494140625,-0.0013331874506548047,-0.01827889494597912,0.022751450538635254
1768216530813281300,11.36828125,0.0014258170267567039,-0.014182263985276222,0.019618187099695206
1768216530823282200,11.3782822265625,0.0009214142919518054,-0.010788597166538239,0.01951459050178528
1768216530833283000,11.388282958984375,0.002040489111095667,-0.008340805768966675,0.013229981064796448
1768216530843283200,11.398283203125,0.0011573850642889738,-0.0039495197124779224,0.011460842564702034
1768216530853284400,11.408284423828125,0.0013225009897723794,0.0004939641803503036,0.00680483877658844
1768216530863285200,11.41828515625,0.00021435972303152084,-0.00011110585182905197,0.0052937609143555164
1768216530873285400,11.428285400390624,0.0008914190111681819,-0.0032359077595174313,0.005226854234933853
1768216530883286300,11.438286376953124,0.000004852656275033951,-0.0013205623254179955,0.0019237352535128593
1768216530893287200,11.448287109375,-0.0012997156009078026,0.0010352623648941517,0.004726971499621868
1768216530903287300,11.458287353515624,-0.00031541124917566776,0.00045256270095705986,0.0019503599032759666
1768216530913288400,11.468288330078124,0.00021951075177639723,-0.00020159641280770302,0.0018555179703980684
1768216530923289300,11.478289306640624,0.0014813164016231894,-0.000006919261068105698,0.0018850790802389383
1768216530933289200,11.488289306640626,0.0014093200443312526,-0.00017875013872981071,0.0028513758443295956
1768216530943290000,11.4982900390625,0.003234384348616004,-0.0009329572785645723,0.0034633702598512173
1768216530953291300,11.508291259765626,0.0017808310221880674,0.0011879843659698963,0.004558195825666189
1768216530963291100,11.518291015625,0.002576849889010191,0.004602423403412104,0.004402667284011841
1768216530973292300,11.528292236328125,0.0016097805928438902,0.004358448088169098,0.002385827712714672
1768216530983293200,11.538293212890625,-0.00017320574261248112,0.0031206104904413223,-0.0010307417251169682
1768216530993293300,11.548293212890625,0.00048646656796336174,0.002074161544442177,-0.002094182651489973
1768216531003294200,11.558294189453125,0.000740265822969377,0.002566047478467226,-0.0030633071437478065
1768216531013294300,11.56829443359375,-0.00004199577961117029,0.004608900751918554,-0.004613164346665144
1768216531023295500,11.57829541015625,0.0004839785979129374,0.005852597299963236,-0.004992132540792227
1768216531033296400,11.58829638671875,-0.00215090811252594,0.0073127285577356815,0.0002441480755805969
1768216531043296300,11.598296142578125,-0.002082731109112501,0.006710853893309832,0.0007293762173503637
1768216531053297400,11.60829736328125,-0.003129711141809821,0.006109454669058323,-0.0001277928240597248
1768216531063298300,11.61829833984375,-0.0024442134890705347,0.0025267046876251698,0.001373164588585496
1768216531073298200,11.628298095703125,-0.0004764571785926819,-0.0029410752467811108,0.0028473406564444304
1768216531083299300,11.63829931640625,-0.00021227158140391111,-0.004957354161888361,0.0029376219026744366
1768216531093300200,11.64830029296875,0.00015701039228588343,-0.005016706418246031,0.00225253333337605
1768216531103300400,11.65830029296875,0.0003681990783661604,-0.007452699821442366,0.00013505388051271439
1768216531113301200,11.66830126953125,-0.001239999895915389,-0.007948695681989193,0.0005653593689203262
1768216531123302100,11.67830224609375,-0.0009502479806542397,-0.005423752591013908,0.0031739254482090473
1768216531133302300,11.68830224609375,-0.0012493369868025184,-0.003102303948253393,0.0036108139902353287
1768216531143303400,11.698303466796874,-0.0022434950806200504,-0.0027337223291397095,0.003296561073511839
1768216531153304300,11.70830419921875,-0.0025109979324042797,-0.002309379866346717,0.002884351648390293
1768216531163304400,11.718304443359376,-0.003486513625830412,-0.0024127105716615915,-0.0009375507943332195
1768216531173305300,11.728305419921876,-0.0017065713182091713,-0.00033463933505117893,-0.0016552656888961792
1768216531183306200,11.73830615234375,-0.0009177429601550102,-0.00010534143075346947,-0.003610026091337204
1768216531193306000,11.74830615234375,-0.0008644103072583675,0.001591697335243225,-0.001397185493260622
1768216531203307300,11.758307373046875,0.0006091167451813817,0.0025911815464496613,-0.0021908078342676163
1768216531213308400,11.768308349609375,-0.00025278201792389154,0.001631464809179306,-0.00152615737169981
1768216531223308300,11.778308349609375,-0.0004003210924565792,0.002973165363073349,-0.0026761102490127087
1768216531233309200,11.78830908203125,0.00012674881145358086,0.0021061478182673454,-0.002745829988270998
1768216531243309300,11.798309326171875,0.0015510073862969875,0.0028720730915665627,-0.0041929916478693485
1768216531253310200,11.808310302734375,-0.0005944193108007312,0.001310158520936966,-0.001661254558712244
1768216531263311400,11.818311279296875,-0.00021997885778546333,-0.0022669995669275522,-0.0008274191059172153
1768216531273311500,11.8283115234375,0.0013335950206965208,-0.003847578540444374,0.00033372570760548115
1768216531283312400,11.8383125,-0.0010837562149390578,-0.006332308053970337,-0.002986969891935587
1768216531293313300,11.848313232421875,-0.0005899149691686034,-0.00542544387280941,-0.0027290116995573044
1768216531303313200,11.858313232421875,0.00015683542005717754,-0.0023201978765428066,-0.005495769903063774
1768216531313314300,11.868314208984375,-0.0008000991074368358,-0.00013688812032341957,-0.007166479714214802
1768216531323315500,11.8783154296875,-0.00011593301314860582,-0.0003225104883313179,-0.007330530323088169
1768216531333315300,11.8883154296875,0.0017110791523009539,-0.0008336862083524466,-0.007109017111361027
1768216531343316200,11.898316162109374,0.0004532681778073311,-0.0002933309879153967,-0.007774274796247482
1768216531353317400,11.9083173828125,0.001394231105223298,-0.0020503627602010965,-0.0036950423382222652
1768216531363317200,11.918317138671876,0.0007793071563355625,-0.002631464507430792,-0.0035757324658334255
1768216531373318100,11.928318115234376,-0.0002155960537493229,-0.0030380855314433575,-0.0036480207927525043
1768216531383319300,11.9383193359375,0.000834488368127495,-0.0030396836809813976,-0.003968931268900633
1768216531393319200,11.948319091796876,0.0023827659897506237,-0.004150905646383762,-0.0028743110597133636
