time,seconds_elapsed,z,y,x
1768216519491300900,0.04630078125,0.0038128476589918137,0.014221812598407269,-0.014961106702685356
1768216519501302000,0.056302001953125,0.00010439591278554872,0.014030864462256432,-0.003686880227178335
1768216519511302000,0.066302001953125,-0.0010319749126210809,0.00956607423722744,-0.00028575718170031905
1768216519521303000,0.076302978515625,-0.007108509540557861,-0.00729333283379674,-0.005648031830787659
1768216519531304000,0.086303955078125,-0.009079781360924244,-0.015595471486449242,-0.010596717707812786
1768216519541303800,0.0963037109375,-0.009011338464915752,-0.014934208244085312,-0.011606855317950249
1768216519551304700,0.1063046875,-0.006885869428515434,-0.010602576658129692,-0.012164254672825336
1768216519561304800,0.116304931640625,-0.0038272286765277386,-0.013582920655608177,-0.013228453695774078
1768216519571306000,0.126305908203125,-0.0014170679496601224,-0.012731241062283516,-0.016946226358413696
1768216519581307000,0.136306884765625,-0.0018671422731131315,-0.007729026023298502,-0.01810922846198082
1768216519591307000,0.14630712890625,-0.0024549018125981092,-0.006697317585349083,-0.019040269777178764
1768216519601308000,0.156307861328125,0.0009805759182199836,-0.00047697214176878333,-0.019270634278655052
1768216519611308800,0.166308837890625,0.0005113269435241818,-0.0036250948905944824,-0.02269252948462963
1768216519621309000,0.176308837890625,0.0002961435238830745,-0.002670884132385254,-0.025423068553209305
1768216519631310000,0.18631005859375,0.0018375811632722616,-0.006684534251689911,-0.023547669872641563
1768216519641311000,0.19631103515625,-0.00044288369826972485,-0.015306784771382809,-0.02214019000530243
1768216519651310800,0.206310791015625,0.0008197209681384265,-0.022051505744457245,-0.017911888659000397
1768216519661311700,0.216311767578125,0.00019148127466905862,-0.034818701446056366,-0.012736301869153976
1768216519671313000,0.22631298828125,-0.0017038905061781406,-0.03802860900759697,-0.016708405688405037
1768216519681312800,0.236312744140625,-0.005771336145699024,-0.03567250818014145,-0.01564207673072815
1768216519691314000,0.24631396484375,-0.010953581891953945,-0.03340935707092285,-0.015326225198805332
1768216519701314000,0.25631396484375,-0.015293735079467297,-0.037577468901872635,-0.02002537250518799
1768216519711315000,0.26631494140625,-0.01477388571947813,-0.0473395511507988,-0.028089158236980438
1768216519721315800,0.27631591796875,-0.015808790922164917,-0.053133524954319,-0.02791738510131836
1768216519731316000,0.28631591796875,-0.013068663887679577,-0.05989156290888786,-0.025489114224910736
1768216519741316900,0.29631689453125,-0.007699464913457632,-0.05525260418653488,-0.033252228051424026
1768216519751318000,0.306318115234375,-0.004216316621750593,-0.050279416143894196,-0.03825684264302254
1768216519761318000,0.31631787109375,0.00002956108801299706,-0.04384894669055939,-0.04043211042881012
1768216519771319000,0.326319091796875,0.002237321576103568,-0.039675772190093994,-0.03237365186214447
1768216519781320000,0.33631982421875,0.0036770266015082598,-0.03160053491592407,-0.02171488292515278
1768216519791319800,0.34631982421875,0.002222407842054963,-0.031622108072042465,-0.01810390315949917
1768216519801321000,0.356321044921875,0.0002777676854748279,-0.034801922738552094,-0.015133945271372795
1768216519811321000,0.366321044921875,-0.0018303906545042992,-0.03430471196770668,-0.01065237820148468
1768216519821322000,0.376322021484375,-0.0012503541074693203,-0.02532506361603737,-0.012920059263706207
1768216519831323000,0.386322998046875,-0.0041031320579349995,-0.02701537311077118,-0.014871624298393726
1768216519841323000,0.396322998046875,-0.008065915666520596,-0.021933527663350105,-0.017199493944644928
1768216519851324000,0.406323974609375,-0.009414274245500565,-0.01483513880521059,-0.02135961689054966
1768216519861325000,0.416324951171875,-0.009427856653928757,-0.009996441192924976,-0.020860539749264717
1768216519871325000,0.426324951171875,-0.01101296953856945,-0.013855627737939358,-0.023838220164179802
1768216519881326000,0.436326171875,-0.008712264709174633,-0.016568856313824654,-0.02191115729510784
1768216519891327000,0.446326904296875,-0.010263290256261826,-0.01161830686032772,-0.02255723997950554
1768216519901326800,0.456326904296875,-0.006779342889785767,-0.010279535315930843,-0.02557087317109108
1768216519911327700,0.46632763671875,-0.004348143003880978,-0.011303254403173923,-0.024160996079444885
1768216519921327900,0.476327880859375,-0.0022897860035300255,-0.01305375061929226,-0.02424168959259987
1768216519931329000,0.4863291015625,-0.005830724723637104,-0.00720624765381217,-0.023395603522658348
1768216519941330000,0.496329833984375,-0.0065532405860722065,-0.001671932521276176,-0.025857696309685707
1768216519951330000,0.506330078125,-0.010069145821034908,-0.0036818201187998056,-0.0200437493622303
1768216519961331000,0.5163310546875,-0.01076742634177208,-0.0038866172544658184,-0.017115870490670204
1768216519971331800,0.526331787109375,-0.009601227939128876,-0.013912620022892952,-0.022612901404500008
1768216519981331700,0.536331787109375,-0.008351407013833523,-0.014815431088209152,-0.021617410704493523
1768216519991333000,0.5463330078125,-0.006572415120899677,-0.010940265841782093,-0.017768343910574913
1768216520001334000,0.556333984375,-0.003498062025755644,-0.006019542925059795,-0.018184596672654152
1768216520011334000,0.566333984375,-0.004622182343155146,-0.006066148169338703,-0.01931537501513958
1768216520021334800,0.576334716796875,-0.0060054282657802105,-0.0030027141328901052,-0.012983709573745728
1768216520031336000,0.5863359375,-0.006569485645741224,0.0023699470330029726,-0.00893730204552412
1768216520041335800,0.596335693359375,-0.006551642436534166,0.006340453866869211,-0.007734352257102728
1768216520051337000,0.6063369140625,-0.0079761678352952,0.004832572303712368,-0.005821137689054012
1768216520061337000,0.616337158203125,-0.006624879315495491,0.007268831599503756,-0.004914331249892712
1768216520071338000,0.626337890625,-0.002570483135059476,0.013467871583998203,-0.008923985995352268
1768216520081339000,0.6363388671875,-0.0035625104792416096,0.021765749901533127,-0.01155838556587696
1768216520091338800,0.6463388671875,-0.0013872405979782343,0.022893598303198814,-0.010159959085285664
1768216520101340000,0.65633984375,-0.0034205641131848097,0.025110146030783653,-0.0060933125205338
1768216520111341000,0.666341064453125,-0.005559348501265049,0.02504143677651882,-0.003094326937571168
1768216520121341000,0.6763408203125,-0.004712463356554508,0.025562085211277008,-0.005608883686363697
1768216520131341800,0.686341796875,-0.0035241609439253807,0.021812088787555695,-0.010060623288154602
1768216520141343000,0.696343017578125,-0.00449994346126914,0.017767811194062233,-0.01395656168460846
1768216520151342800,0.7063427734375,-0.005143895745277405,0.019576897844672203,-0.011305385269224644
1768216520161343700,0.71634375,-0.005031510256230831,0.01961977407336235,-0.004959604702889919
1768216520171345000,0.726344970703125,-0.0033963292371481657,0.020688500255346298,-0.003581685246899724
1768216520181345000,0.736344970703125,-0.0010428938549011946,0.023385483771562576,-0.004986236337572336
1768216520191346000,0.746345947265625,-0.001253017340786755,0.022357236593961716,-0.004436293616890907
1768216520201346000,0.756345947265625,0.0009659285424277186,0.020001670345664024,-0.003734284546226263
1768216520211347000,0.766346923828125,-0.0020269318483769894,0.020919928327202797,-0.00455693481490016
1768216520221347800,0.776347900390625,-0.0027561055030673742,0.026439595967531204,-0.004375840071588755
1768216520231347700,0.78634765625,-0.0010508833220228553,0.02281104028224945,-0.001395230065099895
1768216520241348900,0.796348876953125,-0.000031158982892520726,0.017522001639008522,-0.003403519745916128
1768216520251350000,0.80635009765625,0.0005994775565341115,0.01937050186097622,-0.005154015496373177
1768216520261350000,0.816349853515625,0.00042637207661755383,0.018552113324403763,0.000598145998083055
1768216520271350800,0.826350830078125,0.0005483448621816933,0.017362479120492935,0.007685882970690727
1768216520281351700,0.8363515625,0.0024458470288664103,0.020987840369343758,0.004592354875057936
1768216520291351800,0.846351806640625,0.002472478663548827,0.022709572687745094,-0.004828843753784895
1768216520301353000,0.85635302734375,0.0010327738709747791,0.025421204045414925,-0.003659449517726898
1768216520311353900,0.866353759765625,0.003032275242730975,0.027153857052326202,0.0002860235108528286
1768216520321354000,0.87635400390625,0.0052019525319337845,0.023913322016596794,-0.004945223685353994
1768216520331355000,0.88635498046875,0.00458756135776639,0.016833042725920677,-0.005792641546577215
1768216520341354800,0.896354736328125,0.006901848129928112,0.009532785043120384,-0.005577990785241127
1768216520351356000,0.90635595703125,0.0017861821688711643,0.0007595335482619703,-0.0008554073283448815
1768216520361357000,0.916357177734375,0.0010660634143278003,-0.010175938718020916,-0.0012961605098098516
1768216520371357000,0.92635693359375,0.0038754320703446865,-0.01575792394578457,-0.0024530377704650164
1768216520381358000,0.936358154296875,-0.0017470336752012372,-0.01943468488752842,-0.004747883416712284
1768216520391359000,0.94635888671875,0.002154231071472168,-0.02857864834368229,-0.010384730063378811
1768216520401359000,0.956359130859375,0.0024074974935501814,-0.036805685609579086,-0.009820139966905117
1768216520411360000,0.966360107421875,0.005008074454963207,-0.03415850177407265,-0.005724464543163776
1768216520421361200,0.976361083984375,0.006469084415584803,-0.03538249060511589,-0.006738862954080105
1768216520431361300,0.986361328125,0.0043955473229289055,-0.035890888422727585,-0.005743106827139854
1768216520441362200,0.996362060546875,0.0046821036376059055,-0.03415370732545853,-0.008386827073991299
1768216520451363000,1.006363037109375,0.0013219931861385703,-0.03525492548942566,-0.011608186177909374
1768216520461363200,1.01636328125,-0.0005142564186826348,-0.03314436972141266,-0.013516074977815151
1768216520471364000,1.026364013671875,-0.0018945727497339249,-0.028906749561429024,-0.011226555332541466
1768216520481364000,1.036364013671875,-0.00021971078240312636,-0.022785739973187447,-0.010787666775286198
1768216520491365000,1.046365234375,0.0004135889175813645,-0.011487012729048729,-0.007193464320152998
1768216520501366000,1.056365966796875,0.0016207997687160969,0.000990962260402739,-0.005191565956920385
1768216520511366100,1.0663662109375,-0.0002620550512801856,0.011516573838889599,0.0018232000293210149
1768216520521367000,1.076366943359375,-0.0007661914569325745,0.015331286005675793,0.007871238514780998
1768216520531368000,1.086367919921875,-0.0052293832413852215,0.015368569642305374,0.0105314701795578
1768216520541368000,1.0963681640625,-0.004095409065485001,0.015541675500571728,0.010497914627194405
1768216520551369200,1.106369140625,-0.0049252500757575035,0.017728663980960846,0.005666674114763737
1768216520561370000,1.1163701171875,-0.004444549325853586,0.01733664609491825,0.0015539544401690364
1768216520571370200,1.126370361328125,-0.003840544493868947,0.01751454547047615,-0.0007299724384211004
1768216520581371100,1.13637109375,-0.001449025934562087,0.017498832195997238,0.00005379585491027683
1768216520591372000,1.1463720703125,-0.0009763148264028132,0.018379006534814835,0.0029350698459893465
1768216520601372000,1.156371826171875,0.001181644620373845,0.009730657562613487,-0.002139583695679903
1768216520611373300,1.166373291015625,0.0014562164433300495,0.008199607022106647,-0.0032208270858973265
1768216520621373200,1.176373291015625,0.0004945489927195013,0.010875018313527107,-0.0025747441686689854
1768216520631374000,1.1863740234375,-0.0013771206140518188,0.012646553106606007,-0.006760700605809689
1768216520641375000,1.196375,-0.0024535702541470528,0.010396980680525303,-0.003561445279046893
1768216520651375000,1.206375,-0.0020327907986938953,0.008506935089826584,-0.005601692944765091
1768216520661376300,1.216376220703125,-0.00301656243391335,0.008714129216969013,-0.007360444404184818
1768216520671377200,1.226377197265625,-0.001160339335910976,0.008728777058422565,-0.006786533165723085
1768216520681377300,1.236377197265625,0.0014998923288658261,0.0024831313639879227,-0.010701646097004414
1768216520691378200,1.246378173828125,0.003468234557658434,-0.0006554039428010583,-0.01113627478480339
1768216520701379000,1.256379150390625,0.0021286646369844675,0.0014823154779151082,-0.010750382207334042
1768216520711379000,1.26637890625,0.0009062737226486206,-0.0022114890161901712,-0.00968298688530922
1768216520721380400,1.27638037109375,-0.00213558878749609,-0.010754110291600227,-0.013114470057189465
1768216520731381200,1.28638134765625,-0.00284958234988153,-0.013945110142230988,-0.017641577869653702
1768216520741381000,1.296381103515625,-0.0001227717293659225,-0.023856064304709435,-0.01984987035393715
1768216520751382000,1.306382080078125,-0.0026051041204482317,-0.020472783595323563,-0.02184511162340641
1768216520761382100,1.316382080078125,-0.0026959178503602743,-0.020552679896354675,-0.02377483807504177
1768216520771383000,1.326383056640625,-0.00010626012954162434,-0.023130619898438454,-0.020971860736608505
1768216520781384200,1.33638427734375,0.0007725830073468387,-0.0207686610519886,-0.020143883302807808
1768216520791384300,1.34638427734375,0.0002372876479057595,-0.012768525630235672,-0.015242869034409523
1768216520801385200,1.35638525390625,0.003343598684296012,-0.017401892691850662,-0.01841788925230503
1768216520811386000,1.36638623046875,0.0020418455824255943,-0.02346963994204998,-0.01642397977411747
1768216520821386000,1.376385986328125,0.000055393749789800495,-0.01883281022310257,-0.014803446829319
1768216520831387100,1.38638720703125,-0.00002210423735959921,-0.015474563464522362,-0.01287691667675972
1768216520841388300,1.39638818359375,-0.003477822057902813,-0.009817210957407951,-0.014538994990289211
1768216520851388200,1.40638818359375,-0.0037766287568956614,-0.0062432484701275826,-0.014843394979834557
1768216520861389000,1.41638916015625,-0.003626426449045539,-0.008049936965107918,-0.013118199072778225
1768216520871390200,1.42639013671875,-0.0037374801468104124,-0.0046722497791051865,-0.015575763769447803
1768216520881390000,1.43639013671875,-0.004101534374058247,0.0014386395923793316,-0.011214304715394974
1768216520891391000,1.446390869140625,-0.005126052536070347,0.01227291114628315,-0.00929389987140894
1768216520901392100,1.45639208984375,-0.003762780223041773,0.01164653617888689,-0.010340522043406963
1768216520911392300,1.466392333984375,-0.0028277444653213024,0.0075750951655209064,-0.008350607939064503
1768216520921393200,1.47639306640625,-0.0027089675422757864,0.004683701321482658,-0.008161257021129131
1768216520931393000,1.48639306640625,-0.004303135443478823,0.008723982609808445,-0.00824115239083767
1768216520941394200,1.496394287109375,-0.00751890242099762,0.007069360930472612,-0.00860387459397316
1768216520951395000,1.50639501953125,-0.008255532942712307,0.009878729470074177,-0.008229699917137623
1768216520961395000,1.51639501953125,-0.009751430712640285,0.012124840170145035,-0.0049313753843307495
1768216520971396000,1.52639599609375,-0.007476558443158865,0.008413990959525108,-0.007137271575629711
1768216520981397200,1.536397216796875,-0.00780679052695632,0.006572148762643337,-0.007069360930472612
1768216520991397000,1.546397216796875,-0.00412390474230051,0.0073428675532341,-0.007710117381066084
1768216521001398000,1.55639794921875,-0.0044107274152338505,0.009524795226752758,-0.004055195488035679
1768216521011399000,1.56639892578125,-0.002912965603172779,0.015684952959418297,-0.0009337042574770749
1768216521021399000,1.57639892578125,-0.003427488263696432,0.015665778890252113,-0.0024594292044639587
1768216521031400200,1.586400146484375,-0.002986735198646784,0.01577203907072544,-0.00558251840993762
1768216521041401000,1.596401123046875,-0.003864246653392911,0.017560884356498718,-0.010072873905301094
1768216521051401200,1.606401123046875,-0.0037859496660530567,0.017676731571555138,-0.013087838888168335
1768216521061402000,1.616402099609375,-0.004021106753498316,0.018849587067961693,-0.01209740899503231
1768216521071402000,1.626402099609375,-0.0065468489192426205,0.015191202983260155,-0.0076123797334730625
1768216521081403100,1.636403076171875,-0.006460828706622124,0.005602225661277771,-0.006648315116763115
1768216521091404300,1.646404296875,-0.0065471152774989605,-0.0029316076543182135,-0.006502107717096806
1768216521101404200,1.656404052734375,-0.0066637615673244,-0.0020575581584125757,-0.007246727589517832
1768216521111405000,1.666405029296875,-0.008080297149717808,-0.005546831991523504,0.0012042814632877707
1768216521121406000,1.676406005859375,-0.006656571291387081,-0.011949869804084301,0.002755306428298354
1768216521131406000,1.686406005859375,-0.004270112607628107,-0.016222380101680756,-0.0012599414912983775
1768216521141407000,1.696406982421875,-0.004721784498542547,-0.01696327142417431,0.0044048684649169445
1768216521151408000,1.706408203125,-0.003463174682110548,-0.0176991019397974,0.0010519486386328936
1768216521161408300,1.716408203125,-0.004852812271565199,-0.02690325304865837,-0.010267018340528011
1768216521171409200,1.7264091796875,-0.00475347600877285,-0.020903151482343674,-0.03233050927519798
1768216521181410000,1.73641015625,-0.0025563682429492474,-0.0264771468937397,-0.03894313797354698
1768216521191410200,1.74641015625,-0.005062136333435774,-0.030176011845469475,-0.027529895305633545
1768216521201411000,1.7564111328125,-0.00012170646368758753,-0.025797508656978607,-0.023517576977610588
1768216521211411200,1.7664111328125,-0.00013315805699676275,-0.026104571297764778,-0.027000458911061287
1768216521221412000,1.776412109375,-0.0024732777383178473,-0.027190076187253,-0.02364620752632618
1768216521231413200,1.786413330078125,-0.0019619506783783436,-0.03267085924744606,-0.0159456767141819
1768216521241413000,1.7964130859375,-0.0008602010202594101,-0.037871748208999634,-0.007970042526721954
1768216521251414000,1.8064140625,0.00016058860637713224,-0.045817289501428604,-0.005031510256230831
1768216521261415000,1.816414794921875,-0.001187237212434411,-0.04890389367938042,-0.008046208880841732
1768216521271415300,1.826415283203125,-0.005059739574790001,-0.056707222014665604,-0.006179066374897957
1768216521281416200,1.836416259765625,-0.005553755909204483,-0.05281447991728783,-0.0059929112903773785
1768216521291417000,1.8464169921875,-0.0041247038170695305,-0.05083708092570305,-0.010243049822747707
1768216521301417200,1.856417236328125,-0.0013944311067461967,-0.0444263219833374,-0.011033209972083569
1768216521311418000,1.866418212890625,-0.0033603766933083534,-0.043721381574869156,-0.0068326061591506
1768216521321419300,1.876419189453125,-0.002238120650872588,-0.04432645067572594,-0.011018828488886356
1768216521331419100,1.886419189453125,-0.002478337613865733,-0.040949828922748566,-0.003796602366492152
1768216521341420300,1.896420166015625,-0.007648332044482231,-0.035355858504772186,0.0027571707032620907
1768216521351421200,1.906421142578125,-0.010068080388009548,-0.03164660930633545,0.00615243474021554
1768216521361421000,1.916421142578125,-0.013364807702600956,-0.024826254695653915,0.014370150864124298
1768216521371422000,1.926421875,-0.017127322033047676,-0.028606610372662544,0.019693544134497643
1768216521381422800,1.9364228515625,-0.017192302271723747,-0.03730769082903862,0.011944543570280075
1768216521391423700,1.946423828125,-0.016634903848171234,-0.043888628482818604,0.012688364833593369
1768216521401424600,1.956424560546875,-0.017062872648239136,-0.048531316220760345,0.0236403476446867
1768216521411424500,1.966424560546875,-0.0168564785271883,-0.05050978064537048,0.033788323402404785
1768216521421426000,1.976426025390625,-0.015589612536132336,-0.04988020658493042,0.03810504078865051
1768216521431426800,1.9864267578125,-0.015327290631830692,-0.05475272610783577,0.036677319556474686
1768216521441426700,1.9964267578125,-0.004502073861658573,-0.05169621855020523,0.02305658347904682
1768216521451427600,2.006427490234375,-0.0055092815309762955,-0.03560326620936394,0.014998656697571278
1768216521461428700,2.0164287109375,-0.0034115093294531107,-0.02100301906466484,0.020428309217095375
1768216521471428600,2.0264287109375,-0.003201119601726532,-0.018563564866781235,0.032648757100105286
1768216521481429800,2.0364296875,0.0019518306944519281,-0.022239258512854576,0.027850540354847908
1768216521491430700,2.0464306640625,0.0014290522085502744,-0.024321317672729492,0.01810630038380623
1768216521501430800,2.0564306640625,-0.0022272015921771526,-0.01378212496638298,0.02155456133186817
1768216521511431700,2.066431640625,-0.00583764910697937,-0.012733638286590576,0.03086869977414608
1768216521521431800,2.076431884765625,-0.010401241481304169,-0.020013654604554176,0.0365404337644577
1768216521531432700,2.0864326171875,-0.013203419744968414,-0.027958130463957787,0.043774377554655075
1768216521541433900,2.096433837890625,-0.01696699857711792,-0.03682885318994522,0.04681916907429695
1768216521551433700,2.106433837890625,-0.01703544333577156,-0.042039062827825546,0.046067092567682266
1768216521561434600,2.1164345703125,-0.014671620912849903,-0.04194745048880577,0.03608423471450806
1768216521571435800,2.126435791015625,-0.014183463528752327,-0.04451846703886986,0.03001995012164116
1768216521581435600,2.136435546875,-0.007203584536910057,-0.037457093596458435,0.01805703155696392
1768216521591436800,2.146436767578125,0.0020700751338154078,-0.03995567187666893,0.003925499506294727
1768216521601437700,2.156437744140625,0.003320429241284728,-0.04453151673078537,-0.0013401026371866465
1768216521611437800,2.166437744140625,0.007167631760239601,-0.041972216218709946,-0.0054911719635128975
1768216521621438700,2.176438720703125,0.004279433749616146,-0.03597264736890793,-0.00917112734168768
1768216521631439600,2.186439697265625,0.012064386159181595,0.00762889115139842,-0.028680646792054176
1768216521641439700,2.196439697265625,0.0028999161440879107,-0.0182836651802063,0.0014527543680742383
1768216521651441000,2.20644091796875,0.003915912006050348,-0.0006053365068510175,-0.0033334787003695965
1768216521661440800,2.216440673828125,-0.0014391721924766898,0.010452641174197197,-0.008843558840453625
1768216521671442000,2.22644189453125,-0.002296976512297988,0.015972575172781944,-0.0028511802665889263
1768216521681442800,2.23644287109375,-0.0007566040731035173,0.02353142574429512,-0.0007845672662369907
1768216521691442700,2.246442626953125,0.000313986703986302,0.028497422114014626,0.0014093448407948017
1768216521701443600,2.256443603515625,0.0007163903210312128,0.025111211463809013,-0.002734267385676503
1768216521711444700,2.26644482421875,-0.0020530307665467262,0.02334021031856537,-0.0041518681682646275
1768216521721444900,2.27644482421875,-0.001067927572876215,0.028143487870693207,-0.014709703624248505
1768216521731445800,2.28644580078125,-0.003085005795583129,0.028110463172197342,-0.015749935060739517
1768216521741446700,2.29644677734375,-0.0031848743092268705,0.0563916377723217,-0.031247401610016823
1768216521751446800,2.30644677734375,-0.002231995342299342,0.059293948113918304,-0.04832092672586441
1768216521761447700,2.31644775390625,-0.0032290827948600054,0.0758494883775711,-0.030113160610198975
1768216521771448800,2.32644873046875,-0.010864099487662315,0.08846808224916458,-0.027396203950047493
1768216521781449000,2.336448974609375,-0.021280255168676376,0.09058263152837753,-0.04124011471867561
1768216521791449900,2.346449951171875,-0.016873788088560104,0.09773854166269302,-0.048532117158174515
1768216521801449700,2.35644970703125,-0.011660384014248848,0.12349849939346313,-0.08317398279905319
1768216521811450600,2.36645068359375,-0.015676164999604225,0.1498805731534958,-0.12768232822418213
1768216521821451800,2.37645166015625,-0.020674917846918106,0.16944415867328644,-0.1517607718706131
1768216521831451600,2.38645166015625,-0.023061642423272133,0.17976923286914825,-0.1663903146982193
1768216521841452800,2.396452880859375,-0.019509784877300262,0.20773348212242126,-0.17674174904823303
1768216521851453700,2.40645361328125,-0.01581518165767193,0.23343618214130402,-0.1914605051279068
1768216521861453800,2.416453857421875,-0.012990899384021759,0.2594608664512634,-0.2371278554201126
1768216521871454700,2.426454833984375,-0.011086473241448402,0.2914465069770813,-0.3159630298614502
1768216521881455600,2.43645556640625,-0.0029411951545625925,0.30654793977737427,-0.37345269322395325
1768216521891455700,2.446455810546875,0.008053931407630444,0.30777567625045776,-0.390469491481781
1768216521901457000,2.456456787109375,0.014639928936958313,0.32055696845054626,-0.4018441140651703
1768216521911457800,2.466457763671875,0.015801599249243736,0.34813427925109863,-0.42455795407295227
1768216521921457700,2.476457763671875,0.01920032687485218,0.3932777941226959,-0.46026933193206787
1768216521931458800,2.486458740234375,0.020656010136008263,0.442362517118454,-0.5030564665794373
1768216521941458700,2.496458740234375,0.01919899508357048,0.49326297640800476,-0.5417436957359314
1768216521951459600,2.50645947265625,0.012147210538387299,0.5492306351661682,-0.570755660533905
1768216521961460700,2.516460693359375,0.0046818372793495655,0.5938242077827454,-0.5962684750556946
1768216521971460900,2.5264609375,-0.0035782232880592346,0.6612468957901001,-0.6201604604721069
1768216521981461800,2.536461669921875,-0.016268718987703323,0.7216652631759644,-0.6573288440704346
1768216521991462700,2.546462646484375,-0.02714400365948677,0.7599449753761292,-0.7054314017295837
1768216522001462800,2.556462890625,-0.042519763112068176,0.7928915023803711,-0.7579228281974792
1768216522011463700,2.566463623046875,-0.05596739426255226,0.7841286063194275,-0.8245303630828857
1768216522021464800,2.57646484375,-0.04867992177605629,0.7317442297935486,-0.9063669443130493
1768216522031464700,2.586464599609375,-0.05064746364951134,0.647940456867218,-0.9694750308990479
1768216522041465900,2.5964658203125,-0.06041141226887703,0.5988530516624451,-0.9959420561790466
1768216522051466800,2.606466796875,-0.06893245875835419,0.5780681371688843,-0.9995429515838623
1768216522061466600,2.616466552734375,-0.08848778903484344,0.5642215609550476,-0.9970999956130981
1768216522071467500,2.626467529296875,-0.09973777830600739,0.5712200999259949,-0.9853760004043579
1768216522081469000,2.636468994140625,-0.1085757464170456,0.5907477140426636,-0.980074942111969
1768216522091468800,2.64646875,-0.11894449591636658,0.6470453143119812,-0.9952656626701355
1768216522101469700,2.6564697265625,-0.13224539160728455,0.7559776902198792,-1.0418057441711426
1768216522111469800,2.6664697265625,-0.15248940885066986,0.8495758175849915,-1.1000034809112549
1768216522121470700,2.676470703125,-0.16813094913959503,0.8754710555076599,-1.1425811052322388
1768216522131471600,2.6864716796875,-0.17854337394237518,0.8660104274749756,-1.1423048973083496
1768216522141471700,2.6964716796875,-0.1758623719215393,0.8120326995849609,-1.094775676727295
1768216522151473000,2.706472900390625,-0.13616636395454407,0.7196233868598938,-1.0027563571929932
1768216522161473800,2.716473876953125,-0.08942921459674835,0.6420782804489136,-0.8951537013053894
1768216522171473700,2.7264736328125,-0.055566322058439255,0.654740035533905,-0.8083159923553467
1768216522181474600,2.736474609375,-0.04025847464799881,0.700620174407959,-0.7752248644828796
1768216522191475700,2.746475830078125,-0.045453500002622604,0.7041462063789368,-0.8134170174598694
1768216522201475800,2.756475830078125,-0.08157475292682648,0.6711565256118774,-0.8913477659225464
1768216522211476700,2.766476806640625,-0.11473004519939423,0.6274636387825012,-0.9655783176422119
1768216522221477600,2.7764775390625,-0.16304618120193481,0.6111736297607422,-1.013152003288269
1768216522231477800,2.786477783203125,-0.21108001470565796,0.5880595445632935,-1.040674090385437
1768216522241478700,2.796478759765625,-0.26556456089019775,0.5071127414703369,-1.0547212362289429
1768216522251478800,2.806478759765625,-0.32122355699539185,0.42349720001220703,-1.0465495586395264
1768216522261480000,2.81647998046875,-0.34821921586990356,0.335710346698761,-1.036842942237854
1768216522271480800,2.826480712890625,-0.3532531261444092,0.2581905424594879,-1.052761197090149
1768216522281480700,2.836480712890625,-0.3428609371185303,0.27057263255119324,-1.1536792516708374
1768216522291481900,2.84648193359375,-0.3107570707798004,0.36804166436195374,-1.2768474817276
1768216522301482800,2.856482666015625,-0.2632409632205963,0.49320170283317566,-1.3737272024154663
1768216522311482600,2.866482666015625,-0.22102531790733337,0.5908976793289185,-1.3932726383209229
1768216522321483800,2.87648388671875,-0.18716350197792053,0.685233473777771,-1.3354130983352661
1768216522331484700,2.886484619140625,-0.13091380894184113,0.805086612701416,-1.2700293064117432
1768216522341484800,2.89648486328125,-0.13185790181159973,0.9686936736106873,-1.222662329673767
1768216522351485700,2.906485595703125,-0.17194166779518127,1.0698271989822388,-1.1872761249542236
1768216522361486600,2.916486572265625,-0.2373124212026596,1.1067546606063843,-1.173578143119812
1768216522371486700,2.92648681640625,-0.3002764582633972,1.0784907341003418,-1.1789084672927856
1768216522381487600,2.936487548828125,-0.3463132083415985,0.9787963628768921,-1.1853312253952026
1768216522391487500,2.946487548828125,-0.366416871547699,0.8816298842430115,-1.163881540298462
1768216522401488600,2.956488525390625,-0.3557301461696625,0.8431751728057861,-1.112014651298523
1768216522411489500,2.966489501953125,-0.36543524265289307,0.8518602848052979,-1.0076836347579956
1768216522421489400,2.976489501953125,-0.35364222526550293,0.8150652647018433,-0.8870214819908142
1768216522431490300,2.986490234375,-0.3416960835456848,0.7374697923660278,-0.7941221594810486
1768216522441491700,2.99649169921875,-0.33865660429000854,0.6523162722587585,-0.7125516533851624
1768216522451491600,3.00649169921875,-0.3416244387626648,0.6142541170120239,-0.6382265686988831
1768216522461492500,3.016492431640625,-0.326138973236084,0.5932087302207947,-0.6015036702156067
1768216522471493400,3.026493408203125,-0.29865407943725586,0.6041449904441833,-0.6065333485603333
1768216522481493500,3.036493408203125,-0.2896270155906677,0.6382800936698914,-0.6341705322265625
1768216522491494400,3.046494384765625,-0.278363972902298,0.6623121500015259,-0.648777186870575
1768216522501495600,3.05649560546875,-0.257589727640152,0.6081107258796692,-0.6321356296539307
1768216522511495700,3.06649560546875,-0.2392762303352356,0.4574258625507355,-0.6054536700248718
1768216522521496600,3.07649658203125,-0.23067022860050201,0.28441813588142395,-0.6042001247406006
1768216522531497500,3.08649755859375,-0.2511315643787384,0.09656675159931183,-0.6378846168518066
1768216522541497300,3.096497314453125,-0.2835392951965332,-0.08368184417486191,-0.6813849210739136
1768216522551498500,3.10649853515625,-0.31302395462989807,-0.23379571735858917,-0.7030236721038818
1768216522561498400,3.116498291015625,-0.3341270983219147,-0.3875575661659241,-0.6651151776313782
1768216522571499500,3.12649951171875,-0.35100623965263367,-0.5423091053962708,-0.6060814261436462
1768216522581500400,3.13650048828125,-0.36403706669807434,-0.7332872748374939,-0.5466050505638123
1768216522591500500,3.14650048828125,-0.38092711567878723,-0.9247400760650635,-0.48975157737731934
1768216522601501400,3.15650146484375,-0.40762850642204285,-1.0608795881271362,-0.44646722078323364
1768216522611502300,3.16650244140625,-0.42808982729911804,-1.1338224411010742,-0.41360142827033997
1768216522621502500,3.17650244140625,-0.4244482219219208,-1.1788650751113892,-0.36616840958595276
1768216522631503600,3.186503662109375,-0.41683611273765564,-1.2169588804244995,-0.2712829113006592
1768216522641504500,3.19650439453125,-0.3994206190109253,-1.2626384496688843,-0.1567097157239914
1768216522651504600,3.206504638671875,-0.3756127655506134,-1.3204336166381836,-0.041371140629053116
1768216522661505500,3.216505615234375,-0.3567831516265869,-1.3982160091400146,0.037819016724824905
1768216522671506400,3.22650634765625,-0.3576241731643677,-1.4515173435211182,0.09735291451215744
1768216522681506300,3.23650634765625,-0.3835553824901581,-1.511834979057312,0.1422671228647232
1768216522691507500,3.246507568359375,-0.42068570852279663,-1.5772610902786255,0.1801615208387375
1768216522701507600,3.256507568359375,-0.44369834661483765,-1.6463006734848022,0.17008917033672333
1768216522711508500,3.266508544921875,-0.48327717185020447,-1.6789132356643677,0.13813389837741852
1768216522721509400,3.27650927734375,-0.5479336977005005,-1.7368228435516357,0.08260726183652878
1768216522731509500,3.286509521484375,-0.6239333748817444,-1.8533291816711426,0.024399083107709885
1768216522741510400,3.296510498046875,-0.6764522194862366,-1.9517567157745361,0.017432520166039467
1768216522751511600,3.306511474609375,-0.6844677925109863,-2.014286518096924,0.07255249470472336
1768216522761511700,3.31651171875,-0.6670944094657898,-2.018266201019287,0.18243958055973053
1768216522771512600,3.3265126953125,-0.6287773847579956,-2.013305902481079,0.2990990877151489
1768216522781513500,3.336513427734375,-0.5904334783554077,-2.0494818687438965,0.40346837043762207
1768216522791513300,3.346513427734375,-0.5560552477836609,-2.1120333671569824,0.4417654275894165
1768216522801514500,3.356514404296875,-0.5456708073616028,-2.1848130226135254,0.4030180275440216
1768216522811515600,3.366515625,-0.5549130439758301,-2.244572401046753,0.34177225828170776
1768216522821515500,3.376515625,-0.54648357629776,-2.3142054080963135,0.3186000883579254
1768216522831516400,3.386516357421875,-0.5402243733406067,-2.4028828144073486,0.35310134291648865
1768216522841516500,3.3965166015625,-0.5359646081924438,-2.4444711208343506,0.3919198513031006
1768216522851517400,3.406517333984375,-0.5389596223831177,-2.417694091796875,0.42004281282424927
1768216522861518300,3.416518310546875,-0.5590145587921143,-2.359109401702881,0.41841748356819153
1768216522871518700,3.426518798828125,-0.5681827664375305,-2.2376017570495605,0.37024542689323425
1768216522881519600,3.43651953125,-0.573156476020813,-2.0873239040374756,0.3284660279750824
1768216522891520500,3.4465205078125,-0.5781688094139099,-1.9396231174468994,0.31398534774780273
1768216522901520400,3.456520263671875,-0.5722643136978149,-1.8187986612319946,0.3386395573616028
1768216522911521500,3.466521484375,-0.5704885125160217,-1.7427217960357666,0.3766399621963501
1768216522921522400,3.4765224609375,-0.5615274906158447,-1.6712267398834229,0.42616596817970276
1768216522931522600,3.4865224609375,-0.5706573724746704,-1.5997190475463867,0.5006729364395142
1768216522941523500,3.4965234375,-0.6060065627098083,-1.5508265495300293,0.5921791791915894
1768216522951524600,3.506524658203125,-0.6334791779518127,-1.5730645656585693,0.694041907787323
1768216522961524500,3.5165244140625,-0.6642477512359619,-1.6273064613342285,0.7422863841056824
1768216522971525400,3.526525390625,-0.6660643219947815,-1.6445012092590332,0.6953740119934082
1768216522981525500,3.536525390625,-0.6682981848716736,-1.6823550462722778,0.5368027091026306
1768216522991526700,3.546526611328125,-0.6637105941772461,-1.7347232103347778,0.36210015416145325
1768216523001527600,3.556527587890625,-0.6592807173728943,-1.712755799293518,0.24747876822948456
1768216523011527400,3.56652734375,-0.6674180030822754,-1.6291512250900269,0.20805306732654572
1768216523021528600,3.576528564453125,-0.6858707666397095,-1.5529587268829346,0.2138422429561615
1768216523031529500,3.586529541015625,-0.7068655490875244,-1.4923795461654663,0.2502977252006531
1768216523041529300,3.596529296875,-0.7567737102508545,-1.4594122171401978,0.26198819279670715
1768216523051530500,3.606530517578125,-0.7654513716697693,-1.464227557182312,0.28402000665664673
1768216523061531600,3.61653173828125,-0.7825056910514832,-1.499281406402588,0.2910155951976776
1768216523071531500,3.626531494140625,-0.7792611718177795,-1.5586000680923462,0.2750589847564697
1768216523081532400,3.636532470703125,-0.793501079082489,-1.6466410160064697,0.2533411979675293
1768216523091533300,3.646533203125,-0.8045044541358948,-1.7096394300460815,0.22632794082164764
1768216523101533400,3.656533447265625,-0.7888230085372925,-1.7188185453414917,0.20636089146137238
1768216523111534600,3.66653466796875,-0.7860879302024841,-1.7313671112060547,0.21178922057151794
1768216523121535500,3.676535400390625,-0.7979936003684998,-1.7152632474899292,0.22572261095046997
1768216523131535600,3.68653564453125,-0.7941160202026367,-1.6578351259231567,0.22089776396751404
1768216523141536500,3.69653662109375,-0.7926099896430969,-1.6073319911956787,0.16957038640975952
1768216523151536400,3.706536376953125,-0.7973616123199463,-1.587443470954895,0.10046642273664474
1768216523161537500,3.71653759765625,-0.7884935736656189,-1.5908595323562622,0.05366083234548569
1768216523171538700,3.72653857421875,-0.8058506846427917,-1.5921481847763062,0.04176795110106468
1768216523181538600,3.73653857421875,-0.7933990955352783,-1.5823917388916016,0.08237769454717636
1768216523191539500,3.74653955078125,-0.7247148156166077,-1.4844640493392944,0.15960803627967834
1768216523201540400,3.756540283203125,-0.6526534557342529,-1.3623679876327515,0.1744980365037918
1768216523211540500,3.76654052734375,-0.6120359301567078,-1.3929024934768677,0.2537268102169037
1768216523221541400,3.776541259765625,-0.600437343120575,-1.355289340019226,0.31494835019111633
1768216523231542500,3.78654248046875,-0.6043354272842407,-1.2797999382019043,0.3074758052825928
1768216523241542700,3.796542724609375,-0.6493061184883118,-1.164611577987671,0.2084091305732727
1768216523251543600,3.80654345703125,-0.6865831613540649,-1.1428314447402954,0.06036959961056709
1768216523261544400,3.81654443359375,-0.7120078206062317,-1.211548924446106,-0.11458729952573776
1768216523271544600,3.826544677734375,-0.7194966673851013,-1.3521175384521484,-0.31952500343322754
1768216523281545500,3.83654541015625,-0.7235488891601562,-1.4261070489883423,-0.48098766803741455
1768216523291545300,3.84654541015625,-0.7192561626434326,-1.4430814981460571,-0.545147180557251
1768216523301546500,3.85654638671875,-0.6954836845397949,-1.4610998630523682,-0.535347580909729
1768216523311547400,3.86654736328125,-0.713476836681366,-1.4784471988677979,-0.4933391511440277
1768216523321547500,3.876547607421875,-0.744186520576477,-1.5025911331176758,-0.44593194127082825
1768216523331548400,3.88654833984375,-0.8084073066711426,-1.5710957050323486,-0.3827447295188904
1768216523341549300,3.89654931640625,-0.8551125526428223,-1.657097339630127,-0.3084760904312134
1768216523351549400,3.906549560546875,-0.879568874835968,-1.7198753356933594,-0.22692155838012695
1768216523361550600,3.916550537109375,-0.884652853012085,-1.7378382682800293,-0.1584056168794632
1768216523371551500,3.926551513671875,-0.8749874234199524,-1.7585283517837524,-0.07906924933195114
1768216523381551600,3.936551513671875,-0.8750803470611572,-1.832587480545044,0.012811935506761074
1768216523391552500,3.946552490234375,-0.8510234951972961,-1.8873649835586548,0.0830533429980278
1768216523401553700,3.9565537109375,-0.8002244830131531,-1.8688360452651978,0.05445285513997078
1768216523411553500,3.966553466796875,-0.7382761836051941,-1.7541722059249878,0.01960885524749756
1768216523421554700,3.9765546875,-0.6478938460350037,-1.6658570766448975,-0.03614601865410805
1768216523431555600,3.9865556640625,-0.5723974704742432,-1.623846173286438,-0.05090845376253128
1768216523441555500,3.996555419921875,-0.4982489347457886,-1.6273490190505981,-0.060146428644657135
1768216523451556400,4.006556396484375,-0.4089222550392151,-1.600812315940857,-0.1381962150335312
1768216523461556500,4.016556396484375,-0.34469932317733765,-1.5699288845062256,-0.2744600474834442
1768216523471557600,4.0265576171875,-0.32945379614830017,-1.5481759309768677,-0.4356854259967804
1768216523481558500,4.03655859375,-0.3485851585865021,-1.5514103174209595,-0.4733926057815552
1768216523491558700,4.04655859375,-0.38516128063201904,-1.6043236255645752,-0.36543577909469604
1768216523501559600,4.0565595703125,-0.44487252831459045,-1.688981056213379,-0.20551294088363647
1768216523511560400,4.066560546875,-0.48753026127815247,-1.8017570972442627,-0.025606293231248856
1768216523521560300,4.076560302734375,-0.49664944410324097,-1.8771666288375854,0.12454592436552048
1768216523531561700,4.086561767578125,-0.4972936511039734,-1.8838897943496704,0.21438872814178467
1768216523541562600,4.096562744140625,-0.5131447911262512,-1.8768771886825562,0.2426946610212326
1768216523551562500,4.1065625,-0.5170748233795166,-1.7271419763565063,0.2501254081726074
1768216523561563400,4.1165634765625,-0.49499374628067017,-1.5516002178192139,0.2869976758956909
1768216523571564500,4.126564453125,-0.49795278906822205,-1.3520532846450806,0.36618757247924805
1768216523581564400,4.136564453125,-0.501426100730896,-1.2347773313522339,0.548272430896759
1768216523591565600,4.146565673828125,-0.4950190484523773,-1.1512045860290527,0.7078439593315125
1768216523601565700,4.156565673828125,-0.4978675842285156,-1.1041148900985718,0.8697777390480042
1768216523611566600,4.166566650390625,-0.5166215300559998,-1.0730581283569336,1.0184284448623657
1768216523621567500,4.1765673828125,-0.5194224119186401,-1.1100739240646362,1.018386960029602
1768216523631567400,4.1865673828125,-0.5468806624412537,-1.1403878927230835,0.8822820782661438
1768216523641568500,4.196568603515625,-0.5617685317993164,-1.0525786876678467,0.7613074779510498
1768216523651569700,4.206569580078125,-0.5122571587562561,-0.9014046788215637,0.7422229647636414
1768216523661569500,4.216569580078125,-0.44438862800598145,-0.7347853183746338,0.8509654402732849
1768216523671570400,4.2265703125,-0.40958619117736816,-0.6030967831611633,1.0218844413757324
1768216523681571600,4.236571533203125,-0.38876479864120483,-0.4357304275035858,1.0883084535598755
1768216523691571500,4.246571533203125,-0.36424505710601807,-0.31325563788414,1.0565515756607056
1768216523701572400,4.256572265625,-0.33806511759757996,-0.4245457053184509,0.9112655520439148
1768216523711573500,4.266573486328125,-0.39482560753822327,-0.6725496649742126,0.7612395286560059
1768216523721573600,4.27657373046875,-0.42977455258369446,-0.8274664878845215,0.8102939128875732
1768216523731574500,4.286574462890625,-0.39661580324172974,-0.8044581413269043,0.9497785568237305
1768216523741574400,4.296574462890625,-0.3277760148048401,-0.6560460329055786,1.0808465480804443
1768216523751575600,4.306575439453125,-0.24722737073898315,-0.544095516204834,1.1056747436523438
1768216523761576700,4.31657666015625,-0.19694502651691437,-0.4358034133911133,1.0180532932281494
1768216523771576600,4.32657666015625,-0.16501691937446594,-0.36259791254997253,0.8295006155967712
1768216523781577500,4.336577392578125,-0.1468254029750824,-0.2929927110671997,0.6453244090080261
1768216523791578600,4.34657861328125,-0.13292528688907623,-0.2479861080646515,0.556877613067627
1768216523801578500,4.35657861328125,-0.11558385193347931,-0.27475833892822266,0.5812900066375732
1768216523811579400,4.366579345703125,-0.09250756353139877,-0.31139543652534485,0.7051374316215515
1768216523821580500,4.37658056640625,-0.049791526049375534,-0.3497087359428406,0.8367404341697693
1768216523831580700,4.38658056640625,-0.009769806638360023,-0.31524717807769775,0.9436871409416199
1768216523841581600,4.39658154296875,0.02599351666867733,-0.12817128002643585,0.9609313607215881
1768216523851582500,4.40658251953125,0.022156434133648872,0.08986064791679382,0.8573298454284668
1768216523861582600,4.41658251953125,-0.015926236286759377,0.32019051909446716,0.7142605781555176
1768216523871583500,4.42658349609375,-0.014080665074288845,0.4296821355819702,0.5796108841896057
1768216523881583400,4.436583251953125,0.003465837799012661,0.44523417949676514,0.49702441692352295
1768216523891584500,4.44658447265625,0.011184210889041424,0.43997472524642944,0.451968789100647
1768216523901585700,4.456585693359375,0.005047488957643509,0.4074828326702118,0.46114951372146606
1768216523911585500,4.46658544921875,0.004549744538962841,0.35424596071243286,0.4996156692504883
1768216523921586400,4.47658642578125,0.013614345341920853,0.31782564520835876,0.4895569086074829
1768216523931587600,4.486587646484375,-0.019423766061663628,0.3131858706474304,0.4251699447631836
1768216523941587500,4.49658740234375,-0.051712993532419205,0.32358765602111816,0.3151843249797821
1768216523951588600,4.506588623046875,-0.05271008238196373,0.35191330313682556,0.196917325258255
1768216523961589500,4.516589599609375,-0.02997387759387493,0.3332970142364502,0.13034868240356445
1768216523971589600,4.526589599609375,-0.030106769874691963,0.2606006860733032,0.1341434270143509
1768216523981590500,4.536590576171875,-0.024881115183234215,0.22330445051193237,0.18994756042957306
1768216523991590400,4.54659033203125,-0.026915770024061203,0.23292486369609833,0.22591781616210938
1768216524001591600,4.556591552734375,-0.04747324436903,0.21552616357803345,0.2120605856180191
1768216524011592700,4.5665927734375,-0.03840517997741699,0.1545610874891281,0.15118445456027985
1768216524021592600,4.576592529296875,-0.040701624006032944,0.13799995183944702,0.043654534965753555
1768216524031593500,4.586593505859375,-0.08627523481845856,0.013013536110520363,-0.08153481036424637
1768216524041594600,4.5965947265625,-0.079359270632267,-0.03409698233008385,-0.28867122530937195
1768216524051594500,4.606594482421875,-0.1492406129837036,-0.17538407444953918,-0.45532411336898804
1768216524061595400,4.616595458984375,-0.2298222780227661,-0.26340898871421814,-0.5385329723358154
1768216524071596500,4.626596435546875,-0.236277773976326,-0.21769051253795624,-0.5971515774726868
1768216524081596700,4.6365966796875,-0.30080243945121765,-0.20627833902835846,-0.5703580379486084
1768216524091597600,4.64659765625,-0.3590833246707916,-0.15660212934017181,-0.573760449886322
1768216524101598500,4.656598388671875,-0.4789189100265503,-0.003665574826300144,-0.6473239064216614
1768216524111598600,4.6665986328125,-0.6384609341621399,0.025436118245124817,-0.6457462310791016
1768216524121599500,4.676599609375,-0.7110464572906494,-0.007364972028881311,-0.5657603144645691
1768216524131600600,4.6866005859375,-0.8221873044967651,-0.14274702966213226,-0.3927334249019623
1768216524141600500,4.6966005859375,-0.8909783959388733,-0.24488724768161774,-0.24309228360652924
1768216524151601700,4.7066015625,-0.8864938616752625,-0.2573889195919037,-0.20103031396865845
1768216524161601500,4.7166015625,-0.8651385307312012,-0.2000550627708435,-0.21935392916202545
1768216524171602400,4.7266025390625,-0.8368808031082153,-0.12725169956684113,-0.2591535449028015
1768216524181603300,4.736603271484375,-0.7882285714149475,-0.11103810369968414,-0.21316739916801453
1768216524191603500,4.746603515625,-0.7201829552650452,-0.08341366797685623,-0.08691678941249847
1768216524201604600,4.7566044921875,-0.6587680578231812,-0.03577930107712746,0.03660088777542114
1768216524211605500,4.76660546875,-0.6403775811195374,0.0005957491230219603,0.13580790162086487
1768216524221605600,4.776605712890625,-0.6430367231369019,0.053643252700567245,0.19470050930976868
1768216524231606500,4.7866064453125,-0.6358371376991272,0.0649784654378891,0.24395248293876648
1768216524241607400,4.796607421875,-0.623071014881134,0.04890202730894089,0.2570725381374359
1768216524251607600,4.806607666015625,-0.600062906742096,0.03642432019114494,0.22401338815689087
1768216524261608700,4.816608642578125,-0.5789483189582825,0.01961018703877926,0.1427406370639801
1768216524271609600,4.826609619140625,-0.562843382358551,0.008958341553807259,0.06793137639760971
1768216524281609500,4.836609375,-0.5262475609779358,0.020256269723176956,0.027850806713104248
1768216524291610400,4.8466103515625,-0.48076874017715454,0.08579506725072861,0.02069089747965336
1768216524301610500,4.856610595703125,-0.43481484055519104,0.1755385398864746,0.021935658529400826
1768216524311611600,4.866611572265625,-0.38811925053596497,0.26209738850593567,0.022702116519212723
1768216524321612500,4.876612548828125,-0.35754162073135376,0.35290664434432983,0.02869422920048237
1768216524331612700,4.88661279296875,-0.3366270065307617,0.40661996603012085,0.024713335558772087
1768216524341613600,4.896613525390625,-0.31685012578964233,0.431793749332428,0.025547703728079796
1768216524351614500,4.906614501953125,-0.3092867434024811,0.40140867233276367,0.0373002327978611
1768216524361614600,4.916614501953125,-0.28350600600242615,0.33637216687202454,0.06030488386750221
1768216524371615700,4.92661572265625,-0.26815953850746155,0.32306674122810364,0.07734112441539764
1768216524381616000,4.9366162109375,-0.26257622241973877,0.3107088804244995,0.054727960377931595
1768216524391616000,4.946615966796875,-0.26424655318260193,0.3229207992553711,0.03594361990690231
1768216524401617200,4.9566171875,-0.2677733898162842,0.32050850987434387,0.033187780529260635
1768216524411618300,4.966618408203125,-0.277161568403244,0.2871502935886383,0.040174052119255066
1768216524421618200,4.9766181640625,-0.28543412685394287,0.24607741832733154,0.05245521664619446
1768216524431619000,4.986619140625,-0.2862485349178314,0.21347206830978394,0.09219463914632797
1768216524441619200,4.996619140625,-0.2594403624534607,0.1956523209810257,0.1119007021188736
1768216524451620000,5.0066201171875,-0.23852601647377014,0.1878308802843094,0.1173684373497963
1768216524461621000,5.01662109375,-0.21564839780330658,0.1598605066537857,0.12450943887233734
1768216524471621000,5.02662109375,-0.17376460134983063,0.12024092674255371,0.14252784848213196
1768216524481622300,5.036622314453125,-0.13350799679756165,0.08050496131181717,0.16692453622817993
1768216524491623200,5.046623046875,-0.10686147212982178,0.026064889505505562,0.19463446736335754
1768216524501623000,5.056623046875,-0.07539328932762146,-0.01714303344488144,0.18760424852371216
1768216524511624200,5.066624267578125,-0.04705006629228592,-0.05277479812502861,0.1740037500858307
1768216524521625000,5.076625,-0.02635117992758751,-0.07555707544088364,0.17719049751758575
1768216524531625000,5.086625,0.009573531337082386,-0.06840541958808899,0.17233048379421234
1768216524541626000,5.096626220703125,0.027467044070363045,-0.03401549160480499,0.1724759042263031
1768216524551627300,5.106627197265625,0.03990240767598152,0.007111971732228994,0.1819777935743332
1768216524561627100,5.116627197265625,0.05248983949422836,0.03900625556707382,0.20394913852214813
1768216524571628000,5.1266279296875,0.06479790806770325,0.043052393943071365,0.22734953463077545
1768216524581628200,5.136628173828125,0.07544069737195969,0.04314054548740387,0.24056307971477509
1768216524591629000,5.146629150390625,0.08536309748888016,0.003710848744958639,0.23706261813640594
1768216524601630200,5.156630126953125,0.08164532482624054,-0.027465712279081345,0.22092358767986298
1768216524611630000,5.166630126953125,0.07813262194395065,-0.03635427728295326,0.19713836908340454
1768216524621631200,5.17663134765625,0.06878119707107544,-0.001984054921194911,0.1750253438949585
1768216524631632100,5.186632080078125,0.06839663535356522,0.06057972460985184,0.15250219404697418
1768216524641632000,5.196632080078125,0.05787368491292,0.13876107335090637,0.13367576897144318
1768216524651633200,5.206633056640625,0.06777717918157578,0.2301138937473297,0.1106807067990303
1768216524661634300,5.21663427734375,0.06796333938837051,0.3216744363307953,0.09138956665992737
1768216524671634200,5.22663427734375,0.057667024433612823,0.34887781739234924,0.06413770467042923
1768216524681635000,5.236635009765625,0.05090685561299324,0.30715036392211914,0.04001292958855629
1768216524691636000,5.246635986328125,0.0471067912876606,0.24417325854301453,0.03717293590307236
1768216524701636000,5.256635986328125,0.04086034744977951,0.16032175719738007,0.04879576712846756
1768216524711637000,5.266636962890625,0.03743019700050354,0.09145507961511612,0.0642346441745758
1768216524721637000,5.27663720703125,0.03719610348343849,0.060204219073057175,0.07621114701032639
1768216524731638300,5.28663818359375,0.038729019463062286,0.0467403419315815,0.07558157294988632
1768216524741639200,5.29663916015625,0.03435291349887848,0.03563256189227104,0.07094474881887436
1768216524751639000,5.30663916015625,0.025749571621418,0.025081917643547058,0.05572744458913803
1768216524761640200,5.31664013671875,0.013883591629564762,0.03597291558980942,0.059068646281957626
1768216524771641000,5.32664111328125,-0.006542587652802467,0.07238844782114029,0.06480056792497635
1768216524781641000,5.336640869140625,-0.03224395588040352,0.10531523823738098,0.06437952071428299
1768216524791642000,5.34664208984375,-0.05823800712823868,0.14148256182670593,0.051122840493917465
1768216524801643000,5.35664306640625,-0.08115930110216141,0.17039942741394043,0.059660933911800385
1768216524811643100,5.36664306640625,-0.0920867845416069,0.187429279088974,0.07394932210445404
1768216524821644000,5.37664404296875,-0.10053246468305588,0.18665775656700134,0.09037463366985321
1768216524831645000,5.38664501953125,-0.11212760210037231,0.20107798278331757,0.10353358089923859
1768216524841645000,5.39664501953125,-0.13102512061595917,0.22830747067928314,0.10590086877346039
1768216524851646200,5.406646240234375,-0.13395726680755615,0.21256259083747864,0.09684718400239944
1768216524861646000,5.41664599609375,-0.1294807642698288,0.19062800705432892,0.0831524133682251
1768216524871647200,5.426647216796875,-0.12088008224964142,0.16851738095283508,0.0672147199511528
1768216524881648000,5.436648193359375,-0.10102967917919159,0.15940164029598236,0.06998787075281143
1768216524891648000,5.44664794921875,-0.07682500779628754,0.14276248216629028,0.07989083975553513
1768216524901649200,5.456649169921875,-0.0454990416765213,0.10227923095226288,0.08988621085882187
1768216524911650300,5.466650390625,-0.016226107254624367,0.04813903197646141,0.10980053246021271
1768216524921650200,5.476650146484375,0.00936127733439207,-0.011158911511301994,0.1320429891347885
1768216524931651000,5.486651123046875,0.033484723418951035,-0.07741622626781464,0.15128593146800995
1768216524941652000,5.49665185546875,0.05355031043291092,-0.1296892911195755,0.1688382923603058
1768216524951652000,5.506652099609375,0.0693625658750534,-0.14940892159938812,0.1853296458721161
1768216524961653200,5.5166533203125,0.07530327886343002,-0.1523330807685852,0.1977895051240921
1768216524971654100,5.526654052734375,0.07113569229841232,-0.14577211439609528,0.21292398869991302
1768216524981654300,5.536654296875,0.06463970988988876,-0.12836915254592896,0.21577756106853485
1768216524991655200,5.5466552734375,0.046177081763744354,-0.10758904367685318,0.21007387340068817
1768216525001656000,5.556656005859375,0.027712587267160416,-0.08410768955945969,0.18830040097236633
1768216525011656000,5.566656005859375,0.00600383011624217,-0.06744428724050522,0.15124277770519257
1768216525021657300,5.5766572265625,-0.011503257788717747,-0.0655856654047966,0.11362243443727493
1768216525031657200,5.5866572265625,-0.026216423138976097,-0.0639326423406601,0.08759642392396927
1768216525041658000,5.596658203125,-0.041378866881132126,-0.0703926756978035,0.09072776883840561
1768216525051659000,5.606658935546875,-0.046848200261592865,-0.0864185094833374,0.11918524652719498
1768216525061659100,5.6166591796875,-0.05156145989894867,-0.10024537891149521,0.15135996043682098
1768216525071660000,5.626659912109375,-0.05330663174390793,-0.08961830288171768,0.16788460314273834
1768216525081661200,5.6366611328125,-0.04857392609119415,-0.06684880703687668,0.1610962152481079
1768216525091661300,5.646661376953125,-0.042383141815662384,-0.035589952021837234,0.14214302599430084
1768216525101662200,5.656662109375,-0.033790986984968185,-0.010282997973263264,0.12378399074077606
1768216525111663000,5.6666630859375,-0.02701057866215706,0.004519650712609291,0.10415170341730118
1768216525121663000,5.6766630859375,-0.022950856015086174,0.019898606464266777,0.09351849555969238
1768216525131664100,5.6866640625,-0.021142836660146713,0.032408274710178375,0.09073522686958313
1768216525141664000,5.6966640625,-0.01625167392194271,0.0417461134493351,0.09469694644212723
1768216525151665200,5.7066650390625,-0.012554673478007317,0.032330241054296494,0.10214181244373322
1768216525161666000,5.716666015625,-0.02034229040145874,0.0360938236117363,0.10473014414310455
1768216525171666200,5.726666259765625,-0.01768818311393261,0.049914028495550156,0.09661602228879929
1768216525181667000,5.7366669921875,-0.006893592420965433,0.059603676199913025,0.06825228780508041
1768216525191668000,5.74666796875,0.003772101365029812,0.08466269075870514,0.02118757739663124
1768216525201668000,5.756668212890625,0.01353631541132927,0.0867982804775238,-0.015154984779655933
1768216525211669200,5.766669189453125,0.019814983010292053,0.06458831578493118,-0.022666696459054947
1768216525221670100,5.776670166015625,0.026631344109773636,0.04072665795683861,-0.017057014629244804
1768216525231670000,5.786669921875,0.035407792776823044,0.02599378302693367,-0.00526560191065073
1768216525241671200,5.796671142578125,0.03597557917237282,0.01581757888197899,0.0022626216523349285
1768216525251672000,5.806672119140625,0.038232605904340744,0.0025425199419260025,0.020356670022010803
1768216525261672000,5.816671875,0.045692652463912964,-0.004274639766663313,0.036485038697719574
1768216525271673000,5.826673095703125,0.04380340874195099,-0.0038157771341502666,0.043166644871234894
1768216525281674200,5.83667431640625,0.042695265263319016,0.013481187634170055,0.042521361261606216
1768216525291674000,5.846674072265625,0.036739639937877655,0.029533924534916878,0.032519325613975525
1768216525301675000,5.856675048828125,0.029774406924843788,0.04063184931874275,0.025043834000825882
1768216525311675100,5.866675048828125,0.026513898745179176,0.036019787192344666,0.018667427822947502
1768216525321676000,5.876676025390625,0.023612385615706444,0.025668878108263016,0.016327042132616043
1768216525331677200,5.88667724609375,0.017967814579606056,0.01901576854288578,0.013032977469265461
1768216525341677300,5.89667724609375,0.014142717234790325,0.01763971336185932,0.01593715511262417
1768216525351678200,5.90667822265625,0.010029464960098267,0.01107635349035263,0.029510753229260445
1768216525361679000,5.91667919921875,0.0016266588354483247,0.0017038905061781406,0.04880775138735771
1768216525371679000,5.926678955078125,-0.002207494108006358,-0.00993359088897705,0.05217958241701126
1768216525381680000,5.93668017578125,-0.005368666257709265,-0.02232927456498146,0.03629462420940399
1768216525391681500,5.946681640625,-0.007476558443158865,-0.04165876284241676,0.017794709652662277
1768216525401681400,5.956681396484375,-0.009483516216278076,-0.06145590543746948,0.011829495429992676
1768216525411682300,5.966682373046875,-0.012270514853298664,-0.07506012916564941,0.00749173853546381
1768216525421683200,5.97668310546875,-0.012626312673091888,-0.08176303654909134,0.010149306617677212
1768216525431683300,5.986683349609375,-0.01360316015779972,-0.07154395431280136,0.019640812650322914
1768216525441684500,5.9966845703125,-0.012456403113901615,-0.05998131260275841,0.02335086278617382
1768216525451684400,6.006684326171875,-0.010038252919912338,-0.0432574599981308,0.03007880598306656
1768216525461685500,6.016685546875,-0.009386311285197735,-0.03220320865511894,0.028301412239670753
1768216525471686400,6.026686279296875,-0.0067694890312850475,-0.03257045894861221,0.02707742340862751
1768216525481686300,6.036686279296875,-0.004484763368964195,-0.02660205028951168,0.029696110635995865
1768216525491687400,6.0466875,0.0010663296561688185,-0.017487647011876106,0.03582058101892471
1768216525501688600,6.0566884765625,0.0036248285323381424,0.00618146313354373,0.03399711474776268
1768216525511688400,6.0666884765625,0.008356200531125069,0.02742789499461651,0.029347768053412437
1768216525521689300,6.076689453125,0.0095658078789711,0.04236796498298645,0.022131135687232018
1768216525531690200,6.086690185546875,0.013075854629278183,0.05351116135716438,0.014639396220445633
1768216525541690400,6.0966904296875,0.015596004202961922,0.059481967240571976,0.00694871973246336
1768216525551691300,6.106691162109375,0.014688931405544281,0.05350716784596443,0.006364688742905855
1768216525561692400,6.1166923828125,0.017461014911532402,0.04566548764705658,0.00256462418474257
1768216525571692500,6.126692626953125,0.013461479917168617,0.04478717967867851,-0.006469883490353823
1768216525581693400,6.136693359375,0.013287309557199478,0.0453171469271183,-0.008017180487513542
1768216525591693300,6.146693359375,0.012285694479942322,0.04372803866863251,-0.0059742690064013
1768216525601694500,6.156694580078125,0.009317335672676563,0.04322683438658714,-0.005340436939150095
1768216525611695400,6.1666953125,0.008763398043811321,0.0420830063521862,-0.016939036548137665
1768216525621695200,6.1766953125,0.003418167121708393,0.03215261176228523,-0.027834294363856316
1768216525631696400,6.1866962890625,-0.00012410330236889422,0.018934275954961777,-0.03779158741235733
1768216525641697300,6.196697265625,-0.003231213428080082,0.00663420045748353,-0.0450524277985096
1768216525651697400,6.206697509765625,-0.004009122494608164,-0.0014660701854154468,-0.050099652260541916
1768216525661698300,6.2166982421875,-0.00974583812057972,-0.005891445092856884,-0.044138431549072266
1768216525671699200,6.22669921875,-0.010234528221189976,-0.004774248693138361,-0.038186267018318176
1768216525681699300,6.23669921875,-0.010320015251636505,-0.007783886976540089,-0.020596887916326523
1768216525691700500,6.246700439453125,-0.01119433157145977,-0.006765494588762522,-0.0024682176299393177
1768216525701701400,6.256701416015625,-0.006372411735355854,-0.0005811017472296953,0.010511763393878937
1768216525711701500,6.266701416015625,-0.002231995342299342,0.007084274664521217,0.017917482182383537
1768216525721702400,6.276702392578125,0.00009960222087102011,0.01161537691950798,0.02328934334218502
1768216525731703300,6.286703369140625,0.0027473168447613716,0.022354308515787125,0.023063240572810173
1768216525741703200,6.296703125,0.007279218174517155,0.03690661862492561,0.022062957286834717
1768216525751704600,6.30670458984375,0.007758054416626692,0.05085093155503273,0.013144830241799355
1768216525761704400,6.316704345703125,0.012054531835019588,0.05868488550186157,0.013374394737184048
1768216525771705300,6.326705322265625,0.011898737400770187,0.05884227901697159,0.008537028916180134
1768216525781706200,6.336706298828125,0.008904811926186085,0.06648075580596924,-0.00041678472189232707
1768216525791706400,6.346706298828125,0.0006354302167892456,0.06695932894945145,-0.019453858956694603
1768216525801707300,6.356707275390625,-0.0029728866647928953,0.06556116789579391,-0.03170226886868477
1768216525811708400,6.36670849609375,-0.0023792681749910116,0.06053498387336731,-0.03788666054606438
1768216525821708500,6.37670849609375,-0.0013960290234535933,0.05417961627244949,-0.03617158532142639
1768216525831709400,6.38670947265625,-0.0023422501981258392,0.04330619424581528,-0.025796443223953247
1768216525841710300,6.39671044921875,0.002770752878859639,0.04099137336015701,-0.02257295325398445
1768216525851710200,6.406710205078125,0.007654191460460424,0.04032478481531143,-0.022719427943229675
1768216525861711400,6.41671142578125,0.012329370714724064,0.04117060452699661,-0.024744760245084763
1768216525871712500,6.42671240234375,0.015241270884871483,0.03387514129281044,-0.024040887132287025
1768216525881712400,6.43671240234375,0.01534859649837017,0.020308200269937515,-0.0204570721834898
1768216525891713300,6.44671337890625,0.013784521259367466,0.01047367975115776,-0.010582869872450829
1768216525901713400,6.45671337890625,0.011967979371547699,0.012835371308028698,-0.000019707391402334906
1768216525911714300,6.46671435546875,0.008657670579850674,0.020377974957227707,0.007466171868145466
1768216525921715200,6.476715087890625,0.0075905416160821915,0.03566825017333031,0.008123706094920635
1768216525931715600,6.486715576171875,0.005717806983739138,0.04847858473658562,0.009517072699964046
1768216525941716500,6.496716552734375,0.0027598338201642036,0.04659093916416168,-0.003064765827730298
1768216525951717400,6.50671728515625,-0.0007869640830904245,0.04706338420510292,-0.011800467036664486
1768216525961717200,6.51671728515625,0.001784850494004786,0.043164514005184174,-0.01671905815601349
1768216525971718400,6.526718505859375,-0.0019257317762821913,0.029764819890260696,-0.016470586881041527
1768216525981719300,6.53671923828125,-0.004720186814665794,0.015915317460894585,-0.008051002398133278
1768216525991719400,6.546719482421875,-0.005261873826384544,0.014601846225559711,0.0014836470363661647
1768216526001720300,6.55672021484375,-0.010223343037068844,0.011443602852523327,0.009639311581850052
1768216526011721500,6.566721435546875,-0.009213471785187721,0.011009241454303265,0.021952437236905098
1768216526021721300,6.576721435546875,-0.008242749609053135,0.017423199489712715,0.03831995651125908
1768216526031722200,6.58672216796875,-0.008960471488535404,0.019942017272114754,0.04775873199105263
1768216526041723400,6.596723388671875,-0.006554305553436279,0.03657105937600136,0.054787613451480865
1768216526051723500,6.6067236328125,-0.007568703964352608,0.047323573380708694,0.05615967512130737
1768216526061724400,6.616724365234375,-0.003454652614891529,0.062058575451374054,0.054553255438804626
1768216526071724300,6.626724365234375,-0.002377137541770935,0.07015831768512726,0.05010657757520676
1768216526081725400,6.636725341796875,0.0062581622041761875,0.0740787535905838,0.04788150638341904
1768216526091726300,6.646726318359375,0.00762915750965476,0.1035865768790245,0.05398280918598175
1768216526101726200,6.656726318359375,0.004102599807083607,0.14011529088020325,0.05229516327381134
1768216526111727400,6.666727294921875,0.0001984054979402572,0.1642688363790512,0.03771036118268967
1768216526121728500,6.676728515625,-0.0007755124825052917,0.20098982751369476,0.031137412413954735
1768216526131728400,6.686728271484375,-0.010644921101629734,0.2250983566045761,0.018125474452972412
1768216526141729300,6.696729248046875,-0.01588149555027485,0.24592800438404083,0.010289655067026615
1768216526151730200,6.706730224609375,-0.023482955992221832,0.23881417512893677,-0.0049074068665504456
1768216526161730300,6.716730224609375,-0.023016901686787605,0.2254943698644638,-0.0070619042962789536
1768216526171731500,6.7267314453125,-0.03327859565615654,0.19510211050510406,0.00469621829688549
1768216526181732400,6.736732421875,-0.03645174950361252,0.1607808917760849,0.01990792714059353
1768216526191732500,6.746732421875,-0.03786482289433479,0.1335492730140686,0.02947959490120411
1768216526201733400,6.7567333984375,-0.04061586782336235,0.1245935931801796,0.023691480979323387
1768216526211733200,6.766733154296875,-0.032830119132995605,0.10516423732042313,0.021457355469465256
1768216526221734400,6.776734375,-0.038838207721710205,0.0794261172413826,0.021511683240532875
1768216526231735600,6.786735595703125,-0.04607641324400902,0.05758287012577057,0.019880497828125954
1768216526241735400,6.7967353515625,-0.05167491361498833,0.02671736478805542,0.01540798507630825
1768216526251736300,6.806736328125,-0.0468740314245224,0.01212563831359148,0.01817767135798931
1768216526261737500,6.816737548828125,-0.0477166548371315,-0.0030988543294370174,0.012825783342123032
1768216526271737300,6.8267373046875,-0.046492934226989746,-0.004051466938108206,0.016638098284602165
1768216526281738200,6.83673828125,-0.04279113933444023,-0.018634937703609467,0.028720594942569733
1768216526291739400,6.846739501953125,-0.03676946461200714,-0.03531138598918915,0.010641193017363548
1768216526301739500,6.856739501953125,-0.0311677735298872,-0.03677425906062126,-0.011185542680323124
1768216526311740400,6.866740478515625,-0.029565349221229553,-0.028014058247208595,-0.02262754738330841
1768216526321741300,6.8767412109375,-0.026801254600286484,-0.026506176218390465,-0.02978239580988884
1768216526331741400,6.886741455078125,-0.01997264288365841,-0.017722537741065025,-0.03150732442736626
1768216526341742300,6.896742431640625,-0.02400999516248703,-0.034814171493053436,-0.025648372247815132
1768216526351742200,6.9067421875,-0.027540015056729317,-0.07150480896234512,-0.011454255320131779
1768216526361743400,6.916743408203125,-0.031443677842617035,-0.0992584079504013,0.006071208510547876
1768216526371744500,6.92674462890625,-0.031124895438551903,-0.1224963515996933,0.015332084149122238
1768216526381744400,6.936744384765625,-0.0240736436098814,-0.12424737960100174,0.01170512568205595
1768216526391745300,6.946745361328125,-0.016408801078796387,-0.11740358918905258,0.011630557477474213
1768216526401746400,6.956746337890625,-0.007713313214480877,-0.09490946680307388,0.0181150883436203
1768216526411746600,6.96674658203125,-0.009978065267205238,-0.06840302795171738,0.034758780151605606
1768216526421747500,6.97674755859375,-0.004291950259357691,-0.05126957967877388,0.01907648891210556
1768216526431748400,6.986748291015625,-0.0070677632465958595,-0.029076658189296722,-0.004467186518013477
1768216526441748500,6.99674853515625,-0.006057093385607004,-0.021796375513076782,-0.013766678981482983
1768216526451749400,7.006749267578125,-0.009211874566972256,-0.03292226418852806,-0.02726224809885025
1768216526461750500,7.01675048828125,-0.008861402049660683,-0.033182986080646515,-0.03762700408697128
1768216526471750400,7.02675048828125,-0.005537777207791805,-0.02249785140156746,-0.030297718942165375
1768216526481751600,7.03675146484375,-0.001913481275551021,-0.015372831374406815,-0.017899638041853905
1768216526491752400,7.04675244140625,0.00227860058657825,-0.0033396040089428425,-0.003040264593437314
1768216526501752300,7.05675244140625,0.002712695859372616,0.002945189829915762,-0.0036783581599593163
1768216526511753200,7.066753173828125,0.004270378965884447,0.00276116537861526,-0.00896926037967205
1768216526521753300,7.07675341796875,0.004433097783476114,0.0033222935162484646,-0.016573118045926094
1768216526531754500,7.08675439453125,0.003983822651207447,-0.004591289907693863,-0.023329025134444237
1768216526541755400,7.09675537109375,0.002516687149181962,-0.014503841288387775,-0.02689499780535698
1768216526551755500,7.106755615234375,0.00464694993570447,-0.02774907276034355,-0.03172890096902847
1768216526561756400,7.11675634765625,0.006776147056370974,-0.03590447083115578,-0.039324767887592316
1768216526571757300,7.12675732421875,0.009998838417232037,-0.0433991402387619,-0.043476369231939316
1768216526581757200,7.136757080078125,0.008037419989705086,-0.043961863964796066,-0.047260724008083344
1768216526591758600,7.146758544921875,0.011830294504761696,-0.04246623441576958,-0.04911774396896362
1768216526601759500,7.156759521484375,0.012049738317728043,-0.03262052685022354,-0.04644792526960373
1768216526611759400,7.16675927734375,0.008905877359211445,-0.009763414971530437,-0.025477662682533264
1768216526621760300,7.17676025390625,0.012383433058857918,-0.015837285667657852,-0.0004524710529949516
1768216526631761400,7.186761474609375,0.01269608736038208,-0.025847043842077255,0.01787380501627922
1768216526641761300,7.19676123046875,0.01607510633766651,-0.030055370181798935,0.022186528891324997
1768216526651762400,7.206762451171875,0.014798120595514774,-0.02936241589486599,0.028624454513192177
1768216526661763300,7.216763427734375,0.018091652542352676,-0.022399848327040672,0.03303172066807747
1768216526671763500,7.226763427734375,0.016229303553700447,-0.01974068209528923,0.03459392860531807
1768216526681764400,7.236764404296875,0.019328424707055092,-0.02069835364818573,0.03105458803474903
1768216526691764500,7.246764404296875,0.017531055957078934,-0.02707529254257679,0.02503105066716671
1768216526701765400,7.256765380859375,0.01685088500380516,-0.027885161340236664,0.022006232291460037
1768216526711766500,7.2667666015625,0.018612831830978394,-0.027632160112261772,0.022185729816555977
1768216526721766400,7.276766357421875,0.014792794361710548,-0.020594224333763123,0.023090938106179237
1768216526731767300,7.286767333984375,0.010960505343973637,-0.01389770582318306,0.02623479999601841
1768216526741768400,7.2967685546875,0.007699198555201292,-0.011473696678876877,0.034445859491825104
1768216526751768300,7.306768310546875,0.007449127733707428,-0.014121145009994507,0.0361739844083786
1768216526761769200,7.316769287109375,0.005319397896528244,-0.017191769555211067,0.04176262766122818
1768216526771770400,7.326770263671875,0.004905542824417353,-0.021991318091750145,0.0406813845038414
1768216526781770500,7.3367705078125,0.00538357999175787,-0.02491147443652153,0.037042174488306046
1768216526791771400,7.346771484375,0.0076869479380548,-0.029734458774328232,0.031086547300219536
1768216526801772300,7.356772216796875,0.007010238710790873,-0.034753188490867615,0.02466939389705658
1768216526811772400,7.3667724609375,0.007296795025467873,-0.03297153115272522,0.017617342993617058
1768216526821773600,7.376773681640625,0.007733819540590048,-0.02845747396349907,0.012042282149195671
1768216526831773400,7.3867734375,0.004963599611073732,-0.021277325227856636,0.010358897969126701
1768216526841774300,7.3967744140625,0.004780107643455267,-0.016531305387616158,0.00808935146778822
1768216526851775500,7.406775390625,0.0062911855056881905,-0.01136983372271061,0.011498730629682541
1768216526861775400,7.416775390625,0.006621417589485645,-0.007867510430514812,0.011797803454101086
1768216526871776300,7.4267763671875,0.004710865672677755,-0.006880809087306261,0.008376174606382847
1768216526881777400,7.43677734375,0.00558092026039958,-0.01137063279747963,0.011800200678408146
1768216526891777500,7.446777587890625,0.004458398092538118,-0.017592841759324074,0.011454255320131779
1768216526901778400,7.4567783203125,0.00418302696198225,-0.025057949125766754,0.008496548980474472
1768216526911779300,7.466779296875,0.00344479875639081,-0.02659405954182148,0.00700730923563242
1768216526921779500,7.476779541015625,0.002132659312337637,-0.028966404497623444,0.0015190670965239406
1768216526931780400,7.4867802734375,0.001157143502496183,-0.03268364444375038,-0.000550475378986448
1768216526941781500,7.496781494140625,0.0007257114048115909,-0.028087293729186058,-0.0035236284602433443
1768216526951781600,7.50678173828125,0.00239231763407588,-0.023551665246486664,-0.006426740437746048
1768216526961782500,7.516782470703125,0.003171292133629322,-0.01776248589158058,-0.005941246170550585
1768216526971783400,7.526783447265625,0.005291700828820467,-0.010916297324001789,-0.007306382525712252
1768216526981783300,7.536783203125,0.01079645473510027,-0.005007541738450527,-0.01088913343846798
1768216526991784400,7.546784423828125,0.012103267945349216,-0.003263437654823065,-0.011327489279210567
1768216527001784300,7.556784423828125,0.016088156029582024,-0.0013235911028459668,-0.015121161937713623
1768216527011785500,7.566785400390625,0.01501010823994875,0.00003728425508597866,-0.011707255616784096
1768216527021786400,7.576786376953125,0.016187759116292,-0.001175519311800599,-0.010054764337837696
1768216527031786500,7.586786376953125,0.013907027430832386,-0.005254150368273258,-0.007505853194743395
1768216527041787400,7.596787353515625,0.014365090988576412,-0.013001020066440105,-0.0073410035111010075
1768216527051788300,7.606788330078125,0.012109925970435143,-0.00878923013806343,-0.007096791639924049
1768216527061788400,7.616788330078125,0.012828713282942772,-0.00666456064209342,-0.0010974886827170849
1768216527071789600,7.62678955078125,0.007488009985536337,-0.0033044503070414066,0.0016279903938993812
1768216527081790500,7.63679052734375,0.004009388852864504,-0.006187854800373316,0.006368683185428381
1768216527091790300,7.646790283203125,0.0028549085836857557,-0.009410812519490719,0.00640809815376997
1768216527101791500,7.65679150390625,0.0011030812747776508,-0.014154701493680477,0.005732720717787743
1768216527111792400,7.66679248046875,0.0006434197421185672,-0.01690361648797989,0.0014354437589645386
1768216527121792300,7.676792236328125,-0.00010279801790602505,-0.022408369928598404,0.0011350392596796155
1768216527131793400,7.68679345703125,0.0006348976166918874,-0.024690166115760803,-0.0010926949325948954
1768216527141794600,7.696794677734375,0.0007062703371047974,-0.020798489451408386,-0.003299922915175557
1768216527151794400,7.70679443359375,0.0009707222343422472,-0.016934508457779884,0.002433330286294222
1768216527161795300,7.71679541015625,0.0037611823063343763,-0.01410623174160719,0.004254399798810482
1768216527171795500,7.72679541015625,0.0032929987646639347,-0.014273211359977722,0.002686863299459219
1768216527181796400,7.73679638671875,0.0036272252909839153,-0.009164736606180668,0.0018988338997587562
1768216527191797500,7.746797607421875,0.003899933071807027,-0.012624715454876423,0.0012905678013339639
1768216527201797400,7.75679736328125,0.0028210864402353764,-0.01357333268970251,-0.0016727314796298742
1768216527211798500,7.766798583984375,0.000988032785244286,-0.015856727957725525,-0.0015598133904859424
1768216527221799400,7.77679931640625,0.0007659250986762345,-0.019727366045117378,-0.0010418286547064781
1768216527231799300,7.78679931640625,0.001374723738990724,-0.017964886501431465,-0.001654622028581798
1768216527241800200,7.79680029296875,0.0020245350897312164,-0.017958493903279305,-0.005929261911660433
1768216527251801600,7.806801513671875,0.001118527608923614,-0.019462380558252335,-0.005679191090166569
1768216527261801500,7.816801513671875,-0.0008980178972706199,-0.02442491613328457,0.0014761901693418622
1768216527271802400,7.82680224609375,-0.0005765743553638458,-0.02889210171997547,0.006052033510059118
1768216527281803300,7.83680322265625,-0.004057059530168772,-0.029516613110899925,0.011215636506676674
1768216527291803400,7.846803466796875,-0.00404507527127862,-0.02953578718006611,0.014271880500018597
1768216527301804300,7.85680419921875,-0.006059224251657724,-0.026853451505303383,0.00908564031124115
1768216527311804400,7.866804443359375,-0.0080350236967206,-0.028553614392876625,0.007795072626322508
1768216527321805600,7.8768056640625,-0.007433947641402483,-0.03127696365118027,0.002614957746118307
1768216527331806500,7.886806396484375,-0.006699181627482176,-0.03188282996416092,0.003206978552043438
1768216527341806300,7.896806396484375,-0.005571332760155201,-0.029458822682499886,0.008069111965596676
1768216527351807200,7.90680712890625,-0.004681038204580545,-0.02647128887474537,0.008040616288781166
1768216527361808400,7.916808349609375,-0.004682635888457298,-0.022324213758111,0.010151703841984272
1768216527371808500,7.92680859375,-0.0035635759122669697,-0.01786688156425953,0.0067689563147723675
1768216527381809400,7.936809326171875,-0.0031518512405455112,-0.014220480807125568,0.0023007048293948174
1768216527391810300,7.946810302734375,-0.0022770026698708534,-0.006874417886137962,0.0010578075889497995
1768216527401810400,7.956810546875,0.00024341292737517506,-0.003388606244698167,0.00016724651504773647
1768216527411811300,7.966811279296875,-0.002112952060997486,-0.006097573786973953,-0.004188619554042816
1768216527421812200,7.976812255859375,0.0007925567333586514,-0.008490423671901226,-0.0003171824791934341
1768216527431812600,7.9868125,0.0007816377910785377,-0.008176969364285469,-0.0017638115677982569
1768216527441813500,7.9968134765625,-0.0006106628570705652,-0.001907355966977775,-0.002153698354959488
1768216527451814400,8.006814453125,-0.0024311996530741453,-0.0023347933311015368,-0.003756654914468527
1768216527461814500,8.016814453125,0.0008996158139780164,-0.006371346767991781,-0.0027861990965902805
1768216527471815400,8.0268154296875,-0.00072597770486027,-0.01744050905108452,0.005019525997340679
1768216527481815300,8.036815185546875,-0.000441818410763517,-0.022938072681427002,0.008250739425420761
1768216527491816400,8.04681640625,-0.0015725966077297926,-0.025847310200333595,0.00999297946691513
1768216527501817300,8.0568173828125,0.001978195970878005,-0.02768888510763645,0.012803679332137108
1768216527511817500,8.0668173828125,0.0046267095021903515,-0.035176895558834076,0.01763678342103958
1768216527521818400,8.076818359375,0.003942010924220085,-0.03707040473818779,0.021943647414445877
1768216527531819300,8.0868193359375,0.002662095706909895,-0.032038893550634384,0.021093834191560745
1768216527541819400,8.0968193359375,0.00007137271313695237,-0.024623055011034012,0.018125474452972412
1768216527551820500,8.106820556640624,0.0026192190125584602,-0.023969780653715134,0.011175156570971012
1768216527561821400,8.116821533203124,0.0005744438385590911,-0.01630067639052868,0.010372213087975979
1768216527571821600,8.126821533203126,-0.0022599585354328156,-0.008293350227177143,0.007254983298480511
1768216527581822500,8.136822509765626,-0.00039547940832562745,-0.007748733274638653,0.00666349520906806
1768216527591823400,8.1468232421875,-0.0013076120521873236,-0.008743157610297203,0.005648031830787659
1768216527601823200,8.1568232421875,-0.00036938043194822967,-0.0041345576755702496,0.0036482643336057663
1768216527611824600,8.16682470703125,-0.0007262440049089491,-0.002028263406828046,0.002606435678899288
1768216527621825500,8.176825439453125,0.00037976677413098514,-0.004116980824619532,0.004066380672156811
1768216527631825400,8.186825439453125,-0.0006748450105078518,-0.002395247109234333,0.004294081125408411
1768216527641826300,8.196826416015625,0.0004415521107148379,-0.0002665824140422046,0.003552124137058854
1768216527651826400,8.206826416015625,-0.00026791400159709156,-0.0007424892974086106,0.004772384651005268
1768216527661827300,8.216827392578125,-0.001333178486675024,-0.0018423747969791293,0.0015419702976942062
1768216527671828500,8.226828369140625,0.001181378262117505,-0.00041811628034338355,0.004850415047258139
1768216527681828600,8.23682861328125,-0.002210956299677491,-0.00042211104300804436,0.0041702440939843655
1768216527691829500,8.24682958984375,-0.0008625978953205049,0.0014495585346594453,0.0033518546260893345
1768216527701830400,8.256830322265625,-0.00034434671397320926,0.003102849004790187,0.00019707392493728548
1768216527711830300,8.266830322265625,-0.00003488740912871435,0.001261539408005774,-0.003127083647996187
1768216527721831400,8.27683154296875,0.000010386328540334944,-0.0006687197601422668,-0.005288505461066961
1768216527731832600,8.28683251953125,0.0001954760227818042,0.0015986956423148513,-0.004449343308806419
1768216527741832400,8.29683251953125,0.00036964676110073924,0.0062333946116268635,-0.0029292108956724405
1768216527751833300,8.306833251953124,0.00025007082149386406,0.010290720500051975,-0.00032863407977856696
1768216527761834500,8.31683447265625,-0.0006953513366170228,0.011281150393188,-0.0004191815387457609
1768216527771834400,8.32683447265625,-0.002030926523730159,0.009091765619814396,0.0012956279097124934
1768216527781835300,8.336835205078126,-0.0029976540245115757,0.008099738508462906,-0.000003728425554072601
1768216527791835400,8.34683544921875,-0.004396612755954266,0.006737797521054745,0.00008974852971732616
1768216527801836500,8.35683642578125,-0.0011235876008868217,0.002475142013281584,0.0003616572648752481
1768216527811837400,8.36683740234375,-0.0006700513185933232,-0.0009922938188537955,-0.0006026733317412436
1768216527821837300,8.37683740234375,-0.0008008125587366521,-0.00570023013278842,-0.003629888640716672
1768216527831838500,8.38683837890625,0.00022530343267135322,-0.006668555550277233,-0.006261890754103661
1768216527841839400,8.39683935546875,0.0030655646696686745,-0.009236108511686325,-0.005253617651760578
1768216527851839200,8.406839111328125,0.0014024205738678575,-0.00782436691224575,-0.005419532768428326
1768216527861840400,8.41684033203125,0.0005579322460107505,-0.006331399083137512,-0.004927114117890596
1768216527871841500,8.426841552734375,-0.000003462109361862531,-0.0035180358681827784,-0.0015393070643767715
1768216527881841400,8.43684130859375,0.0007813714328221977,-0.003937217406928539,-0.0011041465913876891
1768216527891842300,8.44684228515625,-0.0012868394842371345,-0.0006945523782633245,-0.0012389025650918484
1768216527901843200,8.45684326171875,-0.0014053500490263104,0.0005968143814243376,-0.0032895365729928017
1768216527911843300,8.46684326171875,-0.0015052186790853739,0.002894589677453041,-0.008237423375248909
1768216527921844500,8.476844482421875,0.0006740460521541536,0.007843541912734509,-0.009030778892338276
1768216527931845400,8.486845458984375,0.0017688715597614646,0.011204184964299202,-0.008188687264919281
1768216527941845500,8.496845458984374,0.0018674085149541497,0.01284469198435545,-0.009337841533124447
1768216527951846400,8.506846435546874,0.0019121496006846428,0.009327455423772335,-0.011721104383468628
1768216527961847300,8.516847412109374,0.0022591594606637955,0.00691942498087883,-0.012604741379618645
1768216527971847200,8.52684716796875,0.0006862966110929847,0.004887433256953955,-0.012109126895666122
1768216527981848600,8.5368486328125,0.002225870033726096,0.004484230652451515,-0.0093905720859766
1768216527991848400,8.546848388671876,0.0009680590592324734,0.00247567449696362,-0.007910121232271194
1768216528001849300,8.556849365234376,-0.0007635282818228006,0.00037044569035060704,-0.00827018078416586
1768216528011850200,8.566850341796876,-0.0009390306076966226,-0.0020897823851555586,-0.009199091233313084
1768216528021850400,8.576850341796876,-0.0018101505702361465,-0.0008532768115401268,-0.009997506625950336
1768216528031851500,8.5868515625,-0.002510561840608716,0.001970472978428006,-0.009600695222616196
1768216528041852400,8.596852294921876,-0.0016706009628251195,-0.0006740460521541536,-0.006744988262653351
1768216528051852500,8.6068525390625,-0.0020836573094129562,-0.0054578823037445545,-0.009310144931077957
1768216528061853400,8.616853515625,-0.003690076060593128,-0.005672000348567963,-0.009345298632979393
1768216528071854300,8.626854248046875,-0.0023031015880405903,-0.005892243701964617,-0.009007875807583332
1768216528081854500,8.6368544921875,-0.0031609057914465666,-0.006375074852257967,-0.006990797817707062
1768216528091855600,8.646855712890625,-0.0013949638232588768,-0.006323676090687513,-0.005505020264536142
1768216528101856500,8.6568564453125,-0.0007574030314572155,-0.006403038278222084,-0.00621049152687192
1768216528111856400,8.6668564453125,-0.002241050126031041,-0.005146292503923178,-0.005914880894124508
1768216528121857300,8.676857177734375,-0.0024141555186361074,-0.005016330163925886,-0.005664277356117964
1768216528131857400,8.686857421875,-0.0020189424976706505,-0.0015033544041216373,-0.006779076531529427
1768216528141858300,8.6968583984375,-0.0017595505341887474,0.0024770060554146767,-0.00863263662904501
1768216528151859500,8.706859375,-0.0017587515758350492,0.005674929823726416,-0.006187854800373316
1768216528161859600,8.716859619140624,-0.0005624596378766,0.007060039788484573,-0.006295712664723396
1768216528171860500,8.726860595703124,-0.002430667169392109,0.007954062893986702,-0.0062642875127494335
1768216528181861400,8.736861328125,-0.0023132218047976494,0.008620119653642178,-0.006645918358117342
1768216528191861500,8.746861572265624,-0.0025422535836696625,0.007962851785123348,-0.006356166675686836
1768216528201862400,8.7568623046875,-0.0014652712270617485,0.009574863128364086,-0.005642971955239773
1768216528211863600,8.766863525390624,0.0009973538108170033,0.010860370472073555,-0.0014136058744043112
1768216528221863400,8.776863525390626,0.00039601203752681613,0.009074721485376358,0.00010199906682828441
1768216528231864600,8.786864501953126,-0.0005677859298884869,0.006955377757549286,0.00011691277177305892
1768216528241865500,8.796865478515626,-0.0014868428697809577,0.008708270266652107,0.0007568703731521964
1768216528251865300,8.806865234375,0.00016724651504773647,0.014384797774255276,-0.0014937670202925801
1768216528261866200,8.8168662109375,0.0004261057765688747,0.019029883667826653,-0.00398728484287858
1768216528271867400,8.826867431640625,0.0017084177816286683,0.021798240020871162,-0.008706139400601387
1768216528281867500,8.836867431640625,-0.00005193164179218002,0.017858359962701797,-0.006628874223679304
1768216528291868400,8.846868408203125,-0.0005307680112309754,0.014629276469349861,-0.0024381240364164114
1768216528301869300,8.856869384765625,-0.0009275790071114898,0.012494220398366451,0.0020216056145727634
1768216528311869400,8.866869384765625,-0.0016319850692525506,0.010901915840804577,0.0033864756114780903
1768216528321870300,8.876870361328125,-0.0009134642314165831,0.011578625068068504,0.0032085764687508345
1768216528331870200,8.8868701171875,-0.0018642127979546785,0.008871255442500114,0.005080245900899172
1768216528341871600,8.89687158203125,0.00009800432599149644,0.007634217385202646,0.0019257317762821913
1768216528351872500,8.90687255859375,0.0011560781858861446,0.007144728675484657,-0.0001608549355296418
1768216528361872400,8.916872314453125,0.0005305017111822963,0.005049886181950569,-0.003727626521140337
1768216528371873300,8.926873291015625,0.0005826996639370918,0.003946804907172918,-0.007292001508176327
1768216528381874400,8.93687451171875,0.00025726135936565697,0.0017033577896654606,-0.008388158865272999
1768216528391875600,8.94687548828125,-0.0016700683627277613,0.0024056334514170885,-0.006386526394635439
1768216528401876700,8.956876708984375,-0.0030338731594383717,0.005799299571663141,-0.0038956720381975174
1768216528411877600,8.966877685546875,-0.003162237349897623,0.007643804885447025,-0.0029995182994753122
1768216528421877500,8.97687744140625,-0.0018905780743807554,0.013126720674335957,-0.006372944451868534
1768216528431878700,8.986878662109374,-0.001303351018577814,0.015217036008834839,-0.008903213776648045
1768216528441879600,8.996879638671874,-0.0018402442801743746,0.021766813471913338,-0.011325891129672527
1768216528451879700,9.006879638671874,0.0007978830835781991,0.027950407937169075,-0.012344816699624062
1768216528461880600,9.016880615234374,-0.00005352953667170368,0.030241791158914566,-0.011634551919996738
1768216528471880700,9.026880615234376,-0.0005142564186826348,0.03166311979293823,-0.010056628845632076
1768216528481881600,9.036881591796876,0.00101146858651191,0.030855916440486908,-0.010361027903854847
1768216528491882500,9.046882568359376,0.0007107976707629859,0.028792764991521835,-0.013058544136583805
1768216528501882600,9.056882568359375,-0.0017126789316534996,0.027658792212605476,-0.014457502402365208
1768216528511883800,9.0668837890625,-0.0022455775178968906,0.02725132741034031,-0.011885421350598335
1768216528521884700,9.076884765625,-0.0018785938154906034,0.023738618940114975,-0.013590376824140549
1768216528531884500,9.086884521484375,-0.0029888655990362167,0.021192369982600212,-0.015424496494233608
1768216528541885700,9.0968857421875,-0.0025097629986703396,0.02196095883846283,-0.015977900475263596
1768216528551886600,9.106886474609375,-0.0035276231355965137,0.027162378653883934,-0.019060242921113968
1768216528561886500,9.116886474609375,-0.0027952538803219795,0.02955229952931404,-0.01937183365225792
1768216528571887600,9.1268876953125,-0.0035712989047169685,0.03099679760634899,-0.015174957923591137
1768216528581888800,9.136888671875,-0.005005411338061094,0.03178242966532707,-0.01528654433786869
1768216528591888600,9.146888671875,-0.003370496677234769,0.028810875490307808,-0.016805078834295273
1768216528601889500,9.1568896484375,-0.0051928977482020855,0.025976739823818207,-0.0179973766207695
1768216528611890400,9.166890380859375,-0.003072755178436637,0.023986559361219406,-0.015109177678823471
1768216528621890600,9.176890625,-0.0022205437999218702,0.021526863798499107,-0.016501212492585182
1768216528631891700,9.1868916015625,-0.0007262440049089491,0.018123609945178032,-0.018078336492180824
1768216528641891800,9.196891845703124,-0.00007270430069183931,0.019039204344153404,-0.01805916242301464
1768216528651892700,9.206892822265624,-0.0006327670416794717,0.018852783367037773,-0.016595754772424698
1768216528661893600,9.2168935546875,-0.00016671388584654778,0.02093324437737465,-0.01447028573602438
1768216528671893500,9.2268935546875,-0.0009861685102805495,0.02340066432952881,-0.013247362338006496
1768216528681894700,9.236894775390626,-0.0017118799732998013,0.025422003120183945,-0.012928315438330173
1768216528691895800,9.246895751953126,-0.0006900250446051359,0.024996429681777954,-0.013014601543545723
1768216528701895700,9.256895751953126,-0.002558765234425664,0.023243270814418793,-0.01564047858119011
1768216528711896600,9.266896484375,-0.0034730283077806234,0.023420104756951332,-0.017315607517957687
1768216528721897700,9.276897705078126,-0.0032178976107388735,0.022156434133648872,-0.017913753166794777
1768216528731897600,9.286897705078125,-0.0032003207597881556,0.02484969049692154,-0.019395802170038223
1768216528741898500,9.2968984375,-0.0023608922492712736,0.03208363428711891,-0.02148957923054695
1768216528751899600,9.306899658203125,-0.0026013758033514023,0.03587890416383743,-0.027103789150714874
1768216528761899800,9.316899658203125,-0.0013630058383569121,0.037935663014650345,-0.027629496529698372
1768216528771900700,9.326900634765625,0.00010759170982055366,0.047143545001745224,-0.022826218977570534
1768216528781901600,9.336901611328125,0.00018508969515096396,0.039383623749017715,-0.026630545035004616
1768216528791901700,9.346901611328125,-0.0002687129599507898,0.03099227137863636,-0.027114175260066986
1768216528801902600,9.356902587890625,0.0027627632953226566,0.027180753648281097,-0.01950046420097351
1768216528811902500,9.36690234375,0.0009803095599636436,0.024980716407299042,-0.015353390015661716
1768216528821903600,9.376903564453125,0.0010125337867066264,0.02081313729286194,-0.013161075301468372
1768216528831904800,9.38690478515625,-0.000937166390940547,0.020474381744861603,-0.017125191166996956
1768216528841904600,9.396904541015624,-0.0002556634717620909,0.018424279987812042,-0.02136947028338909
1768216528851905500,9.406905517578124,-0.00001864212754298933,0.01672065630555153,-0.023898674175143242
1768216528861906400,9.416906494140624,-0.0008966863388195634,0.00860174372792244,-0.028179707005620003
1768216528871906600,9.426906494140624,-0.003988349810242653,0.0027393274940550327,-0.0330844484269619
1768216528881907700,9.43690771484375,-0.001445830101147294,0.004797950852662325,-0.03669649362564087
1768216528891908600,9.44690869140625,-0.002834402257576585,0.006530337035655975,-0.03266100585460663
1768216528901908700,9.45690869140625,-0.0033899378031492233,0.011684086173772812,-0.027702201157808304
1768216528911909600,9.46690966796875,-0.0023257385473698378,0.0161222442984581,-0.02725079655647278
1768216528921910500,9.47691064453125,-0.0030660973861813545,0.020667994394898415,-0.023745808750391006
1768216528931910400,9.486910400390625,-0.002201901515945792,0.020068516954779625,-0.017080184072256088
1768216528941911800,9.496911865234376,-0.0037819549906998873,0.018811505287885666,-0.010453440248966217
1768216528951912700,9.50691259765625,-0.002543585142120719,0.01853107288479805,-0.006973753683269024
1768216528961912600,9.51691259765625,-0.002127599436789751,0.014638330787420273,-0.005139634478837252
1768216528971913500,9.52691357421875,-0.0036709012929350138,0.014538728632032871,-0.006106362212449312
1768216528981914600,9.53691455078125,-0.0020359866321086884,0.01420636661350727,-0.0015345134306699038
1768216528991914500,9.54691455078125,-0.003965979442000389,0.011077684350311756,-0.00809228140860796
1768216529001915600,9.55691552734375,-0.003368099918588996,0.007683752104640007,-0.01612144522368908
1768216529011915800,9.566915771484375,-0.002532399957999587,0.005939648021012545,-0.018569422885775566
1768216529021916700,9.576916748046875,-0.005025917664170265,0.004268780816346407,-0.021086908876895905
1768216529031917600,9.58691748046875,-0.002561694709584117,0.007062703371047974,-0.021017933264374733
1768216529041917400,9.59691748046875,-0.003367034485563636,0.009374060668051243,-0.018033063039183617
1768216529051918600,9.606918701171875,-0.0018602180061861873,0.007729026023298502,-0.014367487281560898
1768216529061919700,9.616919677734375,-0.0014343785587698221,0.010763165540993214,-0.007382548879832029
1768216529071919600,9.626919677734374,-0.0023558323737233877,0.009409214369952679,-0.0037238982040435076
1768216529081920500,9.63692041015625,-0.0024674187880009413,0.01258024014532566,-0.0035659726709127426
1768216529091921700,9.646921630859374,-0.00045140579459257424,0.015981096774339676,-0.006220345385372639
1768216529101921500,9.656921630859374,-0.0002865561400540173,0.012514992617070675,-0.0065316688269376755
1768216529111922400,9.66692236328125,-0.000904409505892545,0.0023909860756248236,-0.00390259618870914
1768216529121923600,9.676923583984374,-0.0011110707418993115,-0.0009595369338057935,-0.001422128058038652
1768216529131923700,9.686923828125,-0.002436792477965355,-0.001258876291103661,-0.002377403900027275
1768216529141924600,9.696924560546876,-0.002151301596313715,-0.001404018490575254,-0.004226170480251312
1768216529151925500,9.706925537109376,-0.0020999026019126177,-0.002034122357144952,-0.003185939509421587
1768216529161925600,9.716925537109375,-0.0027632960118353367,-0.005526325665414333,0.0011606055777519941
1768216529171926800,9.7269267578125,-0.0017808558186516166,-0.003573163179680705,0.0006652576266787946
1768216529181926700,9.7369267578125,-0.001469798618927598,-0.0014708638191223145,0.0010583401890471578
1768216529191927600,9.746927490234375,-0.0018042916199192405,-0.002906307578086853,0.0007936219917610288
1768216529201928700,9.7569287109375,0.0006793724023737013,-0.00264824740588665,0.002746784361079335
1768216529211928600,9.766928466796875,-0.00041545313433744013,-0.0008343683439306915,0.000627973407972604
1768216529221929500,9.776929443359375,0.001219461439177394,0.0040855552069842815,0.0026224146131426096
1768216529231930600,9.7869306640625,0.00016937704640440643,0.005231780000030994,0.004932973068207502
1768216529241930800,9.7969306640625,-0.001163268811069429,0.00777643034234643,0.005109807010740042
1768216529251931600,9.806931640625,-0.0028724854346364737,0.009212406352162361,0.0026812704745680094
1768216529261932500,9.8169326171875,-0.0024735440965741873,0.00899562519043684,0.0014820491196587682
1768216529271932700,9.8269326171875,-0.0032621060963720083,0.009983657859265804,-0.00361763802357018
1768216529281933600,9.83693359375,0.0002335592289455235,0.007556186988949776,-0.005397162400186062
1768216529291934700,9.846934814453125,0.0004620584368240088,0.0060147494077682495,-0.0031241541728377342
1768216529301934600,9.8569345703125,0.000003994741746282671,0.002734267385676503,-0.0032687638886272907
1768216529311935700,9.866935791015624,-0.0013739247806370258,-0.002852511825039983,-0.001871136948466301
1768216529321936600,9.8769365234375,-0.00038828887045383453,-0.0041121868416666985,0.00042290997225791216
1768216529331936500,9.8869365234375,-0.00032197617110796273,-0.003325755475088954,-0.0017092167399823666
1768216529341937700,9.896937744140626,-0.0015542207984253764,-0.0009134642314165831,-0.001136104459874332
1768216529351938800,9.906938720703126,0.00019707392493728548,-0.00007243797881528735,-0.0027987160719931126
1768216529361938700,9.916938720703126,-0.0010972223244607449,0.0001496696495451033,-0.0018868496408686042
1768216529371939600,9.926939697265626,-0.0014682007022202015,0.003347327234223485,-0.006050701718777418
1768216529381939700,9.936939697265625,-0.002014415105804801,0.006060555577278137,-0.005152684170752764
1768216529391939000,9.94693896484375,-0.002594451420009136,0.006015814375132322,-0.005101817660033703
1768216529401940200,9.956940185546875,-0.0025837989524006844,0.004726844374090433,-0.0021137509029358625
1768216529411940400,9.9669404296875,-0.0005496764206327498,0.0021544971968978643,0.0010863033821806312
1768216529421941200,9.976941162109375,-0.0007890945998951793,0.0011683288030326366,0.002891926560550928
1768216529431942100,9.986942138671875,-0.0005866943974979222,-0.0036392095498740673,0.0010066748363897204
1768216529441942300,9.9969423828125,0.0002463423879817128,-0.006706904619932175,0.0017390442080795765
1768216529451943200,10.006943115234375,0.0005603290628641844,-0.010043046437203884,0.0011531487107276917
1768216529461944300,10.0169443359375,0.0012359730899333954,-0.009184976108372211,0.0015430354978889227
1768216529471944400,10.0269443359375,0.0005422196118161082,-0.005468268413096666,0.003291400847956538
1768216529481945300,10.0369453125,0.0003206445835530758,-0.003481017891317606,0.0032959282398223877
1768216529491946200,10.0469462890625,-0.0019294602097943425,-0.0019542276859283447,0.0024588967207819223
1768216529501946000,10.056946044921874,0.0005020058597438037,-0.0005685848882421851,0.0011472897604107857
1768216529511947300,10.066947265625,-0.0017755294684320688,-0.002526008291170001,0.0018453042721375823
1768216529521948400,10.076948486328124,-0.0011829761788249016,-0.005787048954516649,0.0006207828409969807
1768216529531948300,10.0869482421875,-0.002353968098759651,-0.0068030450493097305,-0.002127599436789751
1768216529541949200,10.09694921875,-0.0019166769925504923,-0.005042961798608303,-0.002484462922438979
1768216529551950300,10.106950439453126,-0.0019795275293290615,-0.004127100575715303,0.0014253237750381231
1768216529561950200,10.1169501953125,-0.0008130630594678223,-0.0026053704787045717,0.003894340479746461
1768216529571951000,10.126951171875,-0.00034940673504024744,-0.003856257302686572,0.002936401404440403
1768216529581951200,10.136951171875,-0.0010508833220228553,-0.005111671518534422,0.0029670277144759893
1768216529591952400,10.146952392578125,-0.0010487528052181005,-0.005424859002232552,0.000322775129461661
1768216529601953300,10.156953369140625,-0.002097239252179861,-0.0009773800848051906,-0.0026133600622415543
1768216529611953200,10.166953125,-0.00027057717670686543,-0.003051982494071126,-0.0020900487434118986
1768216529621954300,10.176954345703125,-0.0019707391038537025,-0.0020844561513513327,-0.004477572627365589
1768216529631955200,10.186955078125,-0.000499875342939049,-0.004441353492438793,-0.0049135321751236916
1768216529641955000,10.196955078125,-0.002514556748792529,-0.006383596919476986,-0.005017395596951246
1768216529651956200,10.206956298828125,-0.0014990933705121279,-0.003739344421774149,-0.003835218260064721
1768216529661957400,10.216957275390625,-0.0023278691805899143,-0.002603506203740835,-0.002793655963614583
1768216529671957200,10.226957275390625,-0.0024895230308175087,-0.003976366017013788,-0.0004921521758660674
1768216529681958100,10.236958251953125,-0.00177899154368788,-0.009457684122025967,-0.001187237212434411
1768216529691959000,10.246958984375,-0.00038242992013692856,-0.011944543570280075,-0.001751827308908105
1768216529701959200,10.256959228515624,-0.002254632068797946,-0.012345882132649422,-0.002216815249994397
1768216529711960300,10.266960205078124,-0.0023342606145888567,-0.014634336344897747,0.0011060107499361038
1768216529721961200,10.276961181640624,-0.0017531589837744832,-0.014284397475421429,0.0015574166318401694
1768216529731961300,10.28696142578125,-0.0024506407789885998,-0.013798103667795658,0.00001651159800530877
1768216529741962200,10.296962158203126,-0.002365685999393463,-0.01221405528485775,-0.00037630466977134347
1768216529751962000,10.306962158203126,-0.001487375469878316,-0.013221262954175472,-0.0004106594424229115
1768216529761963000,10.316962890625,-0.0012961605098098516,-0.012891297228634357,-0.0014863101532682776
1768216529771964400,10.32696435546875,0.0005379585199989378,-0.013640178367495537,-0.0004846953088417649
1768216529781964300,10.33696435546875,0.00043010051012970507,-0.017583521082997322,0.002508697798475623
1768216529791965200,10.346965087890625,0.00015153386630117893,-0.020315658301115036,0.00809015054255724
1768216529801966000,10.356966064453125,-0.002688727341592312,-0.010324808768928051,0.0023555660154670477
1768216529811966200,10.36696630859375,0.0027294738683849573,-0.03479792922735214,0.013373862020671368
1768216529821967400,10.37696728515625,0.0021174794528633356,-0.02311650477349758,0.006894125137478113
1768216529831968300,10.38696826171875,0.0007795072160661221,-0.014548582956194878,-0.005835252348333597
1768216529841968400,10.396968505859375,0.0008263788768090308,-0.01962376944720745,-0.004060255363583565
1768216529851969300,10.40696923828125,-0.002234392100945115,-0.02015134133398533,0.0009211873984895647
1768216529861970200,10.41697021484375,-0.0005797701887786388,-0.01079672109335661,0.0009803095599636436
1768216529871970300,10.42697021484375,0.0010349043877795339,-0.011088337749242783,0.0009661948424763978
1768216529881971500,10.436971435546875,0.0028815402183681726,-0.012739230878651142,-0.0011888351291418076
1768216529891972400,10.446972412109375,0.000975782226305455,-0.010576478205621243,0.0019805929623544216
1768216529901972200,10.45697216796875,0.002941993996500969,-0.00743234995752573,-0.0003403519804123789
1768216529911973000,10.46697314453125,0.00848669558763504,-0.015485482290387154,-0.0005635248962789774
1768216529921974300,10.476974365234375,0.006533799227327108,-0.019282085821032524,0.002089516259729862
1768216529931974100,10.48697412109375,0.004823517519980669,-0.02737782895565033,0.007192931603640318
1768216529941975300,10.496975341796874,0.004252003040164709,-0.03152543678879738,0.01272884476929903
1768216529951975400,10.506975341796876,0.0034091125708073378,-0.03609781712293625,0.017459683120250702
1768216529961976300,10.516976318359376,0.0012580773327499628,-0.03767627105116844,0.021079452708363533
1768216529971977200,10.526977294921876,-0.0005158542771823704,-0.0347321480512619,0.021673336625099182
1768216529981977300,10.536977294921876,-0.0013757890556007624,-0.0266523826867342,0.022424083203077316
1768216529991978200,10.546978271484376,-0.00021411814668681473,-0.01702239364385605,0.021980399265885353
1768216530001979400,10.5569794921875,-0.001570998691022396,-0.010916297324001789,0.02107119746506214
1768216530011979300,10.566979248046875,-0.0017062872648239136,-0.007534615229815245,0.02028662897646427
1768216530021980200,10.576980224609375,-0.0018708707066252828,-0.005596366710960865,0.016893496736884117
1768216530031981300,10.586981201171875,-0.00030067088664509356,-0.005662146955728531,0.011686217039823532
1768216530041981200,10.596981201171875,-0.0007960188668221235,-0.003572630463168025,0.010573015548288822
1768216530051982000,10.606982177734375,-0.0015992282424122095,-0.00029640982393175364,0.0084837656468153
1768216530061983200,10.616983154296875,0.0007811051327735186,0.002495914464816451,0.0018197379540652037
1768216530071983400,10.6269833984375,0.0006383596919476986,0.005105279851704836,-0.0001651159836910665
1768216530081984300,10.636984375,0.001669003046117723,0.0016261261189356446,-0.0009187905816361308
1768216530091985200,10.646985107421875,0.003270095447078347,-0.0025358619168400764,0.00046152580762282014
1768216530101985300,10.6569853515625,0.0033372072502970695,-0.004362790379673243,0.001347293145954609
1768216530111986200,10.666986083984375,0.0027334685437381268,-0.006101035512983799,0.00024474450037814677
1768216530121987300,10.6769873046875,0.0019140138756483793,-0.003933488857001066,-0.0023257385473698378
1768216530131987500,10.686987548828125,0.0014516890514642,0.00023142869758885354,-0.00096113485051319
1768216530141988400,10.69698828125,-0.0006058691651560366,0.004580370616167784,0.0011896340874955058
1768216530151988200,10.70698828125,-0.000892425247002393,0.01263776421546936,0.003477022983133793
1768216530161989000,10.716989013671874,-0.003507383167743683,0.0046331011690199375,0.0057465690188109875
1768216530171990300,10.726990234375,-0.004764661658555269,0.008801214396953583,0.0025742114521563053
1768216530181990100,10.736990234375,-0.0027630296535789967,0.003054911969229579,0.0017004283145070076
1768216530191991300,10.7469912109375,-0.0029640982393175364,0.0015989618841558695,-0.0001776328426785767
1768216530201992200,10.7569921875,-0.0026317357551306486,0.0029790119733661413,0.0007693872321397066
1768216530211992300,10.766992431640626,-0.002597114769741893,0.0021675468888133764,0.003102316288277507
1768216530221993200,10.7769931640625,-0.002171807922422886,0.0001573928166180849,0.00555322365835309
1768216530231994000,10.786994140625,-0.003969175275415182,-0.002528405049815774,0.008195611648261547
1768216530241994200,10.796994140625,-0.003739078063517809,-0.005691175349056721,0.011656123213469982
1768216530251995400,10.806995361328125,-0.0041095237247645855,-0.004759601317346096,0.01221645250916481
1768216530261996300,10.816996337890625,-0.005665076430886984,-0.006315154023468494,0.01125105656683445
1768216530271996200,10.82699609375,-0.00401524780318141,-0.007387076038867235,0.008866461925208569
1768216530281997300,10.836997314453125,-0.003403519745916128,-0.006868292577564716,0.00714632635936141
1768216530291998200,10.846998291015625,-0.0029736857395619154,-0.006708502769470215,0.002650377806276083
1768216530301998000,10.856998046875,-0.0041553303599357605,-0.004860535264015198,-0.0014050838071852922
1768216530311999200,10.866999267578125,-0.0018293253378942609,-0.005024585872888565,-0.0005360943032428622
1768216530322000400,10.87700048828125,-0.0018967032665386796,-0.007999070920050144,-0.0009238505735993385
1768216530332000300,10.887000244140625,-0.003608849598094821,-0.013940316624939442,0.0005283711361698806
1768216530342001200,10.897001220703125,-0.003288471372798085,-0.014914500527083874,0.001389104756526649
1768216530352002000,10.907001953125,-0.0016306535108014941,-0.015134477987885475,0.001651426195167005
1768216530362002200,10.917002197265624,-0.0014927018200978637,-0.01082654856145382,0.0009704558760859072
1768216530372003300,10.92700341796875,-0.0026232136879116297,-0.005909820552915335,-0.0030011162161827087
1768216530382003200,10.937003173828124,-0.0007390272221527994,-0.0008889631717465818,-0.003980360459536314
1768216530392004400,10.94700439453125,0.0009488842915743589,0.0022335932590067387,-0.005918076727539301
1768216530402005200,10.957005126953124,0.002014148747548461,0.003191798459738493,-0.0043864925391972065
1768216530412005000,10.967005126953126,0.0029880667570978403,0.0027084348257631063,-0.0016223976854234934
1768216530422006300,10.97700634765625,0.0013161342358216643,0.002380333375185728,0.00101173494476825
1768216530432007400,10.98700732421875,0.0004751079250127077,0.0010873686987906694,-0.001163268811069429
1768216530442007300,10.99700732421875,0.0011022823164239526,-0.0004386226355563849,-0.0007094661123119295
1768216530452008200,11.00700830078125,-0.0017627463676035404,-0.0015632755821570754,-0.002788063371554017
1768216530462009000,11.017009033203125,-0.0031968585681170225,-0.000898550555575639,-0.004221909213811159
1768216530472009200,11.02700927734375,-0.002383795566856861,-0.0011203918838873506,-0.004794755019247532
1768216530482010400,11.03701025390625,-0.0033127060160040855,-0.0024748756550252438,-0.005567338317632675
1768216530492011300,11.04701123046875,-0.0036756948102265596,-0.0023843280505388975,-0.007188937161117792
1768216530502011400,11.057011474609375,-0.0022889869287610054,0.0025622271932661533,-0.007810518611222506
1768216530512012300,11.06701220703125,-0.0015209312550723553,0.0015062838792800903,-0.009639577940106392
1768216530522013200,11.07701318359375,-0.0052323127165436745,0.01128221582621336,-0.010342119261622429
1768216530532013000,11.087012939453125,-0.0023515713401138783,0.0009693906176835299,-0.009372196160256863
1768216530542014500,11.097014404296875,0.0009270463488064706,-0.014544054865837097,0.00355878216214478
1768216530552015400,11.107015380859375,-0.0014881744282320142,-0.021916218101978302,0.008057127706706524
1768216530562015200,11.11701513671875,0.0016799219883978367,-0.021948441863059998,0.008249141275882721
1768216530572016000,11.12701611328125,-0.002659166231751442,-0.01053067110478878,0.0070919981226325035
1768216530582016300,11.137016357421874,-0.00381391285918653,-0.011053982190787792,0.0011286477092653513
1768216530592017200,11.14701708984375,-0.0037444045301526785,-0.010377805680036545,-0.00000852211542223813
1768216530602018300,11.157018310546874,-0.003382480936124921,-0.012373578734695911,-0.0026290726382285357
1768216530612018400,11.167018310546876,-0.0012799152173101902,-0.014577344991266727,-0.0031132353469729424
1768216530622019300,11.177019287109376,0.0011773834703490138,-0.013735253363847733,-0.001576857641339302
1768216530632020200,11.187020263671876,0.0018495653057470918,-0.01636006496846676,-0.0003818972909357399
1768216530642020400,11.197020263671876,0.0012191950809210539,-0.014609302394092083,-0.000675377668812871
1768216530652021200,11.207021240234376,0.0012748552253469825,-0.011566374450922012,0.0014202637830749154
1768216530662022400,11.2170224609375,0.00011904330312972888,-0.0058669438585639,0.005575327668339014
1768216530672022300,11.227022216796875,-0.0004982774262316525,-0.0038181741256266832,0.005093561951071024
1768216530682023200,11.237023193359375,-0.0010956244077533484,-0.0006234460161067545,0.0070099723525345325
1768216530692024300,11.2470244140625,-0.002494050422683358,0.00016591492749284953,0.007121559232473373
1768216530702024200,11.257024169921875,-0.00418462511152029,0.0002615224220789969,0.005499694030731916
1768216530712025300,11.267025390625,-0.0071039823815226555,0.004142014309763908,0.0029675604309886694
1768216530722026200,11.277026123046875,-0.006933273747563362,0.00401578051969409,-0.0008671252289786935
1768216530732026400,11.2870263671875,-0.00962759368121624,0.0018455706303939223,-0.002773682354018092
1768216530742027300,11.29702734375,-0.008468319661915302,-0.0031816784758120775,-0.00044474788592197
1768216530752028200,11.307028076171875,-0.008666458539664745,-0.0032051142770797014,0.004297276493161917
1768216530762028300,11.3170283203125,-0.00869255792349577,-0.011270764283835888,0.01242258120328188
1768216530772029400,11.327029541015625,-0.007788148242980242,-0.01828819327056408,0.011283813044428825
1768216530782029300,11.337029296875,-0.005007808096706867,-0.019456788897514343,0.010704576037824154
1768216530792030200,11.3470302734375,-0.0028421254828572273,-0.015904664993286133,0.013492372818291187
1768216530802031400,11.35703125,-0.003999002743512392,-0.01417440827935934,0.01817793771624565
1768216530812031200,11.36703125,-0.0004913532175123692,-0.010722419247031212,0.014962970279157162
1768216530822032100,11.3770322265625,-0.00045619948650710285,-0.006791859865188599,0.015458318404853344
1768216530832033300,11.387033203125,0.00036511936923488975,-0.004741758108139038,0.00993252545595169
1768216530842033400,11.397033447265626,0.0012090750969946384,0.00028522455249913037,0.0070882695727050304
1768216530852034300,11.407034423828126,-0.00045327001134864986,0.004275971557945013,0.0024895230308175087
1768216530862035200,11.41703515625,-0.0008391620358452201,0.004336158744990826,0.0008317052270285785
1768216530872035300,11.427035400390626,-0.00020879182557109743,0.0015254586469382048,0.0014679343439638615
1768216530882036200,11.4370361328125,-0.0014748586108908057,0.0019321233266964555,-0.0016255935188382864
1768216530892037400,11.447037353515626,-0.0032778186723589897,0.004594219382852316,0.0009267800487577915
1768216530902037500,11.45703759765625,-0.001609614584594965,0.004530835896730423,-0.001933454885147512
1768216530912038400,11.467038330078125,-0.001978195970878005,0.004920456558465958,-0.0024264061357825994
1768216530922039300,11.477039306640625,0.00013315805699676275,0.004652009811252356,-0.002020274056121707
1768216530932039200,11.4870390625,-0.000023169501218944788,0.0037835529074072838,-0.0007552724564447999
1768216530942040300,11.497040283203125,0.0016636766958981752,0.003168895374983549,-0.000041545314161339775
1768216530952041500,11.50704150390625,0.0004924184759147465,0.004787298385053873,0.0002061286650132388
1768216530962041300,11.517041259765625,0.00034408041392453015,0.009073922410607338,0.0009033442474901676
1768216530972042200,11.527042236328125,-0.00009827064059209079,0.008857673965394497,-0.001680720946751535
1768216530982043400,11.53704345703125,-0.0006543386843986809,0.007011037785559893,-0.0062331282533705235
1768216530992043300,11.547043212890625,-0.0007747135823592544,0.006583333946764469,-0.005583583377301693
1768216531002044200,11.557044189453125,-0.0011531487107276917,0.006463758181780577,-0.006767092272639275
1768216531012044300,11.567044189453124,-0.0008639294537715614,0.008808138780295849,-0.008421448059380054
1768216531022045400,11.57704541015625,-0.0011299792677164078,0.009682188741862774,-0.009431584738194942
1768216531032046300,11.58704638671875,-0.002520682057365775,0.011366104707121849,-0.004593420308083296
1768216531042046200,11.597046142578124,-0.0031286815647035837,0.01050643716007471,-0.004060521721839905
1768216531052047400,11.60704736328125,-0.004400607198476791,0.010618023574352264,-0.0038605183362960815
1768216531062048300,11.61704833984375,-0.004174238536506891,0.007328220177441835,-0.003674629610031843
1768216531072048000,11.627048095703126,-0.0018793927738443017,0.0016287893522530794,-0.0013688647886738181
1768216531082049300,11.63704931640625,-0.0017499631503596902,-0.000565122754778713,-0.0016674051294103265
1768216531092050400,11.647050537109376,-0.001776594785042107,-0.0007504787645302713,-0.0018959043081849813
1768216531102050300,11.65705029296875,-0.0008058725506998599,-0.0025984463281929493,-0.0031907332595437765
1768216531112051200,11.66705126953125,-0.002189651131629944,-0.003808320267125964,-0.003403786104172468
1768216531122052000,11.677052001953125,-0.002126800362020731,-0.0016684704460203648,-0.0017150756902992725
1768216531132052200,11.68705224609375,-0.002270344877615571,0.00014061490946915,-0.0009656621841713786
1768216531142053400,11.697053466796875,-0.0037926076911389828,0.001113201375119388,-0.0006479470757767558
1768216531152054300,11.70705419921875,-0.004206729121506214,0.001534779672510922,-0.002117745578289032
1768216531162054400,11.717054443359375,-0.004737763665616512,0.0018703379901126027,-0.004997954238206148
1768216531172055300,11.72705517578125,-0.00341523764654994,0.0027196200098842382,-0.005085572600364685
1768216531182056200,11.73705615234375,-0.0020359866321086884,0.004412325099110603,-0.007900266908109188
1768216531192056000,11.74705615234375,-0.0029119004029780626,0.005200088489800692,-0.0054576159454882145
1768216531202057500,11.757057373046875,-0.0007097324123606086,0.006671218667179346,-0.007227286696434021
1768216531212058400,11.767058349609375,-0.0010271812789142132,0.005693039391189814,-0.005122057627886534
1768216531222058200,11.777058349609375,-0.0017422399250790477,0.00686030276119709,-0.006713562645018101
1768216531232059100,11.78705908203125,-0.0009755159262567759,0.006059756502509117,-0.007830225862562656
1768216531242059300,11.797059326171874,0.0007534082396887243,0.007098922040313482,-0.00845313910394907
1768216531252060200,11.80706005859375,-0.002007490722462535,0.005720203742384911,-0.005994509439915419
1768216531262061300,11.817061279296874,-0.000556600687559694,0.002371811307966709,-0.004685831721872091
1768216531272061400,11.8270615234375,-0.0005347627447918057,0.0005808354471810162,-0.003222425002604723
1768216531282062300,11.837062255859376,-0.00195129809435457,-0.0025369273498654366,-0.007733287289738655
1768216531292063200,11.847063232421876,-0.0021076255943626165,-0.0019313243683427572,-0.006774548906832933
1768216531302063000,11.85706298828125,-0.0014839133946225047,0.0008109325426630676,-0.010060623288154602
1768216531312064300,11.867064208984376,-0.0025947177782654762,0.003471430391073227,-0.011284079402685165
1768216531322065400,11.8770654296875,-0.0015345134306699038,0.003900199430063367,-0.01110618095844984
1768216531332065300,11.887065185546875,0.0008370315190404654,0.0027502465527504683,-0.011973571963608265
1768216531342066200,11.897066162109375,-0.0003587277897167951,0.0034732946660369635,-0.011811652220785618
1768216531352067300,11.9070673828125,-0.00038695731200277805,0.0030631679110229015,-0.007737548090517521
1768216531362067200,11.917067138671875,-0.0010602044640108943,0.0022501046769320965,-0.008414790034294128
1768216531372068400,11.927068359375,-0.002347310073673725,0.0005893575726076961,-0.008163387887179852
