timestamp;acc_x;acc_y;acc_z;gyro_x;gyro_y;gyro_z
193050;9.65;-1.78;-0.67;8.6875;-5.625;3.5625
193050;9.59;-2.12;-0.62;7.1875;-7.4375;4.625
193050;9.63;-2.15;-0.63;8.9375;-6.6875;4.4375
193050;9.62;-2.07;-0.66;9.75;-6.75;4.25
193050;9.62;-2.26;-0.66;9.5;-5.3125;3.9375
193050;9.55;-2.3;-0.81;9.0625;-4.8125;4.0625
193050;9.61;-2.31;-0.77;9.0625;-5.25;3.75
193050;9.57;-2.29;-0.83;9.4375;-5.6875;3.0625
193050;9.6;-2.27;-0.65;8.5625;-2.0625;3.5
193050;9.53;-2.36;-0.66;8.375;-0.8125;3.9375
193050;9.55;-2.49;-0.63;8.3125;-0.75;3.875
193050;9.46;-2.58;-0.58;8.5;-0.25;4.0
193050;9.59;-2.8;-0.63;4.0;-1.125;1.4375
193050;9.54;-2.87;-0.5;3.6875;-1.125;2.0
193050;9.52;-2.84;-0.46;2.75;-0.4375;2.625
193050;9.36;-2.77;-0.18;-1.3125;-3.125;3.5
193050;9.26;-2.63;-0.14;-0.9375;-2.5625;2.8125
193050;9.52;-2.63;0.01;-1.5625;-2.875;0.4375
193050;9.38;-2.18;0.37;-13.1875;9.3125;-12.75
193050;9.51;-2.53;0.16;-13.75;9.8125;-14.125
193050;9.78;-2.66;0.02;-14.125;10.125;-14.6875
193050;10.46;-2.49;-0.07;-15.5625;9.8125;-14.25
193051;10.07;-2.94;-1.3;-21.0625;7.25;-12.1875
193051;9.87;-2.71;-1.42;-21.125;5.625;-11.625
193051;9.52;-2.07;-1.49;-20.3125;5.125;-10.3125
193051;8.78;-1.01;-0.87;-32.25;5.8125;-4.0
193051;9.41;-1.06;-0.75;-31.3125;6.125;-4.3125
193051;9.75;-1.21;-0.7;-27.3125;6.3125;-5.75
193051;8.87;-0.93;-0.92;-4.75;2.5625;-10.25
193051;8.85;-1.42;-0.79;-2.4375;-2.25;-7.5625
193051;8.83;-1.47;-0.67;-1.1875;-3.8125;-6.3125
193051;8.85;-1.29;-0.52;-0.0625;-5.125;-4.5
193051;9.87;-0.78;0.03;6.25;-5.4375;2.3125
193051;9.58;-0.63;0.06;5.5;-5.625;2.625
193051;9.51;-0.74;0.07;3.9375;-6.8125;3.375
193051;9.36;-1.04;0.02;4.0625;-7.8125;3.75
193051;9.89;-1.04;0.21;20.3125;-12.4375;8.5
193051;9.91;-1.2;0.3;21.4375;-11.5625;8.75
193051;9.84;-1.47;0.26;24.9375;-8.5;9.875
193051;9.74;-1.52;0.36;29.3125;-6.5;10.4375
193051;12.05;-1.16;-1.77;37.25;-1.375;-1.1875
193051;12.24;-1.61;-0.82;23.5625;2.1875;-10.6875
193052;11.13;-1.4;-0.59;16.4375;5.6875;-13.8125
193052;10.57;-1.04;-0.88;32.6875;-7.0625;2.1875
193052;10.67;-1.09;-0.97;11.0;-7.875;1.375
193052;10.39;-1.6;-1.33;5.5;-6.5625;2.4375
193052;10.31;-1.96;-1.37;5.0;-3.0;4.375
193052;9.54;-2.3;-0.57;1.6875;-5.3125;0.4375
193052;9.32;-2.29;-0.63;-1.8125;-3.1875;0.6875
193052;9.12;-2.31;-0.59;-2.4375;-2.8125;0.8125
193052;8.89;-1.96;0.07;-3.4375;-8.8125;-2.9375
193052;8.98;-1.96;0.2;-7.375;-8.0625;-5.0
193052;9.15;-2.05;0.0;-9.8125;-7.625;-5.75
193052;9.09;-2.12;0.2;-9.25;-7.375;-7.125
193052;9.58;-1.51;0.88;-14.375;-1.9375;-12.875
193052;9.53;-1.16;1.1;-19.0;-1.8125;-12.75
193052;9.52;-1.02;1.14;-21.625;-0.875;-13.3125
193052;12.12;-1.73;-2.15;28.5;16.8125;10.4375
193052;10.13;-1.39;-0.69;37.8125;15.625;15.3125
193052;7.01;-1.37;0.49;35.1875;12.5625;11.3125
193052;7.03;-1.42;0.38;23.125;-1.875;-1.875
193052;10.17;-2.3;-1.29;-2.0;-5.4375;-1.75
193052;10.77;-2.31;-1.13;4.0;-4.6875;-1.8125
193053;10.86;-2.18;-1.09;6.375;-4.0;-2.9375
193053;9.29;-0.58;-1.28;15.25;-1.875;-2.6875
193053;9.27;-0.74;-1.34;13.3125;-2.125;-2.4375
193053;9.0;-1.32;-1.4;14.625;-3.0;-2.375
193053;8.85;-1.54;-1.4;19.375;-5.4375;-1.125
193053;9.57;-0.84;-0.14;8.8125;-5.5;6.5625
193053;9.49;-0.88;0.07;9.875;-3.5;9.5
193053;9.51;-0.97;0.12;10.1875;-2.625;9.6875
193053;10.91;-2.96;1.42;22.6875;0.3125;9.0625
193053;10.58;-2.68;1.32;33.9375;9.3125;4.75
193053;10.24;-1.6;1.04;38.9375;10.375;1.9375
193053;10.42;-0.45;0.75;40.75;8.9375;-3.75
193053;6.75;-3.56;-1.71;-9.4375;17.0625;1.6875
193053;8.54;-3.89;-1.63;16.8125;5.25;13.0
193053;9.41;-3.16;-1.48;24.4375;0.75;17.0625
193053;11.13;-1.94;-0.86;19.6875;1.875;11.75
193053;7.28;-1.8;-0.47;-20.3125;2.3125;13.1875
193053;7.68;-1.92;-0.27;-23.4375;-1.6875;11.9375
193053;7.99;-2.11;-0.33;-29.25;-7.75;9.0625
193053;9.0;-1.48;0.28;-26.9375;-6.6875;-0.9375
193054;8.94;-1.55;0.66;-31.625;-8.0;-3.0
193054;8.84;-1.34;0.77;-33.4375;-7.6875;-3.6875
193054;8.76;-1.27;0.71;-37.375;-5.1875;-5.5625
193054;11.4;-1.76;1.59;-30.9375;29.5625;0.6875
193054;10.08;-2.92;-0.11;-33.375;25.25;0.0
193054;10.53;-3.31;-0.59;-32.1875;7.9375;0.5625
193054;9.92;0.91;-2.81;-50.5;-7.5625;2.4375
193054;9.05;0.65;-3.47;-60.9375;1.0;1.5625
193054;8.66;0.38;-3.45;-62.75;2.625;2.0
193054;8.6;-1.0;-2.1;-51.625;-2.375;3.0625
193054;8.41;0.39;-0.84;-15.9375;-3.625;-2.3125
193054;7.89;-0.34;-1.1;-15.3125;-6.625;-0.8125
193054;7.98;-0.57;-1.06;-12.625;-11.9375;1.125
193054;9.86;-0.59;-0.37;3.625;-7.375;3.5
193054;9.77;-0.58;0.1;3.625;-3.5625;7.8125
193054;9.6;-0.69;0.18;3.875;-1.375;9.5
193054;9.15;-1.07;0.25;6.9375;1.5625;12.125
193054;11.37;-2.52;1.19;28.9375;18.3125;-0.5625
193054;10.45;-1.41;-0.63;36.3125;17.5;-3.375
193054;10.51;-0.53;-1.04;36.5;7.3125;-7.0625
193055;12.63;0.36;-1.54;27.875;1.4375;-10.5625
193055;8.69;-1.57;-0.77;75.625;0.0625;16.875
193055;9.57;-0.29;-0.51;61.875;-2.75;11.75
193055;11.35;1.4;-0.35;12.0625;-7.375;-1.5625
193055;6.61;-2.15;-0.71;-12.25;-3.4375;12.875
193055;7.54;-1.82;-0.55;-18.0;-7.75;10.6875
193055;8.06;-1.81;-0.29;-25.875;-9.625;8.625
193055;9.41;-2.31;-0.23;-26.25;-8.9375;8.125
193055;9.45;-1.21;1.02;-29.3125;-3.375;-8.0625
193055;9.43;-1.01;1.06;-31.9375;-1.625;-9.375
193055;9.22;-1.19;0.22;-36.5;3.25;-12.0625
193055;9.63;-3.05;0.06;-33.0;11.875;3.8125
193055;11.65;-3.84;-0.7;-30.125;4.5625;4.8125
193055;12.42;-3.76;-0.73;-23.9375;4.25;5.9375
193055;12.71;-3.66;-1.81;-18.375;10.1875;6.375
193055;8.81;-1.65;-2.94;-49.125;-1.75;1.6875
193055;8.85;-2.34;-2.55;-37.25;-5.1875;4.375
193055;9.55;-3.34;-1.42;-8.875;-13.8125;6.1875
193055;7.94;0.01;-0.96;3.9375;-19.3125;-3.0
193055;8.69;-0.77;-0.85;2.6875;-20.8125;-2.5625
193056;9.08;-1.01;-0.7;1.375;-18.5;-1.4375
193056;9.81;-1.22;-0.54;0.6875;-15.0;-0.875
193056;9.51;-1.0;0.33;13.625;-2.3125;12.375
193056;9.54;-0.92;0.38;17.125;1.4375;13.5
193056;9.6;-0.58;0.34;18.0;2.6875;14.125
193056;11.43;-0.03;-0.56;53.1875;8.8125;-9.625
193056;12.09;0.47;-0.65;44.25;7.6875;-13.125
193056;12.99;0.65;-1.43;19.5;8.8125;-17.75
193056;12.93;0.45;-1.93;4.4375;10.3125;-18.8125
193056;10.41;-0.44;-0.13;8.75;-1.0;1.3125
193056;10.49;-0.38;-0.33;-7.0625;-2.0625;-0.1875
193056;10.24;-1.04;-1.08;-25.5;-1.625;2.4375
193056;8.58;-2.26;-0.05;-17.0625;-11.0625;10.375
193056;8.8;-2.05;-0.01;-20.3125;-10.0;8.5625
193056;8.91;-2.04;0.0;-25.875;-7.4375;4.8125
193056;9.02;-2.26;-0.04;-26.1875;-6.0;3.9375
193056;9.3;-2.08;0.16;-25.4375;1.375;-13.375
193056;9.28;-2.15;0.1;-24.9375;2.8125;-15.625
193056;9.83;-1.69;0.76;-27.0625;3.375;-17.0
193056;13.07;-3.19;-1.75;-26.5;7.6875;12.5
193057;12.32;-3.59;-2.81;-19.4375;13.25;12.0
193057;10.21;-4.1;-1.87;-0.0625;8.4375;13.5625
193057;8.97;-3.75;-0.66;1.5;4.8125;15.6875
193057;9.41;-3.12;-1.7;4.4375;-16.4375;4.75
193057;9.75;-3.3;-1.43;15.0;-18.5625;3.8125
193057;10.15;-3.37;-1.15;26.875;-19.25;0.375
193057;8.96;-1.1;-1.28;7.6875;-26.6875;-0.25
193057;9.07;-1.07;-1.2;7.875;-24.625;0.4375
193057;8.96;-1.06;-1.29;8.5;-21.9375;1.25
193057;8.9;-1.14;-1.27;9.0625;-21.5;1.9375
193057;9.24;-1.13;-0.47;17.9375;-15.9375;11.4375
193057;9.27;-0.99;-0.49;19.125;-15.5625;11.8125
193057;9.32;-0.74;-0.57;19.5625;-14.625;11.8125
193057;8.5;-0.71;-5.25;46.75;-22.6875;4.6875
193057;9.3;-0.26;-4.64;31.25;-40.25;-0.25
193057;10.33;-0.13;-4.4;-4.5625;-42.25;-12.375
193057;11.16;-0.14;-3.95;-24.6875;-39.875;-19.0
193057;9.23;-3.26;-3.15;-8.5625;-19.375;6.75
193057;8.62;-3.43;-3.3;-9.625;-20.625;3.125
193057;8.51;-3.42;-3.3;-5.0;-24.5625;-0.125
193058;8.15;-2.42;-2.89;-13.75;-23.0625;-3.0
193058;8.24;-2.52;-2.81;-14.125;-23.0625;-4.0625
193058;8.57;-2.86;-2.88;-11.625;-21.3125;-6.5
193058;7.36;-2.13;-1.59;-3.375;6.75;-19.4375
193058;6.79;-1.5;-2.07;-4.0625;1.4375;-15.5
193058;6.36;-0.97;-2.58;-5.6875;-2.4375;-9.125
193058;5.77;-1.19;-3.59;-11.1875;-10.4375;4.25
193058;7.48;-2.38;-3.07;-6.1875;14.0;8.375
193058;7.57;-2.63;-4.25;-0.125;3.0625;4.5625
193058;8.92;-2.02;-3.79;12.0;-17.3125;-5.625
193058;6.5;-1.21;0.19;74.75;3.25;-6.5625
193058;7.51;-1.29;0.15;70.8125;0.3125;-20.125
193058;7.64;-1.59;-0.19;63.375;0.0;-23.6875
193058;6.76;-0.46;-1.46;28.375;-14.8125;-28.3125
193058;5.21;-4.01;-6.77;-17.3125;-65.25;-27.625
193058;7.84;-1.83;-9.32;-6.4375;-72.4375;-28.5625
193058;9.05;-1.56;-10.15;9.9375;-96.0;-23.8125
193058;-1.78;3.1;1.8;45.4375;-237.6875;-72.4375
193058;6.4;-2.27;0.17;9.0625;-246.3125;-83.75
193058;6.13;-3.25;-4.38;19.75;-229.8125;-57.25
193059;7.37;-2.67;-3.24;89.3125;-204.75;-18.3125
193059;5.43;1.17;-15.41;238.625;-132.625;88.4375
193059;9.27;2.48;-9.68;203.25;-106.4375;76.5
193059;8.1;3.45;-4.11;118.75;44.1875;28.375
193059;2.32;-10.96;-5.97;-143.9375;-166.1875;91.5
193059;-7.51;-18.31;-11.64;-89.625;-59.3125;168.125
193059;-13.55;-9.47;-15.42;-46.25;-81.5;224.625
193059;-1.63;-9.39;-0.59;109.1875;-80.625;33.1875
193059;-1.24;-6.11;-3.38;61.3125;-1.0;50.5
193059;-1.43;-4.71;-3.21;60.25;14.75;39.9375
193059;-4.7;-5.86;-2.37;-4.8125;13.1875;-12.5625
193059;-4.71;-6.11;-2.68;-14.1875;13.125;-15.25
193059;-4.52;-6.8;-3.1;-21.375;9.3125;-13.875
193059;-2.27;-7.64;-6.27;-49.125;39.0;-25.625
193059;-2.11;-7.58;-6.53;-46.4375;35.75;-22.8125
193059;-2.01;-7.73;-6.22;-44.6875;34.125;-21.875
193059;-1.85;-7.5;-6.56;-42.0625;29.25;-18.1875
193059;-1.86;-6.71;-6.64;-8.125;0.875;-0.125
193059;-1.86;-6.64;-6.54;-7.125;0.0625;0.4375
193100;-1.95;-6.69;-6.94;-6.0;-1.4375;1.5
193100;-2.24;-6.6;-6.19;12.75;-1.0625;-1.1875
193100;-2.03;-6.68;-5.8;10.125;1.375;-2.6875
193100;-1.96;-6.79;-5.88;7.9375;1.9375;-3.0
193100;-1.86;-6.96;-6.32;5.4375;1.8125;-2.5
193100;-1.62;-6.45;-5.46;-2.8125;2.5625;-1.875
193100;-1.64;-6.56;-5.5;-2.125;1.4375;-0.9375
193100;-1.8;-6.83;-5.51;-8.625;0.6875;0.625
193100;-2.09;-6.82;-7.3;-8.1875;-1.25;2.9375
193100;-1.93;-6.53;-6.69;-2.5;-1.875;1.8125
193100;-2.01;-6.5;-6.63;-1.75;-1.25;2.0625
193100;-1.97;-6.29;-6.41;-1.75;-1.125;1.75
193100;-1.91;-6.23;-6.68;-40.5;8.5625;1.1875
193100;-1.88;-6.3;-7.19;-40.625;9.25;1.3125
193100;-1.84;-6.23;-7.48;-36.0625;7.5625;1.8125
193100;-1.78;-5.62;-7.43;-10.3125;2.0625;1.25
193100;-1.76;-5.52;-7.0;-10.4375;1.875;1.0
193100;-1.73;-5.48;-7.0;-12.5;2.75;0.8125
193100;-1.79;-5.58;-6.87;-17.875;4.9375;0.5
193100;-1.55;-5.35;-7.43;-18.875;8.4375;-1.4375
193101;-1.54;-5.33;-7.37;-20.375;8.75;-1.375
193101;-1.46;-5.18;-7.48;-20.375;8.75;-1.375
193101;-1.43;-5.17;-8.2;-3.375;5.375;-2.0
193101;-1.36;-5.05;-7.91;-3.25;4.5625;-1.9375
193101;-1.37;-4.98;-7.92;-3.0625;4.125;-1.9375
193101;-1.31;-4.97;-7.7;-2.75;3.8125;-1.875
193101;-1.21;-5.08;-7.94;3.375;0.9375;-1.75
193101;-1.2;-5.07;-7.97;3.75;0.4375;-1.5
193101;-1.23;-5.04;-7.85;3.9375;-0.4375;-0.875
193101;-1.26;-4.97;-7.94;-6.8125;1.875;0.25
193101;-1.25;-5.03;-8.03;-4.9375;2.8125;-0.1875
193101;-1.24;-5.02;-8.04;-4.3125;3.0;-0.25
193101;-1.27;-5.01;-8.05;-3.1875;3.125;-0.5625
193101;-1.11;-5.0;-7.95;0.5;1.4375;-2.9375
193101;-1.11;-5.01;-8.03;1.125;1.1875;-2.6875
193101;-1.09;-4.97;-7.96;2.4375;0.3125;-2.1875
193101;-1.13;-5.16;-7.77;10.5625;0.625;-1.9375
193101;-1.12;-5.15;-7.89;9.5625;1.0;-2.1875
193101;-1.14;-5.12;-7.82;9.4375;0.875;-2.25
193101;-1.15;-5.1;-7.67;9.75;0.5;-2.1875
193102;-0.94;-5.31;-7.7;-1.0625;2.0625;-1.125
193102;-0.93;-5.29;-7.72;-3.0;1.5;-0.6875
193102;-0.91;-5.27;-7.72;-3.6875;1.0625;-0.3125
193102;-0.99;-5.08;-7.71;-5.8125;1.3125;-0.9375
193102;-0.98;-5.07;-7.74;-6.0625;1.6875;-1.1875
193102;-0.93;-5.06;-7.8;-6.0625;1.625;-1.1875
193102;-0.93;-5.04;-7.82;-6.75;1.4375;-0.75
193102;-0.88;-5.01;-7.96;-1.875;2.3125;-1.6875
193102;-0.88;-5.02;-8.0;-1.5;1.8125;-1.625
193102;-0.91;-5.01;-7.96;-1.5625;1.625;-1.5625
193102;-0.79;-4.95;-7.91;-3.75;3.6875;-3.3125
193102;-0.8;-5.01;-7.99;-4.5;4.4375;-3.0625
193102;-0.79;-4.98;-8.04;-5.1875;4.125;-2.75
193102;-0.77;-4.95;-8.07;-5.625;3.6875;-2.625
193102;-0.67;-4.71;-8.29;-20.375;2.0625;-0.3125
193102;-0.67;-4.66;-8.5;-19.4375;1.25;0.125
193102;-0.7;-4.68;-8.65;-17.875;0.8125;0.4375
193102;-0.77;-4.45;-8.27;0.875;-1.4375;0.75
193102;-0.75;-4.43;-8.22;2.1875;-1.125;0.4375
193102;-0.76;-4.44;-8.27;2.75;-0.9375;0.3125
193103;-0.75;-4.49;-8.27;2.8125;-0.6875;0.0625
193103;-0.74;-4.61;-8.18;7.125;-1.5625;1.0
193103;-0.75;-4.59;-8.12;7.0625;-2.0;1.1875
193103;-0.79;-4.61;-8.1;7.125;-1.5625;0.9375
193103;-0.77;-4.66;-8.15;7.25;-1.1875;0.9375
193103;-0.78;-4.69;-8.03;-2.3125;-1.375;1.625
193103;-0.82;-4.69;-7.99;-2.8125;-1.1875;1.75
193103;-0.8;-4.66;-8.0;-3.25;-1.1875;1.625
193103;-0.83;-4.61;-8.17;-3.625;-2.0;1.4375
193103;-0.9;-4.55;-8.18;-4.6875;-2.1875;1.8125
193103;-0.89;-4.59;-8.2;-4.0625;-2.1875;1.6875
193103;-0.89;-4.54;-8.22;-1.9375;-1.625;1.5
193103;-0.94;-4.56;-8.26;2.3125;-2.25;2.1875
193103;-0.97;-4.56;-8.21;3.3125;-1.5;1.8125
193103;-0.95;-4.58;-8.21;3.6875;-1.0;1.6875
193103;-0.95;-4.64;-8.05;2.0625;-0.4375;0.4375
193103;-0.94;-4.63;-8.04;1.8125;-0.5;0.5
193103;-0.93;-4.69;-8.11;1.0625;-0.625;0.75
193103;-0.94;-4.64;-8.13;1.0;-0.25;0.5
193103;-0.96;-4.64;-8.13;-1.0;1.0;0.125
193104;-0.94;-4.63;-8.16;-0.9375;1.6875;0.0625
193104;-0.94;-4.6;-8.22;-0.4375;1.9375;-0.125
193104;-0.92;-4.65;-8.16;1.1875;0.125;1.0625
193104;-0.9;-4.67;-8.13;1.5625;-0.5625;1.0625
193104;-0.9;-4.64;-8.12;2.0;-0.25;1.25
193104;-0.92;-4.65;-8.13;2.5;-0.625;1.1875
193104;-0.9;-4.69;-8.04;0.0;-0.3125;0.8125
193104;-0.89;-4.67;-8.11;-0.625;-0.25;0.5625
193104;-0.87;-4.68;-8.18;-0.6875;-0.25;0.5625
193104;-0.91;-4.67;-8.06;0.3125;1.0;-0.0625
193104;-0.92;-4.7;-8.12;0.4375;0.8125;0.125
193104;-0.9;-4.71;-8.2;0.8125;0.5625;0.125
193104;-0.88;-4.72;-8.34;1.75;0.4375;0.25
193104;-0.91;-4.8;-8.1;7.8125;-0.375;0.125
193104;-0.91;-4.81;-8.03;8.375;-0.6875;0.0625
193104;-0.93;-4.83;-7.97;7.9375;-0.125;-0.125
193104;-0.91;-4.82;-7.92;7.4375;-0.0625;-0.1875
193104;-0.86;-4.89;-7.91;-0.5;1.1875;-0.0625
193104;-0.84;-4.88;-7.87;-1.25;1.25;0.0
193104;-0.85;-4.89;-7.93;-3.5;1.1875;0.0625
193105;-0.88;-4.95;-8.16;6.875;1.625;-0.9375
193105;-0.88;-5.03;-8.18;8.3125;2.1875;-1.4375
193105;-0.96;-4.96;-8.26;10.5625;3.6875;-2.375
193105;-0.97;-5.0;-8.08;12.125;4.8125;-2.75
193105;-0.71;-5.09;-7.98;-3.75;1.125;-1.5625
193105;-0.67;-5.08;-8.07;-4.0625;1.5625;-1.625
193105;-0.67;-5.12;-8.25;-2.125;1.9375;-1.75
193105;-0.67;-5.12;-7.77;7.5;1.75;-2.4375
193105;-0.57;-5.12;-7.65;5.625;1.8125;-2.4375
193105;-0.57;-5.17;-7.64;4.0;1.6875;-2.25
193105;-0.59;-5.13;-7.76;-0.0625;0.75;-1.5
193105;-0.56;-5.09;-8.05;-1.625;-0.0625;0.875
193105;-0.52;-5.1;-8.01;-1.1875;-0.1875;1.125
193105;-0.57;-5.11;-7.99;-0.3125;-1.5;1.75
193105;-0.76;-5.0;-7.98;-6.875;-1.25;0.5
193105;-0.74;-4.97;-8.01;-6.4375;-0.5;0.1875
193105;-0.7;-4.94;-8.0;-5.9375;-0.0625;0.0625
193105;-0.6;-4.99;-8.04;-4.375;0.375;0.3125
193105;-0.67;-4.89;-7.97;-4.5625;-2.625;1.375
193105;-0.7;-4.88;-7.96;-4.6875;-2.6875;1.4375
193105;-0.71;-4.86;-7.96;-5.375;-2.625;1.375
193106;-0.7;-4.77;-8.05;-3.9375;-1.25;1.625
193106;-0.72;-4.77;-8.11;-4.0;-1.125;1.5625
193106;-0.74;-4.76;-8.08;-4.125;-1.375;1.625
193106;-0.74;-4.74;-8.11;-4.6875;-1.4375;1.375
193106;-0.79;-4.69;-8.17;-1.0625;0.25;0.625
193106;-0.77;-4.67;-8.17;-1.125;0.3125;0.75
193106;-0.77;-4.7;-8.22;-0.6875;0.3125;0.6875
193106;-0.75;-4.69;-8.16;-0.3125;0.375;0.625
193106;-0.74;-4.65;-8.14;-0.625;-0.0625;0.5625
193106;-0.76;-4.66;-8.15;-0.75;-0.125;0.5625
193106;-0.75;-4.68;-8.15;-1.1875;-0.0625;0.625
193106;-0.86;-4.88;-8.23;-1.125;-0.3125;0.625
193106;-0.84;-4.9;-8.26;-1.3125;-0.25;0.625
193106;-0.83;-4.89;-8.27;-1.5625;-0.25;0.6875
193106;-0.84;-4.86;-8.29;-1.5;-0.1875;0.5625
193106;-0.84;-4.9;-8.25;1.0625;0.0;0.375
193106;-0.8;-4.9;-8.26;0.5625;-0.25;0.375
193106;-0.84;-4.91;-8.27;0.75;-0.25;0.375
193106;-0.83;-4.86;-8.26;-1.0625;-0.1875;0.75
193106;-0.86;-4.88;-8.25;-1.0;-0.25;0.75
193107;-0.86;-4.85;-8.32;-1.125;-0.375;0.6875
193107;-0.86;-4.85;-8.28;-0.5625;-0.25;0.5
193107;-0.84;-4.85;-8.31;0.375;-0.25;0.375
193107;-0.82;-4.9;-8.26;0.8125;-0.5625;0.25
193107;-0.84;-4.89;-8.29;0.8125;-0.5625;0.4375
193107;-0.84;-4.91;-8.27;0.8125;-0.3125;0.5625
193107;-0.85;-4.91;-8.26;1.0625;-0.375;0.5
193107;-0.85;-4.88;-8.28;1.0;-0.75;0.5625
193107;-0.87;-4.89;-8.25;1.0;-0.625;0.3125
193107;-0.84;-4.91;-8.32;0.1875;-0.8125;0.5
193107;-0.85;-4.89;-8.25;0.625;-0.75;0.5625
193107;-0.86;-4.91;-8.23;0.5625;-0.1875;0.4375
193107;-0.87;-4.9;-8.3;0.4375;0.0;0.3125
193107;-0.9;-4.93;-8.26;1.125;-0.125;0.25
193107;-0.89;-4.92;-8.24;1.25;-0.1875;0.25
193107;-0.89;-4.9;-8.23;1.5;-0.0625;0.125
193107;-0.87;-4.95;-8.28;1.4375;-1.25;0.5
193107;-0.9;-4.94;-8.24;1.5;-1.125;0.5
193107;-0.89;-4.95;-8.24;1.625;-1.0625;0.5625
193107;-0.91;-4.95;-8.24;1.625;-0.875;0.4375
193108;-0.92;-4.97;-8.25;-0.3125;-0.1875;0.3125
193108;-0.91;-4.93;-8.25;-0.25;-0.375;0.3125
193108;-0.88;-4.93;-8.26;0.125;-0.375;0.1875
193108;-0.89;-4.95;-8.26;0.1875;-0.5;0.4375
193108;-0.91;-4.96;-8.22;-0.6875;0.125;0.3125
193108;-0.93;-4.97;-8.25;-1.5625;-0.0625;0.4375
193108;-0.89;-4.94;-8.31;-1.6875;-0.1875;0.5
193108;-0.91;-4.91;-8.22;-0.1875;0.125;0.4375
193108;-0.92;-4.89;-8.22;-0.3125;0.0625;0.3125
193108;-0.9;-4.89;-8.21;-1.1875;0.0625;0.3125
193108;-0.91;-4.91;-8.26;-1.25;0.0625;0.375
193108;-0.92;-4.88;-8.19;0.1875;-0.1875;0.4375
193108;-0.91;-4.89;-8.19;-0.25;-0.25;0.5
193108;-0.91;-4.88;-8.23;-0.3125;-0.25;0.5625
193108;-0.91;-4.92;-8.24;-0.125;0.25;0.375
193108;-0.91;-4.9;-8.23;-0.125;0.25;0.375
193108;-0.9;-4.89;-8.2;-0.3125;0.0;0.3125
193108;-0.89;-4.88;-8.27;-0.5;0.1875;0.4375
193108;-0.9;-4.88;-8.22;-0.375;-0.1875;0.5625
193108;-0.9;-4.88;-8.27;-0.5;-0.375;0.5
193109;-0.91;-4.88;-8.27;-0.6875;-0.375;0.5625
193109;-0.9;-4.85;-8.27;0.625;0.125;0.5
193109;-0.9;-4.84;-8.28;1.4375;0.3125;0.375
193109;-0.91;-4.88;-8.26;1.6875;0.5;0.3125
193109;-0.87;-4.87;-8.26;1.5625;0.5625;0.3125
193109;-0.88;-4.93;-8.27;-0.25;-0.1875;0.625
193109;-0.89;-4.89;-8.25;-1.0;-0.1875;0.5625
193109;-0.88;-4.89;-8.3;-1.3125;-0.375;0.5625
193109;-0.88;-4.86;-8.34;-1.125;-0.75;0.75
193109;-0.93;-4.9;-8.25;0.0;-0.875;0.5
193109;-0.93;-4.88;-8.24;0.0625;-0.6875;0.4375
193109;-0.91;-4.86;-8.23;0.0;-0.6875;0.5
193109;-0.91;-4.87;-8.28;-0.8125;-0.5;0.3125
193109;-0.92;-4.89;-8.27;-0.6875;-0.5625;0.375
193109;-0.89;-4.87;-8.29;-0.4375;-0.6875;0.375
193109;-0.91;-4.84;-8.26;-0.0625;-1.0625;0.6875
193109;-0.93;-4.91;-8.34;2.5;-1.0625;0.5
193109;-0.94;-4.88;-8.27;2.5;-1.0625;0.5
193109;-0.93;-4.89;-8.23;2.9375;-1.0625;0.6875
193109;-0.97;-4.93;-8.2;0.4375;-0.4375;0.375
193109;-0.94;-4.94;-8.18;0.25;-0.3125;0.375
193110;-0.96;-4.92;-8.23;0.25;-0.3125;0.375
193110;-0.96;-4.9;-8.26;0.0;-0.25;0.3125
193110;-0.97;-4.92;-8.3;0.8125;-0.4375;0.4375
193110;-0.95;-4.93;-8.25;0.8125;-0.625;0.5
193110;-0.95;-4.93;-8.27;0.4375;-0.625;0.5625
193110;-0.95;-4.93;-8.23;0.5;-0.625;0.75
193110;-0.97;-4.93;-8.32;-1.1875;0.0;0.4375
193110;-0.95;-4.92;-8.33;-1.3125;0.1875;0.3125
193110;-0.98;-4.91;-8.33;-1.0;0.25;0.125
193110;-0.94;-4.92;-8.22;0.125;-0.125;0.5
193110;-0.94;-4.92;-8.23;0.25;-0.25;0.5
193110;-0.97;-4.91;-8.23;0.125;0.0;0.4375
193110;-0.96;-4.93;-8.3;-0.125;-0.1875;0.25
193110;-0.96;-4.88;-8.27;-1.125;0.0;0.375
193110;-0.95;-4.89;-8.25;-1.0;0.125;0.4375
193110;-0.98;-4.87;-8.25;-0.5625;0.0625;0.3125
193110;-0.95;-4.88;-8.24;-0.375;0.1875;0.25
193110;-0.93;-4.87;-8.23;0.25;0.1875;0.25
193110;-0.95;-4.88;-8.28;0.3125;0.1875;0.375
193110;-0.92;-4.91;-8.26;0.4375;0.1875;0.375
193111;-0.97;-4.87;-8.25;-0.5625;-0.4375;0.5625
193111;-0.95;-4.88;-8.28;-0.4375;-0.5;0.5625
193111;-0.96;-4.88;-8.28;-0.5625;0.0;0.5625
193111;-0.94;-4.9;-8.28;-0.5;0.0;0.4375
193111;-0.95;-4.88;-8.28;0.125;-0.125;0.3125
193111;-0.96;-4.87;-8.29;0.125;-0.125;0.375
193111;-0.92;-4.89;-8.28;0.1875;0.0;0.375
193111;-0.96;-4.88;-8.26;0.5625;-0.5625;0.5625
193111;-0.96;-4.88;-8.25;0.4375;-0.125;0.4375
193111;-0.93;-4.87;-8.25;0.5;-0.3125;0.375
193111;-0.94;-4.89;-8.21;0.375;-0.4375;0.5625
193111;-0.96;-4.9;-8.24;0.9375;-0.75;0.375
193111;-0.98;-4.89;-8.23;0.625;-0.5;0.375
193111;-0.96;-4.9;-8.25;0.3125;-0.375;0.375
193111;-0.95;-4.89;-8.21;0.4375;-0.375;0.3125
193111;-0.98;-4.91;-8.24;0.75;-0.0625;0.375
193111;-0.98;-4.92;-8.26;0.5;-0.25;0.375
193111;-0.96;-4.91;-8.24;0.375;-0.5;0.5625
193111;-0.93;-4.9;-8.2;0.1875;0.0;0.1875
193111;-0.97;-4.91;-8.28;-0.5;0.0;0.125
193111;-0.97;-4.92;-8.27;-0.5625;0.0625;0.3125
193112;-0.96;-4.91;-8.24;-0.5625;-0.25;0.3125
193112;-0.98;-4.91;-8.29;-0.25;0.1875;0.1875
193112;-0.96;-4.89;-8.22;-0.25;0.3125;0.125
193112;-0.98;-4.88;-8.21;-0.625;0.125;0.1875
193112;-0.95;-4.9;-8.22;-0.75;0.25;0.1875
193112;-0.98;-4.89;-8.29;-1.125;0.4375;0.1875
193112;-0.99;-4.88;-8.27;-1.0;0.375;0.125
193112;-0.98;-4.86;-8.25;-0.5625;0.3125;0.1875
193112;-0.97;-4.89;-8.25;-0.5625;0.25;0.125
193112;-0.96;-4.86;-8.27;-0.5;0.5;0.125
193112;-0.96;-4.88;-8.22;0.1875;0.3125;0.0625
193112;-0.96;-4.9;-8.29;0.0;0.5625;0.0625
193112;-0.95;-4.87;-8.27;-0.5;0.8125;0.0625
193112;-0.96;-4.87;-8.28;-0.1875;0.25;0.0
193112;-0.97;-4.83;-8.26;0.0;0.3125;0.125
193112;-0.96;-4.86;-8.25;0.0;0.5;0.0
193112;-0.96;-4.86;-8.3;-0.1875;0.1875;0.1875
193112;-0.95;-4.89;-8.3;-0.3125;0.4375;0.3125
193112;-0.96;-4.87;-8.29;-0.3125;0.3125;0.125
193112;-0.97;-4.89;-8.27;1.0625;0.5;0.0
193113;-0.98;-4.88;-8.27;1.125;0.6875;-0.1875
193113;-0.96;-4.88;-8.25;0.875;0.8125;-0.375
193113;-0.95;-4.92;-8.27;0.75;1.0625;-0.4375
193113;-0.92;-4.89;-8.26;-0.1875;0.375;0.3125
193113;-0.91;-4.92;-8.3;-0.4375;0.125;0.25
193113;-0.93;-4.89;-8.27;-0.625;0.25;0.375
193113;-0.93;-4.91;-8.28;-1.0;-0.1875;0.4375
193113;-0.97;-4.86;-8.3;-2.5625;-0.125;0.375
193113;-0.98;-4.84;-8.29;-2.5;-0.1875;0.5625
193113;-0.96;-4.85;-8.32;-2.25;-0.1875;0.4375
193113;-0.92;-4.86;-8.27;0.875;0.875;-0.1875
193113;-0.92;-4.86;-8.31;1.0;0.5625;-0.1875
193113;-0.91;-4.87;-8.34;1.25;0.4375;-0.1875
193113;-0.91;-4.85;-8.29;1.625;0.5625;-0.125
193113;-0.93;-4.89;-8.26;0.4375;0.0625;0.1875
