timestamp;acc_x;acc_y;acc_z;gyro_x;gyro_y;gyro_z
193151;9.07;-2.41;-0.52;-18.1875;-6.375;-1.75
193151;10.92;-2.31;-0.81;-53.375;16.875;-22.5
193151;12.31;-4.02;-2.5;-41.75;12.375;-16.4375
193151;13.6;-5.1;-3.16;-32.625;7.75;-10.3125
193151;9.28;-1.75;-3.83;-32.125;-12.5;-14.8125
193151;9.34;-1.59;-3.87;-31.8125;-11.0;-12.5
193151;8.9;-1.01;-3.42;-34.875;-1.625;-6.8125
193151;9.76;-1.5;-2.07;18.0625;7.5625;-10.8125
193151;9.45;-1.18;-2.03;20.0;9.0;-13.5
193151;8.98;-0.55;-1.86;21.1875;8.6875;-15.375
193151;8.59;-0.09;-1.92;18.25;4.5;-14.4375
193151;9.58;-0.95;-1.75;17.625;-7.9375;-2.4375
193151;9.75;-0.78;-1.72;17.25;-6.0625;-3.25
193151;9.79;-0.69;-1.58;16.0;-5.3125;-2.9375
193151;9.35;-1.15;-0.88;2125.0;-1.8125;4.9375
193151;9.4;-1.03;-0.81;22.3125;-0.5;5.5
193151;9.44;-1.0;-0.8;22.3125;-0.5625;5.5625
193151;9.49;-0.89;-0.84;22.1875;-1.1875;5.875
193152;10.7;-1.83;-0.69;27.8125;12.3125;-1.25
193152;10.62;-1.05;-1.94;36.6875;10.6875;-5.3125
193152;10.82;-0.8;-2.4;36.75;9.375;-6.875
193152;8.22;-3.92;-2.08;65.4375;2.375;3.625
193152;9.94;-2.08;-1.36;62.75;-3.0;9.9375
193152;11.2;-0.61;-1.26;49.5;-4.375;6.375
193152;11.68;-0.24;-1.74;12.6875;-8.4375;-4.3125
193152;7.3;-1.83;-0.88;3.5;-10.625;16.875
193152;8.6;-1.96;-1.2;-3.9375;-20.0;16.4375
193152;8.93;-1.91;-1.15;-6.0;-22.9375;16.9375
193152;8.87;-2.2;-0.32;-12.0;-9.0;7.375
193152;8.81;-2.11;-0.15;-13.5;-7.875;3.6875
193152;8.96;-1.8;0.33;-15.6875;-7.125;2.375
193152;9.05;-1.55;0.42;-24.1875;-6.0625;0.0
193152;10.08;-3.86;-0.06;-36.375;20.125;-0.1875
193152;9.7;-4.41;0.36;-28.5;27.4375;3.9375
193152;9.56;-4.38;0.32;-21.6875;27.875;4.9375
193152;7.37;-0.12;-0.26;-0.75;5.0625;1.0
193152;6.72;0.65;-2.61;-15.4375;-6.1875;-4.3125
193153;6.99;0.5;-3.6;-24.875;-10.5625;-6.75
193153;9.23;-0.94;-3.85;-33.6875;-16.5;-7.9375
193153;9.44;-0.34;-2.71;24.6875;6.375;-11.625
193153;8.81;-0.09;-2.48;28.125;4.1875;-11.4375
193153;8.68;-0.28;-2.34;29.75;4.5625;-12.1875
193153;8.54;-0.7;-1.5;21.25;-6.125;-3.4375
193153;8.65;-0.74;-1.37;16.25;-8.8125;-4.0
193153;8.72;-0.85;-1.4;13.6875;-9.75;-4.6875
193153;8.89;-1.15;-1.56;9.25;-11.4375;-5.1875
193153;9.71;-1.42;-0.49;26.375;-9.6875;7.375
193153;9.66;-0.65;-0.56;22.75;-5.0;6.5625
193153;9.82;-0.54;-0.36;19.0;-1.625;6.25
193153;10.57;-2.43;-5.03;-2.75;12.875;-7.0
193153;10.27;-3.1;-4.3;6.375;21.0;-10.9375
193153;8.4;-4.76;-2.47;16.3125;28.75;-13.125
193153;7.89;-4.81;-2.21;34.25;29.0625;-13.5625
193153;8.12;-3.03;-1.41;3.125;19.125;4.875
193153;7.05;-2.49;-1.11;8.625;11.25;5.9375
193153;7.01;-2.26;-1.06;8.6875;5.25;6.0625
193153;7.63;-2.03;-0.94;4.25;-5.6875;7.625
193153;8.97;-1.37;-0.37;-8.625;-11.3125;-2.4375
193154;8.97;-1.37;-0.32;-10.9375;-10.9375;-2.4375
193154;8.82;-1.21;-0.15;-16.0;-9.1875;-1.9375
193154;10.91;-1.83;1.24;-17.1875;18.75;-8.8125
193154;10.12;-1.7;-0.4;-16.0625;18.8125;-6.8125
193154;10.33;-2.14;-1.57;-15.875;15.3125;-5.875
193154;9.82;-1.21;-3.16;-22.9375;-15.125;12.0
193154;10.06;-0.87;-3.27;-28.75;-9.5;8.3125
193154;9.87;-0.29;-3.52;-31.25;-2.6875;7.3125
193154;9.35;-0.04;-3.54;-34.125;3.6875;6.875
193154;9.12;0.36;-1.58;4.8125;5.375;-7.6875
193154;8.03;0.81;-1.9;-0.1875;1.875;-7.0625
193154;7.84;0.46;-1.82;-0.375;-1.5;-5.8125
193154;7.8;-0.97;-1.7;-1.0625;-8.0625;-2.125
193154;9.28;-1.48;-0.7;13.4375;-7.25;5.375
193154;9.32;-1.47;-0.63;14.375;-5.9375;6.125
193154;9.38;-1.53;-0.53;17.25;-4.5625;7.125
193154;10.72;-0.81;0.24;13.875;16.8125;-0.75
193154;10.71;-0.93;0.08;20.0;17.875;-6.25
193154;10.72;-1.1;-0.18;24.125;16.6875;-8.3125
193154;11.43;-1.29;-0.89;31.6875;11.25;-10.125
193155;8.13;-2.95;-0.62;49.6875;12.9375;-6.8125
193155;8.58;-2.01;-0.38;44.5625;7.9375;-6.8125
193155;9.11;-1.22;-0.35;21.25;-6.5;-5.6875
193155;6.9;-2.53;-0.74;-3.9375;-1.0;6.4375
193155;7.55;-1.81;-0.8;-11.0;-12.375;9.5
193155;7.8;-1.74;-0.81;-14.9375;-15.75;11.125
193155;8.58;-1.98;-0.67;-20.5;-15.875;13.5
193155;9.31;-1.37;0.42;-34.6875;-9.1875;-5.4375
193155;9.37;-1.39;0.29;-37.3125;-7.3125;-8.125
193155;9.4;-1.53;0.22;-39.5;-5.75;-10.75
193155;10.05;-3.18;-1.67;-30.9375;24.6875;-0.8125
193155;11.94;-4.3;-2.28;-17.625;2.8125;8.75
193155;12.67;-3.83;-1.97;-16.1875;-1.5;11.8125
193155;9.99;-1.69;-4.63;-47.125;-18.375;7.6875
193155;10.03;-2.79;-2.67;-23.5625;-12.0625;7.5
193155;9.71;-2.89;-2.37;-10.6875;-7.125;6.75
193155;9.1;-3.26;-1.44;9.625;-5.1875;3.4375
193155;8.03;-0.85;-1.73;5.25;-13.5625;-3.3125
193155;8.98;-0.84;-1.54;4.3125;-14.625;-0.6875
193156;9.35;-0.74;-1.51;2.1875;-13.1875;0.375
193156;9.1;-1.15;-0.59;13.5;-8.5;7.6875
193156;9.34;-0.5;-0.67;12.125;-5.25;8.1875
193156;9.43;-0.28;-0.8;11.375;-4.375;8.625
193156;9.84;0.0;-0.9;9.4375;-5.1875;10.0625
193156;10.94;0.69;-1.7;32.625;6.875;-16.4375
193156;12.54;0.41;-3.03;9.6875;-5.5;-13.625
193156;13.03;0.0;-3.84;2.625;-2.25;-10.5
193156;11.53;0.81;-0.66;7.5;-12.1875;0.1875
193156;12.11;1.03;-0.84;-21.5;-7.5625;1.3125
193156;11.75;0.0;-1.67;-33.125;1.5;1.375
193156;10.67;-1.42;-2.47;-40.75;20.875;1.75
193156;8.72;-1.9;-0.22;-17.5;-9.375;10.8125
193156;9.01;-1.88;-0.16;-20.5;-4.4375;5.8125
193156;9.12;-1.68;-0.12;-21.6875;-2.0;3.625
193156;10.11;-2.44;-0.01;-29.3125;-2.125;-16.8125
193156;10.73;-2.34;1.41;-31.4375;8.875;-17.875
193156;11.1;-2.02;1.84;-37.4375;15.5625;-16.375
193156;12.02;-0.92;1.81;-46.625;24.75;-11.3125
193156;10.02;-2.19;-1.93;6.3125;2.5625;11.625
193157;9.54;-1.22;-2.36;-12.875;-5.8125;13.6875
193157;8.74;-0.53;-3.41;-22.1875;-8.625;14.1875
193157;8.81;-2.57;-1.55;26.0625;-5.3125;-11.875
193157;8.69;-2.07;-1.66;28.25;-5.75;-16.5
193157;8.66;-0.81;-1.66;27.0625;-8.1875;-15.6875
193157;8.44;0.23;-1.51;26.75;-9.375;-12.0625
193157;9.34;-1.25;-1.14;9.0625;-9.125;1.5625
193157;9.05;-1.17;-1.0;12.6875;-8.1875;4.3125
193157;8.86;-0.87;-0.92;13.6875;-8.0625;6.4375
193157;10.52;-0.53;-0.46;23.1875;-2.875;13.875
193157;10.97;-0.56;0.22;20.3125;6.5625;14.4375
193157;11.11;-0.63;0.56;20.25;13.1875;11.75
193157;10.97;-0.76;0.47;27.3125;21.375;0.0
193157;10.13;-3.41;-4.07;9.1875;4.1875;-17.0
193157;8.78;-5.0;-3.12;36.0;23.0625;-11.3125
193157;8.27;-5.29;-1.95;49.125;24.25;-6.75
193157;7.61;-2.54;-1.87;-16.125;4.9375;10.75
193157;6.78;-2.6;-1.83;-9.5625;3.25;12.125
193157;6.47;-2.39;-1.47;-8.0625;-1.5625;13.375
193157;6.86;-2.22;-1.0;-9.25;-9.8125;14.9375
193158;8.9;-1.01;0.69;-32.875;0.625;-11.875
193158;9.04;-0.33;0.64;-33.125;-2.625;-14.5
193158;9.22;-0.16;0.02;-33.25;-2.1875;-17.0
193158;11.48;-5.43;-3.12;-29.5625;-1.75;-5.3125
193158;12.37;-5.8;-2.89;-4.5;-17.5;4.4375
193158;14.14;-3.76;-2.44;-5.125;-11.625;5.8125
193158;14.58;-2.8;-2.52;-0.5625;10.0625;2.375
193158;11.1;-3.95;-2.1;30.5;-17.4375;12.5
193158;10.65;-3.18;-1.87;46.3125;-3.6875;1.0625
193158;9.95;-2.44;-1.33;48.0;-2.0625;-8.0
193158;9.16;-1.0;-0.88;13.125;-0.9375;4.625
193158;8.99;-0.85;-1.1;12.9375;1.9375;6.25
193158;8.68;-0.63;-1.3;13.3125;1.6875;6.1875
193158;8.58;-0.88;-1.46;14.25;0.0625;4.9375
193158;9.05;-0.21;-0.38;16.375;-6.5;8.125
193158;9.09;-0.18;-0.29;16.25;-9.125;9.6875
193158;9.05;-0.43;-0.14;16.75;-10.625;10.75
193158;11.19;-1.56;-0.15;6.125;5.5625;6.0625
193158;11.4;-2.06;-0.56;12.0625;8.0;5.25
193158;11.88;-2.32;-4.5;25.75;1.125;2.75
193159;12.3;-2.44;-4.9;18.875;-7.3125;0.6875
193159;11.7;-0.41;-2.26;10.3125;-22.875;30.625
193159;13.17;-2.08;-2.77;-32.5;-0.0625;22.5625
193159;12.51;-3.0;-2.51;-43.625;11.75;15.3125
193159;9.98;-2.1;-1.41;-11.3125;2.4375;18.0
193159;9.51;-2.27;-1.46;-14.125;10.5;13.0625
193159;9.12;-2.41;-0.94;-14.875;13.4375;11.0
193159;8.98;-2.44;-0.83;-15.6875;20.375;8.375
193159;9.41;-1.9;0.0;-20.6875;20.625;-4.4375
193159;9.38;-1.26;0.21;-25.0625;20.4375;-9.0
193159;9.35;-1.06;0.06;-28.5;19.375;-13.0
193159;5.71;-1.93;-4.63;-27.5;-25.625;22.875
193159;6.07;-2.95;-5.33;-40.75;-14.8125;37.0
193159;7.92;-3.46;-5.67;-49.5;-1.875;42.375
193159;11.2;-4.44;-6.65;-41.25;37.9375;43.75
193159;11.31;-1.75;-1.71;-0.375;13.375;28.6875
193159;11.84;-2.13;-2.36;-7.1875;23.125;14.25
193159;11.27;-2.65;-1.24;-4.75;26.6875;10.5
193159;9.35;-1.0;-1.25;8.0;53.125;7.3125
193159;9.67;-0.85;-1.21;8.75;55.375;17.75
193200;9.88;-0.55;-1.55;7.8125;57.0;22.6875
193200;6.01;-1.54;0.55;4.75;70.9375;35.4375
193200;6.21;-1.8;1.09;12.9375;69.5;40.1875
193200;6.84;-2.42;1.11;34.375;74.875;35.4375
193200;7.49;-2.51;0.98;42.1875;76.875;24.25
193200;7.22;-1.76;1.96;84.125;103.625;39.5625
193200;7.63;-1.79;2.58;89.625;109.4375;43.75
193200;7.4;-1.21;3.17;81.25;131.875;42.4375
193200;6.61;-1.14;3.07;68.9375;140.8125;44.5625
193200;12.27;-1.32;8.26;78.0625;178.5625;-20.0
193200;1.33;-3.04;13.63;32.25;183.5625;27.6875
193200;1.69;-8.81;14.73;-12.375;168.6875;33.625
193200;1.89;-5.38;6.86;60.0625;54.375;-3.3125
193200;1.22;-5.55;8.23;36.9375;65.5625;-34.75
193200;-4.46;-1.61;7.89;35.4375;66.625;-36.875
193200;-3.53;-0.23;12.53;48.8125;-30.6875;2.8125
193200;-2.55;0.1;12.56;40.0;-27.5625;-3.6875
193200;0.31;0.8;11.63;31.375;-16.125;-9.875
193200;0.54;1.71;10.87;23.75;-8.125;-8.875
193200;-0.38;0.64;10.07;-5.375;8.9375;-3.625
193201;-0.3;0.9;9.99;-6.625;7.25;-4.0625
193201;0.25;0.09;9.42;-10.5;6.6875;-2.4375
193201;0.27;-0.46;9.43;-9.375;4.9375;0.8125
193201;0.64;-0.68;9.99;-4.4375;-5.1875;8.4375
193201;0.9;-0.82;9.82;-6.6875;-3.8125;10.125
193201;0.9;-1.05;9.73;-6.0;-3.375;10.4375
193201;0.15;0.57;10.22;7.125;-4.875;7.9375
193201;0.22;0.62;10.17;1.625;-3.0625;8.375
193201;0.54;-0.31;9.85;0.8125;-1.0;7.9375
193201;0.78;-0.74;9.78;4.5625;3.125;5.9375
193201;0.26;-0.06;9.97;3.6875;-3.625;-2.375
193201;0.44;0.08;9.81;3.625;-4.5625;-2.0
193201;0.42;0.08;9.86;4.1875;-5.25;-1.5
193201;-0.07;-0.15;9.89;2.8125;-8.875;0.75
193201;0.83;-0.69;9.72;1.3125;-11.75;-4.25
193201;0.64;-0.45;9.83;1.6875;-10.8125;-3.875
193201;0.69;-0.4;10.11;1.1875;-7.875;-2.4375
193201;0.86;-0.36;9.91;1.5;-7.75;-1.5
193201;1.02;0.16;9.83;-2.6875;-8.8125;-3.0
193201;1.06;0.13;9.72;-3.3125;-9.0625;-3.1875
193201;1.28;-0.14;9.8;-5.9375;-6.75;-4.5
193202;1.23;-0.56;9.7;-2.25;-6.5625;-1.0
193202;1.03;-0.4;9.65;-0.9375;-6.5;-0.4375
193202;0.92;-0.36;9.84;2.0625;-7.25;0.5
193202;1.15;-0.07;9.07;3.1875;-5.0625;-0.3125
193202;1.02;-0.26;10.12;0.0625;-1.5625;-0.375
193202;0.96;-0.37;9.95;-0.75;-2.25;-0.0625
193202;1.04;-0.37;9.6;0.5;-3.0625;0.0
193202;1.14;-0.24;9.66;1.4375;-2.9375;-0.6875
193202;1.4;-0.29;9.83;2.625;-2.3125;-1.9375
193202;1.49;-0.17;9.78;2.375;-2.3125;-2.0625
193202;1.43;-0.16;9.79;0.9375;-2.3125;-2.5
193202;1.63;-0.1;9.87;2.625;4.1875;-3.5
193202;1.75;-0.06;9.72;2.25;5.625;-3.5
193202;1.86;0.11;9.81;2.6875;8.125;-3.0625
193202;1.78;0.09;9.81;1.625;8.75;-2.625
193202;1.06;-0.02;9.84;0.3125;8.0;0.125
193202;0.89;-0.14;9.77;0.9375;7.4375;0.5625
193202;0.85;-0.19;9.7;0.875;7.625;0.75
193202;0.73;-0.19;9.92;-0.125;7.25;0.9375
193202;0.57;-0.26;9.63;4.0625;-1.625;5.5625
193202;0.7;-0.06;9.79;6.0625;-2.8125;5.5
193203;0.88;-0.01;9.83;5.6875;-1.75;4.8125
193203;1.3;0.31;10.07;5.125;1.0;3.5
193203;0.81;-0.06;9.79;-2.625;3.875;-1.625
193203;0.84;-0.02;9.81;-2.25;3.9375;-1.3125
193203;0.76;0.11;9.89;-2.625;3.125;-1.0
193203;0.7;0.08;9.91;-2.9375;2.6875;-1.0625
193203;1.14;-0.05;9.88;-6.1875;0.9375;3.625
193203;1.17;-0.05;9.77;-6.75;1.25;3.4375
193203;1.2;-0.1;9.85;-3.8125;2.0625;3.6875
193203;1.16;-0.06;9.92;-4.0625;2.375;3.8125
193203;0.72;-0.29;9.94;3.375;-1.1875;-2.625
193203;0.73;-0.21;9.93;3.125;-1.1875;-2.4375
193203;0.79;-0.15;9.92;3.0625;-1.25;-2.3125
193203;1.22;0.06;9.87;1.0;1.0625;1.75
193203;1.22;0.1;10.0;0.125;0.5;2.625
193203;1.46;-0.2;9.41;-5.625;3.25;3.6875
193203;1.15;-0.28;8.83;-7.0625;9.4375;3.875
193203;0.55;-0.27;9.86;-1.875;4.125;-1.75
193203;0.82;-0.15;10.08;0.9375;0.8125;-1.1875
193203;0.94;-0.06;9.96;-0.3125;1.25;-0.5
193203;0.93;-0.09;9.85;-1.25;1.4375;-0.125
193204;0.82;-0.06;9.97;-1.25;0.5;1.8125
193204;0.82;-0.11;9.86;-1.625;0.8125;1.6875
193204;0.75;-0.06;9.9;-1.25;0.75;1.625
193204;0.76;-0.17;9.78;-1.0625;1.375;1.0625
193204;0.84;-0.17;9.88;-0.4375;1.0;0.0
193204;0.82;-0.22;9.91;-0.625;1.0;0.0625
193204;0.82;-0.26;9.86;-0.625;0.5625;0.0
193204;0.81;-0.23;9.84;-0.375;0.5;-0.1875
193204;0.75;-0.07;9.92;0.0625;1.6875;-0.0625
193204;0.69;-0.12;9.97;0.0625;1.625;-0.25
193204;0.67;-0.1;9.96;0.0;1.375;-0.4375
193204;0.74;-0.18;9.86;-0.125;0.8125;-0.75
193204;0.8;-0.13;9.84;-0.125;-0.8125;-0.3125
193204;0.81;-0.13;9.8;-0.25;0.1875;-0.6875
193204;0.86;-0.02;9.87;-0.1875;0.125;-1.1875
193204;0.81;-0.2;9.89;-0.75;0.125;-0.125
193204;0.8;-0.17;9.93;-1.0;0.125;-0.3125
193204;0.79;-0.17;9.94;-1.25;0.0;-0.5625
193204;0.77;-0.2;9.86;-1.1875;-0.0625;-0.6875
193204;0.78;-0.11;9.8;-0.625;-0.25;0.25
193204;0.8;-0.07;9.8;-1.0;-0.5;0.25
193205;0.86;-0.15;9.76;-0.5;-0.4375;0.3125
193205;0.82;-0.15;9.78;-0.375;0.5;0.25
193205;0.82;-0.17;9.85;-0.0625;-0.625;0.0625
193205;0.87;-0.12;9.81;-0.1875;-0.5625;0.0
193205;0.88;-0.1;9.81;0.0;-0.3125;0.3125
193205;0.87;-0.1;9.79;-0.25;-0.75;0.5625
193205;0.84;-0.08;9.91;1.25;-0.1875;-0.625
193205;0.89;-0.09;9.85;1.1875;-0.75;-0.4375
193205;0.89;-0.05;9.79;0.875;-0.1875;-0.25
193205;0.86;0.0;9.79;-0.8125;0.25;0.125
193205;0.86;0.03;9.83;-1.25;0.5625;0.5625
193205;0.9;0.05;9.84;-1.125;0.1875;0.6875
193205;0.91;0.0;9.88;-1.0625;-0.0625;0.75
193205;0.87;-0.24;9.76;-1.5625;1.625;0.125
193205;0.88;-0.09;9.91;-1.4375;1.5625;0.0625
193205;0.89;-0.05;9.9;-0.75;1.0;0.3125
193205;0.85;-0.14;9.75;-0.5625;1.0;0.25
193205;0.8;-0.2;9.81;-0.125;-0.0625;0.4375
193205;0.82;-0.16;9.8;-0.125;0.1875;0.4375
193205;0.82;-0.12;9.84;0.1875;0.1875;0.4375
193205;0.83;-0.12;9.82;0.1875;0.4375;0.375
193205;0.84;-0.12;9.89;0.375;0.5;-0.4375
193206;0.83;-0.16;9.91;0.0625;0.0;-0.375
193206;0.85;-0.16;9.84;0.0;-0.25;-0.25
193206;0.85;-0.1;9.76;-0.0625;-0.25;-0.4375
193206;0.84;-0.14;9.8;-1.125;0.9375;0.1875
193206;0.8;-0.15;9.87;-1.3125;0.8125;0.3125
193206;0.82;-0.17;9.84;-1.4375;0.6875;0.375
193206;0.81;-0.16;9.81;-1.1875;0.6875;0.625
193206;0.87;-0.12;9.84;-0.8125;0.875;0.125
193206;0.83;-0.18;9.81;-0.9375;1.0;0.0
193206;0.82;-0.21;9.8;-0.8125;1.4375;0.0625
193206;0.75;-0.2;9.89;-0.625;1.0625;-0.125
193206;0.85;-0.19;9.84;-0.1875;-0.25;0.1875
193206;0.87;-0.17;9.83;-0.1875;-0.3125;0.125
193206;0.78;-0.18;9.78;0.125;0.125;0.0
193206;0.82;-0.14;9.85;-0.3125;-0.1875;0.1875
193206;0.82;-0.1;9.81;-0.4375;0.0625;0.0625
193206;0.8;-0.11;9.82;-0.1875;0.0;0.3125
193206;0.77;-0.16;9.88;0.0;-0.375;0.375
193206;0.86;-0.24;9.86;0.3125;-1.0625;0.0625
193206;0.84;-0.2;9.85;0.4375;-1.4375;0.0625
193206;0.85;-0.13;9.79;0.5;-1.8125;0.125
193207;0.83;-0.15;9.79;0.5;-1.5;0.375
193207;0.88;-0.15;9.77;-0.625;-0.1875;0.1875
193207;0.87;-0.17;9.77;-0.75;0.0625;0.3125
193207;0.83;-0.17;9.75;-1.0;0.0625;0.4375
193207;0.83;-0.16;9.8;-0.4375;-0.0625;0.4375
193207;0.9;-0.12;9.83;-0.4375;-0.4375;0.0625
193207;0.85;-0.18;9.85;-0.3125;-0.75;0.125
193207;0.85;-0.16;9.83;-0.6875;-0.8125;-0.0625
193207;0.88;-0.14;9.8;-0.6875;-0.4375;-0.0625
193207;0.84;-0.17;9.86;-0.4375;-0.5;0.3125
193207;0.85;-0.2;9.87;-0.25;-0.6875;0.5
193207;0.88;-0.17;9.82;-0.1875;-0.375;0.4375
193207;0.9;-0.17;9.79;0.125;0.0;0.1875
193207;0.95;-0.18;9.84;-0.125;-0.125;-0.0625
193207;0.94;-0.19;9.85;-0.8125;-0.0625;-0.5
193207;0.9;-0.16;9.85;-1.0625;0.3125;-0.5
193207;0.98;-0.12;9.87;0.0625;0.75;-0.0625
193207;0.93;-0.16;9.83;-0.125;0.6875;0.0
193207;0.9;-0.22;9.83;-0.375;0.875;0.25
193207;0.86;-0.2;9.82;-0.4375;0.9375;0.0
193207;0.9;-0.17;9.85;0.125;0.125;0.0625
193208;0.93;-0.16;9.82;-0.0625;0.125;0.0
193208;0.91;-0.17;9.81;-0.0625;0.125;0.0625
193208;0.84;-0.19;9.76;-0.25;0.375;0.0
193208;0.87;-0.23;9.83;-0.8125;0.5;-0.0625
193208;0.86;-0.19;9.83;-0.875;0.625;-0.1875
193208;0.86;-0.19;9.82;-0.375;0.3125;-0.125
193208;0.85;-0.19;9.84;-0.1875;0.25;-0.25
193208;0.85;-0.21;9.82;-0.5625;0.4375;0.1875
193208;0.88;-0.19;9.83;-0.375;0.4375;0.3125
193208;0.87;-0.2;9.8;-0.4375;0.375;0.3125
193208;0.86;-0.18;9.84;-0.125;0.375;0.25
193208;0.9;-0.18;9.93;0.625;0.625;-0.1875
193208;0.93;-0.16;9.91;0.0625;0.4375;-0.125
193208;0.91;-0.2;9.8;-0.5625;0.3125;-0.0625
193208;0.8;-0.23;9.85;0.0;0.1875;0.3125
193208;0.83;-0.2;9.84;0.125;-0.1875;0.25
193208;0.88;-0.19;9.84;0.125;-0.375;0.4375
193208;0.86;-0.18;9.87;0.125;-0.5625;0.5
193208;0.94;-0.18;9.87;0.25;-0.1875;-0.25
193208;0.95;-0.21;9.87;-0.125;0.0625;0.0
193208;0.9;-0.2;9.82;-0.4375;1.25;0.0
193209;0.9;-0.17;9.77;-0.4375;1.1875;-0.0625
193209;0.78;-0.22;9.8;0.0625;-0.1875;0.3125
193209;0.9;-0.19;9.81;0.0625;-0.375;0.25
193209;0.95;-0.19;9.8;0.25;0.125;0.1875
193209;0.93;-0.21;9.8;0.3125;0.3125;0.0625
193209;0.79;-0.24;9.81;-0.5;0.25;-0.3125
193209;0.76;-0.27;9.82;-0.875;0.25;-0.375
193209;0.78;-0.24;9.8;-1.0;0.125;-0.5
193209;0.9;-0.25;9.92;-0.6875;-0.1875;-0.3125
193209;0.91;-0.2;9.75;-0.8125;-0.9375;0.25
193209;0.86;-0.22;9.8;-0.6875;-0.75;0.4375
193209;0.86;-0.22;9.83;-1.3125;-0.75;0.375
193209;0.82;-0.2;9.84;-1.375;-1.3125;0.5
193209;1.08;-0.19;9.83;-0.5625;-0.0625;0.3125
193209;1.04;-0.22;9.79;-0.6875;0.0;0.3125
193209;0.95;-0.23;9.8;-0.625;-0.4375;0.1875
193209;0.87;-0.26;9.8;-0.625;-0.3125;0.25
193209;0.87;-0.23;9.85;-0.5625;-0.1875;0.25
193209;0.89;-0.26;9.88;-0.8125;-0.3125;0.375
193209;0.91;-0.26;9.86;-0.6875;-0.75;0.5
193209;0.94;-0.28;9.79;-0.75;-1.125;0.5625
193210;0.94;-0.27;9.76;-0.875;-1.0625;0.8125
193210;0.97;-0.27;9.8;-1.1875;-1.1875;0.5625
193210;0.97;-0.26;9.76;-0.9375;-0.5625;0.625
193210;0.93;-0.26;9.86;-0.6875;0.8125;0.0
193210;0.91;-0.24;9.86;-0.75;0.875;0.0
193210;0.91;-0.25;9.81;-0.5625;0.5625;0.0
193210;0.91;-0.27;9.83;-0.125;0.4375;0.1875
193210;0.94;-0.26;9.77;0.125;0.0;0.3125
193210;0.94;-0.24;9.82;0.125;0.0625;0.0625
193210;0.94;-0.24;9.82;0.0625;0.3125;0.0625
193210;0.96;-0.28;9.81;-0.0625;0.375;-0.125
193210;0.91;-0.24;9.8;-0.125;-0.0625;0.0625
193210;0.91;-0.26;9.78;0.0;-0.0625;0.0
193210;0.92;-0.28;9.82;-0.25;0.0;0.125
193210;0.96;-0.26;9.82;-0.3125;0.4375;0.125
193210;0.96;-0.24;9.84;-0.1875;0.3125;0.1875
193210;0.9;-0.27;9.8;-0.0625;0.25;0.125
193210;0.91;-0.28;9.8;0.0625;0.4375;0.1875
193210;0.9;-0.32;9.81;-0.125;0.0625;-0.1875
193210;0.94;-0.32;9.77;-0.125;0.375;-0.25
193210;0.95;-0.25;9.84;0.125;1.25;-0.1875
193211;0.98;-0.25;9.86;0.1875;0.9375;-0.1875
193211;0.86;-0.24;9.83;0.8125;-0.0625;-0.3125
193211;0.88;-0.25;9.88;0.75;0.0625;-0.0625
193211;0.9;-0.28;9.86;0.375;0.0;0.25
193211;0.92;-0.27;9.88;-0.125;0.0625;0.1875
193211;0.91;-0.28;9.8;0.0;-0.1875;-0.1875
193211;0.89;-0.27;9.81;0.125;-0.0625;-0.0625
193211;0.9;-0.27;9.83;0.25;-0.5;0.0625
193211;0.89;-0.26;9.81;-0.1875;-0.4375;-0.0625
193211;0.92;-0.26;9.83;0.125;-0.625;0.0625
193211;0.91;-0.28;9.81;0.0;-0.0625;0.0
193211;0.95;-0.24;9.79;0.0;0.0;0.0
193211;0.93;-0.26;9.81;-0.1875;0.1875;-0.0625
193211;0.93;-0.26;9.84;-0.125;0.0625;-0.0625
193211;0.92;-0.27;9.86;0.0;0.0625;-0.125
193211;0.88;-0.27;9.82;0.0625;0.125;0.0
193211;0.9;-0.27;9.84;-0.125;-0.3125;0.0625
193211;0.93;-0.27;9.78;0.125;-0.0625;-0.1875
193211;0.94;-0.27;9.84;0.1875;0.0625;0.0
193211;0.94;-0.26;9.86;0.0625;-0.0625;0.1875
193211;0.93;-0.22;9.88;0.0625;0.6875;-0.0625
193211;0.95;-0.28;9.8;0.0;0.75;0.0
193212;0.95;-0.31;9.8;0.0;0.75;0.0
193212;0.91;-0.27;9.8;-0.25;0.6875;0.0625
193212;0.91;-0.3;9.81;-0.25;-0.4375;0.0625
193212;0.95;-0.28;9.86;-0.4375;-0.5;0.0625
193212;0.93;-0.27;9.83;-0.4375;-0.4375;0.125
193212;0.91;-0.29;9.79;-0.375;-0.5;0.0625
193212;0.92;-0.25;9.81;0.125;-0.5625;0.1875
193212;0.93;-0.27;9.8;0.0;-0.5625;0.125
193212;0.93;-0.26;9.83;-0.1875;-0.6875;0.25
193212;0.93;-0.27;9.8;0.0625;-0.4375;0.125
193212;0.93;-0.3;9.83;-0.1875;-0.4375;0.0625
193212;0.96;-0.28;9.82;0.125;-0.375;0.0
193212;0.9;-0.27;9.76;0.125;-0.3125;-0.125
193212;0.93;-0.29;9.82;0.0;-0.3125;-0.1875
193212;0.95;-0.26;9.82;-0.25;-0.375;0.125
193212;0.95;-0.27;9.82;-0.375;-0.25;0.1875
193212;0.95;-0.29;9.81;-0.3125;-0.4375;0.125
193212;0.97;-0.31;9.8;-0.0625;-0.25;-0.0625
193212;0.99;-0.34;9.8;0.125;-0.1875;0.0625
193212;0.94;-0.3;9.79;0.1875;0.25;0.125
193212;0.93;-0.31;9.83;0.0625;-0.375;0.125
193213;0.95;-0.31;9.79;-0.1875;0.4375;-0.0625
193213;0.93;-0.31;9.83;0.0;0.3125;-0.1875
193213;0.91;-0.3;9.82;0.1875;0.5;-0.1875
193213;0.91;-0.27;9.8;0.0625;0.3125;-0.25
193213;1.0;-0.3;9.81;0.0625;-0.5;0.125
193213;0.96;-0.32;9.77;0.0;-0.25;0.25
193213;0.96;-0.33;9.78;-0.125;0.0625;0.0625
193213;1.0;-0.3;9.8;0.125;-0.1875;0.25
193213;0.98;-0.31;9.87;0.5625;0.1875;0.125
193213;0.97;-0.3;9.86;0.4375;0.25;-0.1875
193213;0.98;-0.26;9.82;0.375;0.25;-0.0625
193213;0.97;-0.3;9.81;0.3125;0.1875;0.0625
193213;0.99;-0.3;9.8;0.25;0.75;-0.1875
193213;0.96;-0.29;9.83;0.125;0.5;-0.125
193213;0.97;-0.33;9.83;0.125;0.75;-0.1875
193213;0.96;-0.32;9.8;0.125;0.625;0.0
193213;0.98;-0.31;9.81;0.375;0.25;-0.125
193213;0.98;-0.28;9.83;0.3125;0.1875;0.0
193213;1.0;-0.31;9.83;0.25;0.375;-0.0625
193213;0.99;-0.29;9.87;0.1875;0.3125;-0.0625
193213;0.92;-0.31;9.78;0.5;0.875;0.0
193214;0.96;-0.31;9.81;0.0625;0.9375;-0.1875
193214;0.97;-0.35;9.79;0.0625;0.9375;-0.1875
193214;1.0;-0.3;9.81;0.3125;1.5;-0.25
193214;0.9;-0.3;9.83;0.5;0.375;-0.25
193214;0.9;-0.3;9.86;0.4375;0.0625;-0.0625
193214;0.91;-0.33;9.84;0.1875;0.0625;-0.0625
193214;0.97;-0.29;9.8;0.4375;0.375;-0.375
193214;0.97;-0.3;9.85;0.1875;0.8125;-0.375
193214;0.96;-0.31;9.79;-0.0625;0.6875;-0.3125
193214;0.97;-0.32;9.83;0.125;0.625;-0.375
193214;0.95;-0.28;9.8;0.5;0.125;-0.0625
193214;0.97;-0.29;9.83;0.5625;0.1875;0.0
193214;0.97;-0.27;9.83;1.4375;0.3125;0.125
193214;0.97;-0.25;9.75;2.1875;0.25;0.0625
193214;0.84;-0.29;9.82;0.6875;0.9375;-0.5
193214;0.91;-0.26;9.85;0.25;0.625;-0.25
193214;1.0;-0.25;9.85;-0.375;1.25;-0.5
193214;0.97;-0.25;9.82;-0.25;1.5625;-0.5
193214;0.9;-0.28;9.84;0.0625;0.875;-0.125
193214;0.86;-0.25;9.85;0.25;0.6875;0.0
193214;0.86;-0.23;9.84;0.4375;0.25;0.25
193215;0.86;-0.24;9.81;0.5;0.625;0.25
193215;0.92;-0.27;9.79;0.375;0.25;0.125
193215;0.83;-0.25;9.84;0.3125;1.0625;-0.0625
193215;0.85;-0.27;9.85;-0.0625;0.6875;0.0
193215;0.94;-0.23;9.83;0.0;0.5625;0.0625
193215;0.9;-0.28;9.77;0.1875;0.625;0.1875
193215;0.9;-0.24;9.81;0.0;0.3125;0.0
193215;0.95;-0.21;9.86;0.3125;0.0;0.0625
193215;0.94;-0.23;9.84;0.5625;0.3125;0.125
193215;0.87;-0.22;9.9;0.75;-0.8125;-0.1875
193215;0.92;-0.23;9.83;0.75;-1.3125;-0.1875
193215;0.92;-0.27;9.76;0.5625;-0.6875;-0.125
193215;0.92;-0.25;9.76;0.1875;0.6875;-0.3125
193215;0.94;-0.28;9.78;-0.1875;0.5625;-0.125
193215;0.87;-0.22;9.82;-0.125;0.4375;-0.125
193215;0.88;-0.2;9.87;0.375;-0.5625;-0.1875
193215;0.92;-0.24;9.81;0.5;-0.625;-0.1875
193215;0.97;-0.26;9.83;0.375;0.0;0.0625
193215;0.9;-0.27;9.79;0.25;0.4375;-0.125
193215;0.93;-0.28;9.87;-0.0625;-0.0625;-0.1875
193215;0.87;-0.25;9.84;0.4375;0.1875;-0.1875
193215;0.93;-0.25;9.86;0.4375;0.1875;-0.125
193216;0.93;-0.25;9.82;0.125;0.4375;0.0
193216;0.94;-0.27;9.82;0.125;0.0625;0.125
