acc_x;acc_y;acc_z;gyro_x;gyro_y;gyro_z
1.031494140625;-0.1435546875;-0.197998046875;-2.213740458015267;-1.8091603053435115;-0.6259541984732825
1.041015625;-0.148193359375;-0.2041015625;-2.122137404580153;-1.5114503816793894;-0.2748091603053435
1.0322265625;-0.14794921875;-0.208984375;-2.4885496183206106;-1.381679389312977;0.13740458015267176
1.0205078125;-0.157470703125;-0.214111328125;-3.0839694656488548;-1.8625954198473282;0.03816793893129771
1.00927734375;-0.155517578125;-0.222900390625;-3.3893129770992365;-2.3893129770992365;-0.09923664122137404
1.02294921875;-0.1572265625;-0.216796875;-4.145038167938932;-2.9236641221374047;0.08396946564885496
1.0009765625;-0.1572265625;-0.2314453125;-4.7251908396946565;-3.885496183206107;0.3053435114503817
0.99169921875;-0.15478515625;-0.2275390625;-5.068702290076335;-4.816793893129771;0.3511450381679389
0.9892578125;-0.14208984375;-0.239501953125;-5.648854961832061;-5.198473282442748;0.3893129770992366
0.98583984375;-0.140869140625;-0.228759765625;-6.916030534351145;-6.6106870229007635;0.3816793893129771
0.97021484375;-0.155517578125;-0.251220703125;-8.091603053435115;-8.213740458015268;0.0916030534351145
0.9765625;-0.157958984375;-0.25244140625;-8.511450381679388;-9.526717557251908;0.08396946564885496
0.982666015625;-0.145263671875;-0.262451171875;-9.48091603053435;-11.099236641221374;0.3816793893129771
0.970458984375;-0.139892578125;-0.273193359375;-10.351145038167939;-12.84732824427481;0.8015267175572519
0.975341796875;-0.138671875;-0.27978515625;-10.954198473282442;-13.49618320610687;1.1145038167938932
0.9775390625;-0.102294921875;-0.277587890625;-12.702290076335878;-15.351145038167939;1.7099236641221374
0.966796875;-0.093017578125;-0.293701171875;-15.053435114503817;-17.66412213740458;1.900763358778626
0.950439453125;-0.09326171875;-0.28515625;-17.236641221374047;-20.480916030534353;1.4198473282442747
0.958740234375;-0.10400390625;-0.26708984375;-18.572519083969464;-22.236641221374047;0.42748091603053434
0.974609375;-0.102294921875;-0.238525390625;-19.603053435114504;-23.404580152671755;-0.7709923664122137
0.961669921875;-0.10205078125;-0.227294921875;-21.404580152671755;-23.82442748091603;-1.4885496183206106
0.949462890625;-0.093017578125;-0.234619140625;-23.53435114503817;-24.870229007633586;-2.5419847328244276
0.998291015625;-0.06787109375;-0.222412109375;-25.625954198473284;-25.893129770992367;-2.801526717557252
1.04296875;-0.05908203125;-0.267822265625;-26.946564885496183;-25.30534351145038;-2.7786259541984735
1.07421875;-0.06884765625;-0.263916015625;-29.244274809160306;-25.778625954198475;-2.404580152671756
1.121337890625;-0.08154296875;-0.284912109375;-31.297709923664122;-24.885496183206108;-2.1603053435114505
1.135009765625;-0.080078125;-0.26708984375;-32.37404580152672;-21.30534351145038;-2.351145038167939
1.103271484375;-0.06396484375;-0.2548828125;-33.25190839694657;-16.786259541984734;-3.198473282442748
1.05078125;-0.043212890625;-0.255859375;-33.87022900763359;-14.053435114503817;-3.732824427480916
1.008544921875;-0.027099609375;-0.2666015625;-35.458015267175576;-12.923664122137405;-3.7786259541984735
1.0;-0.02099609375;-0.26904296875;-35.11450381679389;-12.206106870229007;-2.6946564885496183
0.996826171875;-0.046630859375;-0.2861328125;-32.37404580152672;-10.969465648854962;-0.7480916030534351
0.983642578125;-0.06396484375;-0.3037109375;-28.778625954198475;-8.992366412213741;0.5114503816793893
1.00537109375;-0.0595703125;-0.300048828125;-25.938931297709924;-8.48091603053435;1.4274809160305344
1.022705078125;-0.054931640625;-0.29931640625;-22.671755725190838;-7.885496183206107;2.2290076335877864
1.04833984375;-0.076904296875;-0.297607421875;-17.19083969465649;-5.7251908396946565;2.351145038167939
1.07958984375;-0.077392578125;-0.2861328125;-11.694656488549619;-3.366412213740458;2.351145038167939
1.103271484375;-0.068115234375;-0.27099609375;-7.404580152671755;-0.732824427480916;1.3893129770992367
1.091552734375;-0.071533203125;-0.262939453125;-4.5038167938931295;1.4045801526717556;0.17557251908396945
1.0771484375;-0.0771484375;-0.279541015625;-1.3206106870229009;3.854961832061069;-0.3816793893129771
1.0458984375;-0.0673828125;-0.287841796875;2.3206106870229006;5.473282442748092;-0.45038167938931295
1.024169921875;-0.048095703125;-0.295654296875;4.877862595419847;6.450381679389313;0.11450381679389313
0.989990234375;-0.037841796875;-0.302978515625;5.519083969465649;7.557251908396947;0.6183206106870229
0.982421875;-0.031982421875;-0.317138671875;6.763358778625954;8.038167938931299;1.4122137404580153
0.98583984375;-0.023681640625;-0.28759765625;8.061068702290076;8.694656488549619;1.9694656488549618
0.976806640625;-0.0166015625;-0.291015625;8.938931297709924;9.122137404580153;1.5954198473282444
0.978515625;-0.027587890625;-0.298583984375;9.84732824427481;8.229007633587786;1.4961832061068703
1.005615234375;-0.022705078125;-0.304443359375;9.412213740458014;8.206106870229007;1.8625954198473282
1.02490234375;-0.02490234375;-0.297119140625;8.396946564885496;7.854961832061068;2.2290076335877864
1.02783203125;-0.029296875;-0.308349609375;8.229007633587786;8.358778625954198;2.6106870229007635
1.014404296875;-0.031005859375;-0.31982421875;8.702290076335878;8.625954198473282;3.2900763358778624
1.0126953125;-0.030517578125;-0.333984375;9.038167938931299;8.961832061068701;4.259541984732825
0.989013671875;-0.034423828125;-0.331787109375;9.595419847328245;9.229007633587786;5.305343511450381
0.96142578125;-0.03515625;-0.321533203125;10.297709923664122;8.946564885496183;6.67175572519084
0.970947265625;-0.046630859375;-0.333740234375;12.01526717557252;8.511450381679388;7.916030534351145
0.958984375;-0.046142578125;-0.311767578125;13.442748091603054;8.381679389312977;9.34351145038168
0.94921875;-0.04345703125;-0.303466796875;14.076335877862595;8.954198473282442;10.458015267175572
0.94287109375;-0.054443359375;-0.292236328125;15.022900763358779;8.50381679389313;12.114503816793894
0.94970703125;-0.082275390625;-0.313232421875;15.618320610687023;8.007633587786259;14.19083969465649
0.956298828125;-0.126953125;-0.347900390625;19.65648854961832;8.129770992366412;16.977099236641223
0.978759765625;-0.151611328125;-0.368896484375;23.0381679389313;6.923664122137405;20.748091603053435
1.028076171875;-0.1826171875;-0.395751953125;25.99236641221374;5.8320610687022905;22.9618320610687
1.085693359375;-0.228515625;-0.412109375;29.9618320610687;2.946564885496183;23.198473282442748
1.1337890625;-0.267333984375;-0.396240234375;32.67175572519084;1.5190839694656488;20.938931297709924
1.135498046875;-0.2666015625;-0.3447265625;32.35114503816794;2.717557251908397;16.625954198473284
1.074951171875;-0.242919921875;-0.3193359375;29.099236641221374;3.015267175572519;11.709923664122137
0.987060546875;-0.203857421875;-0.298828125;25.69465648854962;1.0534351145038168;9.083969465648854
0.918701171875;-0.187744140625;-0.30126953125;26.38167938931298;-0.5877862595419847;9.091603053435115
0.89013671875;-0.18212890625;-0.276123046875;28.954198473282442;-2.7404580152671754;10.435114503816793
0.875244140625;-0.18994140625;-0.246826171875;33.19083969465649;-2.7557251908396947;12.50381679389313
0.884033203125;-0.21728515625;-0.209228515625;37.74809160305343;-1.1908396946564885;13.183206106870228
0.916259765625;-0.245849609375;-0.166259765625;41.13740458015267;0.6259541984732825;12.885496183206106
0.962158203125;-0.246337890625;-0.13720703125;43.06870229007634;2.3206106870229006;11.549618320610687
1.005615234375;-0.21533203125;-0.08642578125;42.404580152671755;2.6030534351145036;9.473282442748092
1.05029296875;-0.16650390625;-0.03857421875;39.0763358778626;2.030534351145038;7.625954198473282
1.104248046875;-0.1171875;-0.02294921875;32.16793893129771;1.0610687022900764;5.923664122137405
1.16162109375;-0.07666015625;-0.026123046875;23.137404580152673;0.24427480916030533;4.442748091603053
1.1796875;-0.060791015625;-0.05908203125;13.992366412213741;0.7251908396946565;2.984732824427481
1.177978515625;-0.088134765625;-0.093505859375;6.442748091603053;2.183206106870229;1.6946564885496183
1.197021484375;-0.123291015625;-0.12744140625;2.854961832061069;4.213740458015267;1.0916030534351144
1.196044921875;-0.1767578125;-0.1474609375;2.114503816793893;8.045801526717558;0.5877862595419847
1.140380859375;-0.22607421875;-0.1435546875;2.7557251908396947;11.648854961832061;-0.45038167938931295
1.084716796875;-0.25634765625;-0.126953125;3.6564885496183206;13.938931297709924;-0.8778625954198473
1.047607421875;-0.27490234375;-0.115478515625;4.236641221374046;14.778625954198473;-1.0076335877862594
1.001220703125;-0.280517578125;-0.11572265625;4.740458015267175;14.557251908396946;-1.213740458015267
0.940185546875;-0.268310546875;-0.10498046875;4.748091603053435;13.587786259541986;-1.6412213740458015
0.907958984375;-0.24072265625;-0.1103515625;4.33587786259542;10.83206106870229;-2.068702290076336
0.913330078125;-0.231689453125;-0.096923828125;2.3282442748091605;8.65648854961832;-2.7022900763358777
0.910400390625;-0.23486328125;-0.0986328125;0.24427480916030533;7.1603053435114505;-3.1755725190839694
0.90283203125;-0.232666015625;-0.106201171875;-1.633587786259542;6.396946564885496;-4.068702290076335
0.916259765625;-0.22705078125;-0.105712890625;-3.6412213740458017;6.213740458015267;-5.770992366412214
0.93896484375;-0.230712890625;-0.12548828125;-4.99236641221374;6.465648854961832;-7.549618320610687
0.9296875;-0.2392578125;-0.140380859375;-5.8396946564885495;6.526717557251908;-9.229007633587786
0.960205078125;-0.246826171875;-0.14208984375;-6.068702290076335;6.32824427480916;-10.541984732824428
0.98828125;-0.26953125;-0.143310546875;-6.251908396946565;5.702290076335878;-11.48091603053435
1.003173828125;-0.27734375;-0.13232421875;-6.206106870229007;5.969465648854962;-12.091603053435115
1.033935546875;-0.27099609375;-0.12841796875;-5.961832061068702;6.557251908396947;-12.435114503816793
1.060546875;-0.25390625;-0.111083984375;-5.297709923664122;6.740458015267175;-12.0
1.07177734375;-0.212646484375;-0.089111328125;-6.351145038167939;5.938931297709924;-11.473282442748092
1.065673828125;-0.2080078125;-0.116455078125;-7.206106870229007;5.1679389312977095;-11.541984732824428
1.064453125;-0.21142578125;-0.13427734375;-7.114503816793893;6.106870229007634;-12.13740458015267
1.090087890625;-0.211181640625;-0.1669921875;-7.450381679389313;5.00763358778626;-11.687022900763358
1.1357421875;-0.225341796875;-0.205078125;-9.770992366412214;1.6412213740458015;-9.82442748091603
1.174560546875;-0.2265625;-0.2451171875;-12.641221374045802;0.09923664122137404;-8.122137404580153
1.176513671875;-0.19775390625;-0.24462890625;-13.450381679389313;1.8854961832061068;-7.480916030534351
1.08837890625;-0.155517578125;-0.23193359375;-11.13740458015267;3.9389312977099236;-7.396946564885496
1.00634765625;-0.120361328125;-0.21435546875;-8.053435114503817;3.366412213740458;-6.259541984732825
0.951416015625;-0.10205078125;-0.17626953125;-7.32824427480916;4.480916030534351;-5.404580152671755
0.900146484375;-0.07958984375;-0.13623046875;-8.931297709923664;5.641221374045801;-5.305343511450381
0.845703125;-0.0810546875;-0.111328125;-12.01526717557252;5.320610687022901;-5.038167938931298
0.841552734375;-0.0888671875;-0.11328125;-16.34351145038168;2.984732824427481;-4.0534351145038165
0.885986328125;-0.110595703125;-0.1298828125;-20.30534351145038;0.5725190839694656;-2.5877862595419847
0.9482421875;-0.151123046875;-0.154541015625;-22.419847328244273;-0.7175572519083969;-2.366412213740458
1.014892578125;-0.1865234375;-0.1796875;-23.267175572519083;-0.29770992366412213;-2.6717557251908395
1.07080078125;-0.227294921875;-0.2021484375;-21.83969465648855;1.213740458015267;-3.2977099236641223
1.110107421875;-0.24658203125;-0.208984375;-19.33587786259542;2.5801526717557253;-3.7099236641221376
1.102783203125;-0.239013671875;-0.2021484375;-16.53435114503817;2.984732824427481;-3.8702290076335877
1.08349609375;-0.21826171875;-0.18896484375;-13.694656488549619;3.5801526717557253;-4.022900763358779
1.06982421875;-0.1953125;-0.2001953125;-10.664122137404581;4.32824427480916;-4.847328244274809
1.04931640625;-0.17333984375;-0.18505859375;-7.854961832061068;5.190839694656488;-5.213740458015267
1.022705078125;-0.155029296875;-0.170166015625;-6.419847328244275;5.068702290076335;-5.267175572519084
1.0107421875;-0.143798828125;-0.159912109375;-5.931297709923665;4.900763358778626;-4.66412213740458
1.0126953125;-0.1455078125;-0.149169921875;-5.770992366412214;4.9541984732824424;-4.1603053435114505
1.013916015625;-0.157470703125;-0.14013671875;-5.564885496183206;5.175572519083969;-3.7251908396946565
1.00634765625;-0.16259765625;-0.15234375;-5.061068702290076;4.8320610687022905;-3.2595419847328246
1.002197265625;-0.166259765625;-0.14892578125;-4.816793893129771;4.549618320610687;-3.2748091603053435
1.004638671875;-0.16015625;-0.15673828125;-4.961832061068702;3.7404580152671754;-3.5114503816793894
1.006591796875;-0.1640625;-0.171875;-4.312977099236641;3.0076335877862594;-3.9160305343511452
1.001708984375;-0.157958984375;-0.171630859375;-3.8396946564885495;2.282442748091603;-4.190839694656488
1.02978515625;-0.135986328125;-0.1689453125;-3.351145038167939;1.8473282442748091;-4.091603053435114
1.0390625;-0.126220703125;-0.18505859375;-2.969465648854962;1.8854961832061068;-3.5572519083969465
1.029296875;-0.130615234375;-0.175537109375;-2.8396946564885495;1.900763358778626;-3.0229007633587788
1.0380859375;-0.122802734375;-0.161376953125;-3.519083969465649;2.2595419847328246;-2.5267175572519083
1.045166015625;-0.11865234375;-0.165771484375;-4.122137404580153;2.33587786259542;-2.404580152671756
1.026611328125;-0.119873046875;-0.169189453125;-4.824427480916031;2.4656488549618323;-2.2977099236641223
1.015869140625;-0.116455078125;-0.16650390625;-5.572519083969466;2.404580152671756;-2.50381679389313
1.025146484375;-0.122802734375;-0.1748046875;-6.137404580152672;2.2748091603053435;-2.3587786259541983
1.025634765625;-0.131591796875;-0.1630859375;-6.198473282442748;1.8931297709923665;-2.4732824427480917
1.021240234375;-0.153076171875;-0.15234375;-5.763358778625954;1.717557251908397;-2.145038167938931
1.02880859375;-0.15771484375;-0.151123046875;-5.557251908396947;1.6870229007633588;-2.3206106870229006
1.027099609375;-0.160400390625;-0.15625;-5.198473282442748;1.984732824427481;-2.16793893129771
1.021484375;-0.1513671875;-0.14697265625;-5.091603053435114;1.6564885496183206;-2.183206106870229
1.013916015625;-0.13330078125;-0.15673828125;-5.32824427480916;1.099236641221374;-1.8015267175572518
1.029541015625;-0.118896484375;-0.168701171875;-5.0;1.099236641221374;-1.8015267175572518
1.020751953125;-0.1123046875;-0.17138671875;-4.435114503816794;1.2748091603053435;-1.9770992366412214
1.015625;-0.1181640625;-0.169189453125;-4.717557251908397;1.1374045801526718;-1.8396946564885497
1.01904296875;-0.123291015625;-0.164794921875;-4.801526717557252;1.2900763358778626;-1.9389312977099236
1.038330078125;-0.132080078125;-0.16162109375;-5.00763358778626;1.3206106870229009;-1.5419847328244274
1.033447265625;-0.127197265625;-0.16162109375;-5.450381679389313;1.1145038167938932;-1.3053435114503817
1.0263671875;-0.136962890625;-0.158447265625;-5.412213740458015;0.8931297709923665;-1.183206106870229
1.038330078125;-0.13037109375;-0.159912109375;-5.152671755725191;0.6412213740458015;-0.7557251908396947
1.036376953125;-0.140380859375;-0.16552734375;-4.541984732824427;0.11450381679389313;-0.9236641221374046
1.031005859375;-0.14208984375;-0.15576171875;-4.427480916030534;-0.183206106870229;-0.5419847328244275
1.028076171875;-0.138916015625;-0.169921875;-4.206106870229007;-0.15267175572519084;-0.5572519083969466
1.031005859375;-0.13134765625;-0.175537109375;-3.9618320610687023;-0.22900763358778625;-0.48091603053435117
1.029296875;-0.13427734375;-0.180908203125;-3.9770992366412212;-0.2748091603053435;-0.5038167938931297
1.017333984375;-0.140625;-0.182373046875;-3.1526717557251906;-0.5038167938931297;-0.3053435114503817
1.022216796875;-0.146484375;-0.167724609375;-1.9389312977099236;-0.4961832061068702;-0.4961832061068702
1.019775390625;-0.152587890625;-0.161865234375;-1.618320610687023;-0.35877862595419846;-0.8015267175572519
1.01171875;-0.15380859375;-0.17529296875;-1.3435114503816794;-0.40458015267175573;-0.9465648854961832
1.007568359375;-0.136962890625;-0.157470703125;-1.5419847328244274;-1.618320610687023;-0.8244274809160306
1.016845703125;-0.111083984375;-0.16357421875;-1.786259541984733;-2.2213740458015265;-0.6793893129770993
1.017333984375;-0.116943359375;-0.16748046875;-1.916030534351145;-2.450381679389313;-0.7022900763358778
1.01806640625;-0.11572265625;-0.1669921875;-2.282442748091603;-2.564885496183206;-0.5038167938931297
1.028564453125;-0.11669921875;-0.168701171875;-2.877862595419847;-2.3206106870229006;-0.4732824427480916
1.036865234375;-0.111572265625;-0.1630859375;-3.33587786259542;-2.213740458015267;-0.3969465648854962
1.038330078125;-0.110107421875;-0.16552734375;-3.786259541984733;-1.8244274809160306;-0.44274809160305345
1.0224609375;-0.12255859375;-0.16796875;-3.8091603053435112;-1.6488549618320612;-0.5267175572519084
1.029052734375;-0.126708984375;-0.173095703125;-3.969465648854962;-1.5801526717557253;-0.6870229007633588
1.041259765625;-0.1279296875;-0.164794921875;-3.7709923664122136;-1.6106870229007633;-0.8625954198473282
1.0263671875;-0.132080078125;-0.16845703125;-3.572519083969466;-1.7557251908396947;-0.9923664122137404
1.02587890625;-0.132080078125;-0.1708984375;-3.49618320610687;-1.7099236641221374;-0.9618320610687023
1.031982421875;-0.122802734375;-0.160400390625;-3.198473282442748;-1.717557251908397;-1.0458015267175573
1.028564453125;-0.1279296875;-0.16162109375;-3.1755725190839694;-1.4885496183206106;-1.0076335877862594
1.02001953125;-0.130615234375;-0.176025390625;-2.984732824427481;-1.450381679389313;-1.1755725190839694
1.02783203125;-0.13232421875;-0.174560546875;-3.0381679389312977;-1.450381679389313;-1.297709923664122
1.02783203125;-0.127197265625;-0.165283203125;-2.931297709923664;-1.8015267175572518;-1.213740458015267
1.024169921875;-0.132568359375;-0.1630859375;-3.0229007633587788;-2.099236641221374;-1.2366412213740459
1.022216796875;-0.127197265625;-0.172607421875;-2.7709923664122136;-1.8473282442748091;-1.16793893129771
1.03466796875;-0.1298828125;-0.1669921875;-2.5877862595419847;-1.6412213740458015;-1.2366412213740459
1.020751953125;-0.130859375;-0.175048828125;-2.6259541984732824;-1.6564885496183206;-1.1603053435114503
1.0224609375;-0.124755859375;-0.1767578125;-2.9083969465648853;-1.9618320610687023;-0.9007633587786259
1.0341796875;-0.127197265625;-0.17236328125;-3.0229007633587788;-1.7633587786259541;-0.7557251908396947
1.040771484375;-0.1337890625;-0.1796875;-2.8244274809160306;-1.4122137404580153;-0.7557251908396947
1.022705078125;-0.1337890625;-0.177734375;-2.427480916030534;-1.6793893129770991;-0.9389312977099237
1.015380859375;-0.136474609375;-0.173828125;-2.2290076335877864;-1.6641221374045803;-0.9312977099236641
1.025390625;-0.13525390625;-0.1708984375;-2.183206106870229;-1.2900763358778626;-1.0610687022900764
1.025146484375;-0.135498046875;-0.180419921875;-2.145038167938931;-1.1450381679389312;-0.7938931297709924
1.012451171875;-0.145751953125;-0.174560546875;-2.4656488549618323;-1.0229007633587786;-0.9770992366412213
1.0166015625;-0.13818359375;-0.171875;-2.5419847328244276;-0.8931297709923665;-1.1984732824427482
1.027587890625;-0.128662109375;-0.16943359375;-2.954198473282443;-1.015267175572519;-1.1755725190839694
1.019287109375;-0.133056640625;-0.173583984375;-3.053435114503817;-1.5038167938931297;-1.1526717557251909
1.027587890625;-0.13623046875;-0.17431640625;-2.900763358778626;-1.5419847328244274;-0.9770992366412213
1.043701171875;-0.13037109375;-0.1728515625;-2.549618320610687;-1.1603053435114503;-0.8549618320610687
1.046875;-0.135986328125;-0.167236328125;-2.1297709923664123;-0.9083969465648855;-1.0229007633587786
1.025146484375;-0.14599609375;-0.168701171875;-1.7633587786259541;-1.1221374045801527;-1.0534351145038168
1.02294921875;-0.142822265625;-0.175048828125;-1.8854961832061068;-1.1603053435114503;-1.0610687022900764
1.03271484375;-0.1416015625;-0.1826171875;-1.6641221374045803;-1.251908396946565;-1.3282442748091603
1.025634765625;-0.145263671875;-0.17724609375;-2.0;-1.099236641221374;-1.4427480916030535
1.010009765625;-0.14697265625;-0.183349609375;-2.045801526717557;-0.7404580152671756;-1.3511450381679388
1.02294921875;-0.1357421875;-0.186767578125;-2.16793893129771;-0.9770992366412213;-1.282442748091603
1.021728515625;-0.135986328125;-0.18310546875;-2.2977099236641223;-1.366412213740458;-1.4045801526717556
1.017333984375;-0.13916015625;-0.180419921875;-2.381679389312977;-1.5267175572519085;-1.2671755725190839
1.017333984375;-0.14306640625;-0.171875;-2.0229007633587788;-1.1221374045801527;-1.2061068702290076
1.03271484375;-0.144287109375;-0.170166015625;-1.900763358778626;-0.8702290076335878;-1.465648854961832
1.025390625;-0.14697265625;-0.17724609375;-1.8396946564885497;-1.633587786259542;-1.5801526717557253
1.017822265625;-0.143798828125;-0.175537109375;-2.648854961832061;-1.8473282442748091;-1.4122137404580153
1.0166015625;-0.1337890625;-0.1748046875;-2.732824427480916;-2.045801526717557;-1.3282442748091603
1.0283203125;-0.132568359375;-0.179931640625;-2.480916030534351;-1.8702290076335877;-1.2290076335877862
1.0234375;-0.142333984375;-0.181640625;-2.0839694656488548;-1.5190839694656488;-0.9847328244274809
1.009765625;-0.1357421875;-0.166748046875;-1.9465648854961832;-1.2595419847328244;-0.8778625954198473
1.024169921875;-0.130859375;-0.181884765625;-2.16793893129771;-1.1145038167938932;-0.7786259541984732
1.031494140625;-0.12890625;-0.175048828125;-2.5343511450381677;-0.9389312977099237;-0.6030534351145038
1.023193359375;-0.138671875;-0.17041015625;-2.786259541984733;-0.7786259541984732;-0.6641221374045801
1.03369140625;-0.136474609375;-0.171142578125;-2.854961832061069;-0.8091603053435115;-0.6564885496183206
1.03564453125;-0.1357421875;-0.1787109375;-2.7022900763358777;-0.5954198473282443;-0.6870229007633588
1.017333984375;-0.14013671875;-0.17822265625;-2.50381679389313;-0.6717557251908397;-0.5877862595419847
1.022216796875;-0.134521484375;-0.175048828125;-2.4580152671755724;-0.7404580152671756;-0.9007633587786259
1.031005859375;-0.138916015625;-0.18115234375;-2.435114503816794;-0.6030534351145038;-0.9465648854961832
1.019775390625;-0.135498046875;-0.18505859375;-2.633587786259542;-0.7862595419847328;-0.9389312977099237
1.019287109375;-0.141357421875;-0.18505859375;-2.5801526717557253;-1.0381679389312977;-0.6793893129770993
1.0244140625;-0.132568359375;-0.1806640625;-2.717557251908397;-0.48854961832061067;-0.7404580152671756
1.029296875;-0.1318359375;-0.174560546875;-3.0229007633587788;-0.7557251908396947;-0.7862595419847328
1.017333984375;-0.134521484375;-0.175048828125;-2.9770992366412212;-0.732824427480916;-0.6870229007633588
1.01708984375;-0.134521484375;-0.181884765625;-2.9236641221374047;-1.0229007633587786;-0.7480916030534351
1.03125;-0.12841796875;-0.1806640625;-3.0610687022900764;-1.0763358778625953;-0.8702290076335878
1.028564453125;-0.128662109375;-0.178466796875;-3.213740458015267;-0.732824427480916;-0.7633587786259542
1.0224609375;-0.135498046875;-0.179931640625;-3.198473282442748;-0.7633587786259542;-0.9465648854961832
1.025146484375;-0.132080078125;-0.17333984375;-3.0076335877862594;-1.1145038167938932;-1.0076335877862594
1.0361328125;-0.139892578125;-0.177001953125;-2.9236641221374047;-1.0916030534351144;-0.9312977099236641
1.02734375;-0.137939453125;-0.167236328125;-2.5267175572519083;-0.7022900763358778;-1.1526717557251909
1.016357421875;-0.1455078125;-0.192138671875;-2.236641221374046;-0.4122137404580153;-1.251908396946565
1.033203125;-0.135986328125;-0.1767578125;-2.49618320610687;-0.5419847328244275;-1.2213740458015268
1.030029296875;-0.133056640625;-0.18212890625;-2.717557251908397;-0.40458015267175573;-1.1755725190839694
1.02099609375;-0.135986328125;-0.181884765625;-2.717557251908397;-0.19083969465648856;-1.381679389312977
1.019775390625;-0.1396484375;-0.1796875;-2.5877862595419847;0.183206106870229;-1.2748091603053435
1.031005859375;-0.129150390625;-0.171142578125;-2.7404580152671754;0.2900763358778626;-1.3053435114503817
1.0234375;-0.128662109375;-0.187255859375;-3.030534351145038;0.1297709923664122;-1.2442748091603053
1.01904296875;-0.1337890625;-0.17578125;-3.145038167938931;0.1450381679389313;-1.3587786259541985
1.02685546875;-0.130859375;-0.175048828125;-2.984732824427481;0.1450381679389313;-1.3358778625954197
1.035400390625;-0.1337890625;-0.18310546875;-2.801526717557252;0.3053435114503817;-1.4122137404580153
1.024169921875;-0.13818359375;-0.17431640625;-2.6106870229007635;0.5267175572519084;-1.4732824427480915
1.016845703125;-0.13134765625;-0.182373046875;-2.7022900763358777;0.5572519083969466;-1.4198473282442747
1.02685546875;-0.131103515625;-0.188720703125;-2.931297709923664;0.3435114503816794;-1.4198473282442747
1.02294921875;-0.131591796875;-0.18310546875;-3.1603053435114505;0.21374045801526717;-1.183206106870229
1.01025390625;-0.137939453125;-0.191162109375;-3.2900763358778624;0.16030534351145037;-1.2366412213740459
1.019775390625;-0.147216796875;-0.1865234375;-2.8244274809160306;0.03816793893129771;-1.183206106870229
1.02392578125;-0.13818359375;-0.19384765625;-2.687022900763359;-0.13740458015267176;-0.9770992366412213
1.0224609375;-0.140869140625;-0.181884765625;-2.6946564885496183;-0.35877862595419846;-0.9389312977099237
1.014404296875;-0.145751953125;-0.18212890625;-2.50381679389313;-0.3893129770992366;-0.8320610687022901
1.028076171875;-0.13427734375;-0.18359375;-2.5267175572519083;-0.4351145038167939;-0.8091603053435115
1.03271484375;-0.13525390625;-0.184326171875;-2.9083969465648853;-0.35877862595419846;-0.7480916030534351
1.01025390625;-0.142578125;-0.18701171875;-2.4885496183206106;-0.6412213740458015;-0.816793893129771
1.00927734375;-0.13525390625;-0.19091796875;-2.1297709923664123;-1.0;-0.7404580152671756
1.01953125;-0.140869140625;-0.196044921875;-1.8244274809160306;-1.16793893129771;-0.6030534351145038
1.01611328125;-0.138671875;-0.18896484375;-1.8702290076335877;-1.549618320610687;-0.3511450381679389
1.019775390625;-0.13525390625;-0.1845703125;-2.1374045801526718;-1.5801526717557253;-0.4198473282442748
1.034912109375;-0.1376953125;-0.185546875;-2.2442748091603053;-1.7251908396946565;-0.2748091603053435
1.03076171875;-0.12744140625;-0.181640625;-2.282442748091603;-1.4427480916030535;-0.35877862595419846
1.0205078125;-0.135009765625;-0.185791015625;-2.1068702290076335;-1.099236641221374;-0.4122137404580153
1.0244140625;-0.134521484375;-0.1953125;-2.1755725190839694;-1.549618320610687;-0.5419847328244275
1.03955078125;-0.128662109375;-0.1796875;-2.877862595419847;-1.6564885496183206;-0.2366412213740458
1.017822265625;-0.135986328125;-0.185302734375;-2.7099236641221376;-1.8549618320610688;-0.3435114503816794
1.005126953125;-0.1337890625;-0.1962890625;-2.6030534351145036;-1.6106870229007633;-0.20610687022900764
1.0166015625;-0.13525390625;-0.1943359375;-2.519083969465649;-1.7328244274809161;-0.2824427480916031
1.020751953125;-0.1328125;-0.184326171875;-2.5801526717557253;-2.0229007633587788;-0.13740458015267176
1.01904296875;-0.139892578125;-0.1875;-2.5267175572519083;-1.7633587786259541;0.022900763358778626
1.022216796875;-0.138916015625;-0.18994140625;-2.5419847328244276;-2.1374045801526718;-0.007633587786259542
1.0361328125;-0.133056640625;-0.1904296875;-2.564885496183206;-2.0381679389312977;-0.08396946564885496
1.0302734375;-0.13525390625;-0.198486328125;-2.5343511450381677;-2.282442748091603;0.10687022900763359
1.01708984375;-0.13916015625;-0.19384765625;-2.404580152671756;-2.282442748091603;0.0
1.0185546875;-0.136474609375;-0.188232421875;-2.198473282442748;-2.1908396946564888;-0.5190839694656488
1.0185546875;-0.137939453125;-0.19970703125;-2.1755725190839694;-2.068702290076336;-0.5190839694656488
1.009521484375;-0.140380859375;-0.190673828125;-1.8931297709923665;-2.0916030534351147;-0.6335877862595419
1.006103515625;-0.136962890625;-0.189208984375;-1.6870229007633588;-2.435114503816794;-0.3816793893129771
1.010498046875;-0.1279296875;-0.19580078125;-1.6488549618320612;-2.66412213740458;-0.3053435114503817
1.0126953125;-0.13671875;-0.2021484375;-1.9694656488549618;-3.183206106870229;-0.17557251908396945
1.009765625;-0.142578125;-0.19482421875;-1.984732824427481;-3.2519083969465647;-0.2748091603053435
1.01904296875;-0.138916015625;-0.191162109375;-1.83206106870229;-3.66412213740458;-0.31297709923664124
1.031982421875;-0.13671875;-0.189697265625;-1.7557251908396947;-3.4885496183206106;-0.25190839694656486
1.031494140625;-0.13427734375;-0.19140625;-1.618320610687023;-3.5267175572519083;-0.24427480916030533
1.020263671875;-0.142578125;-0.197021484375;-1.702290076335878;-3.549618320610687;-0.2748091603053435
1.026611328125;-0.140625;-0.20703125;-1.7099236641221374;-3.7251908396946565;-0.21374045801526717
1.0244140625;-0.137451171875;-0.20703125;-1.5190839694656488;-3.6793893129770994;-0.22900763358778625
1.013916015625;-0.14599609375;-0.20263671875;-1.1603053435114503;-3.885496183206107;-0.3435114503816794
1.018310546875;-0.14404296875;-0.205810546875;-0.8549618320610687;-3.8931297709923665;-0.33587786259541985
1.02197265625;-0.1337890625;-0.1982421875;-0.8625954198473282;-3.8625954198473282;-0.3816793893129771
1.01611328125;-0.140869140625;-0.199462890625;-0.8854961832061069;-3.9770992366412212;-0.19083969465648856
1.0068359375;-0.131103515625;-0.1943359375;-0.9694656488549618;-4.152671755725191;-0.22137404580152673
1.018310546875;-0.134521484375;-0.192138671875;-1.5190839694656488;-3.9618320610687023;-0.29770992366412213
1.025390625;-0.133056640625;-0.191162109375;-1.5954198473282444;-3.83206106870229;-0.24427480916030533
1.024169921875;-0.139404296875;-0.204833984375;-1.5725190839694656;-3.7404580152671754;-0.22137404580152673
1.0234375;-0.1357421875;-0.197998046875;-1.816793893129771;-3.9618320610687023;-0.24427480916030533
1.03369140625;-0.12548828125;-0.197998046875;-2.030534351145038;-3.6793893129770994;-0.22137404580152673
1.03125;-0.12353515625;-0.19580078125;-2.2519083969465647;-3.618320610687023;-0.31297709923664124
1.033935546875;-0.1259765625;-0.20068359375;-2.366412213740458;-3.282442748091603;-0.6946564885496184
1.032470703125;-0.122802734375;-0.199462890625;-2.4732824427480917;-2.854961832061069;-0.9389312977099237
1.03173828125;-0.125;-0.203125;-2.6793893129770994;-2.4198473282442747;-1.0
1.01806640625;-0.123779296875;-0.21826171875;-3.053435114503817;-2.2290076335877864;-1.251908396946565
1.017822265625;-0.126708984375;-0.208740234375;-3.549618320610687;-1.9923664122137406;-1.213740458015267
1.0244140625;-0.118408203125;-0.21435546875;-3.83206106870229;-2.0076335877862594;-1.4732824427480915
1.012939453125;-0.131591796875;-0.218994140625;-4.145038167938932;-1.7557251908396947;-1.297709923664122
1.013671875;-0.1357421875;-0.217529296875;-4.404580152671755;-1.9694656488549618;-1.1984732824427482
1.027587890625;-0.133056640625;-0.216552734375;-4.305343511450381;-2.0763358778625953;-1.282442748091603
1.0224609375;-0.135009765625;-0.21630859375;-4.175572519083969;-2.2442748091603053;-1.2595419847328244
1.000244140625;-0.140625;-0.22509765625;-4.229007633587786;-2.2900763358778624;-1.381679389312977
0.9912109375;-0.13818359375;-0.22705078125;-4.267175572519084;-2.618320610687023;-1.5114503816793894
1.000732421875;-0.146484375;-0.238525390625;-4.022900763358779;-3.015267175572519;-1.3206106870229009
0.995361328125;-0.154541015625;-0.244873046875;-3.50381679389313;-3.4732824427480917;-0.7251908396946565
0.98388671875;-0.15478515625;-0.253173828125;-2.8091603053435112;-4.358778625954199;-0.2748091603053435
1.00048828125;-0.14306640625;-0.244873046875;-2.4122137404580153;-5.099236641221374;0.21374045801526717
1.005615234375;-0.146240234375;-0.257568359375;-3.030534351145038;-5.885496183206107;0.8244274809160306
0.99853515625;-0.153076171875;-0.2705078125;-3.236641221374046;-6.412213740458015;0.9236641221374046
0.999755859375;-0.155517578125;-0.27197265625;-3.8473282442748094;-6.7251908396946565;1.2595419847328244
1.00537109375;-0.16455078125;-0.302978515625;-3.7480916030534353;-6.396946564885496;1.2442748091603053
1.005126953125;-0.158447265625;-0.300537109375;-4.106870229007634;-7.473282442748092;1.4885496183206106
0.998046875;-0.155029296875;-0.294921875;-4.297709923664122;-7.312977099236641;2.16793893129771
0.991455078125;-0.15087890625;-0.310302734375;-5.251908396946565;-6.816793893129771;2.282442748091603
0.990478515625;-0.1474609375;-0.32666015625;-5.679389312977099;-6.1679389312977095;2.404580152671756
0.970947265625;-0.15771484375;-0.32275390625;-6.0;-6.549618320610687;2.549618320610687
0.963134765625;-0.16943359375;-0.319091796875;-5.916030534351145;-6.99236641221374;2.9389312977099236
0.957275390625;-0.169677734375;-0.32373046875;-6.1603053435114505;-7.816793893129771;3.885496183206107
0.94921875;-0.177734375;-0.323974609375;-6.061068702290076;-9.320610687022901;4.580152671755725
0.946533203125;-0.19091796875;-0.332275390625;-5.183206106870229;-10.694656488549619;5.282442748091603
0.926513671875;-0.189208984375;-0.322021484375;-4.32824427480916;-12.19083969465649;6.00763358778626
0.921142578125;-0.187744140625;-0.316162109375;-3.572519083969466;-15.648854961832061;7.145038167938932
0.902587890625;-0.18115234375;-0.318115234375;-3.312977099236641;-20.213740458015266;7.8396946564885495
0.88916015625;-0.201171875;-0.3408203125;-2.0;-24.770992366412212;8.320610687022901
0.88525390625;-0.21875;-0.360595703125;0.4122137404580153;-29.427480916030536;9.312977099236642
0.901611328125;-0.226318359375;-0.37939453125;3.4732824427480917;-33.541984732824424;9.908396946564885
0.888671875;-0.251220703125;-0.3818359375;6.885496183206107;-37.595419847328245;9.381679389312977
0.897705078125;-0.259765625;-0.3857421875;10.534351145038167;-40.61832061068702;8.358778625954198
0.90478515625;-0.274658203125;-0.394287109375;13.84732824427481;-43.091603053435115;7.458015267175573
0.906494140625;-0.2734375;-0.355224609375;16.96946564885496;-43.83206106870229;7.748091603053435
0.88525390625;-0.279296875;-0.34228515625;20.129770992366414;-45.0763358778626;8.17557251908397
0.889404296875;-0.24658203125;-0.340087890625;21.53435114503817;-47.61068702290076;8.938931297709924
0.89892578125;-0.19580078125;-0.305419921875;20.404580152671755;-51.038167938931295;10.198473282442748
0.917236328125;-0.1435546875;-0.304443359375;17.396946564885496;-52.93129770992366;12.045801526717558
0.940673828125;-0.099609375;-0.340087890625;15.15267175572519;-53.35114503816794;13.633587786259541
0.974853515625;-0.081298828125;-0.37841796875;14.267175572519085;-51.63358778625954;13.534351145038167
0.99462890625;-0.103271484375;-0.39599609375;12.557251908396946;-49.23664122137404;12.86259541984733
1.000244140625;-0.128173828125;-0.435302734375;11.648854961832061;-43.396946564885496;11.49618320610687
1.0107421875;-0.158935546875;-0.455810546875;11.572519083969466;-36.50381679389313;10.618320610687023
0.985595703125;-0.177734375;-0.418212890625;10.648854961832061;-28.82442748091603;8.511450381679388
0.926513671875;-0.1943359375;-0.35546875;8.648854961832061;-22.412213740458014;7.030534351145038
0.90576171875;-0.18310546875;-0.28564453125;5.351145038167939;-19.595419847328245;7.641221374045801
0.8623046875;-0.151611328125;-0.230712890625;1.4198473282442747;-20.47328244274809;8.709923664122137
0.8154296875;-0.14013671875;-0.255126953125;-1.2213740458015268;-24.389312977099237;8.786259541984732
0.792724609375;-0.144775390625;-0.326416015625;-0.061068702290076333;-26.931297709923665;9.19083969465649
0.808837890625;-0.144287109375;-0.35400390625;1.1450381679389312;-33.0;10.50381679389313
0.875;-0.18212890625;-0.379150390625;3.8625954198473282;-37.88549618320611;12.648854961832061
0.919921875;-0.218017578125;-0.368408203125;3.946564885496183;-38.06870229007634;13.572519083969466
0.965087890625;-0.231689453125;-0.338623046875;-1.450381679389313;-39.404580152671755;15.091603053435115
1.000732421875;-0.24560546875;-0.335693359375;-7.236641221374046;-38.587786259541986;15.34351145038168
1.029296875;-0.228271484375;-0.384033203125;-8.412213740458014;-36.083969465648856;16.33587786259542
0.995361328125;-0.17333984375;-0.449951171875;-7.259541984732825;-32.770992366412216;17.129770992366414
0.97607421875;-0.18408203125;-0.4951171875;-4.480916030534351;-30.18320610687023;15.916030534351146
0.97705078125;-0.240234375;-0.52978515625;-1.0076335877862594;-25.900763358778626;14.51908396946565
0.945068359375;-0.284423828125;-0.481689453125;-0.29770992366412213;-24.198473282442748;13.221374045801527
0.897216796875;-0.31787109375;-0.402587890625;-0.7480916030534351;-23.12213740458015;11.854961832061068
0.916259765625;-0.334716796875;-0.364501953125;-1.1221374045801527;-23.87786259541985;11.763358778625955
0.93310546875;-0.30517578125;-0.358154296875;-2.015267175572519;-27.480916030534353;15.633587786259541
0.93701171875;-0.285888671875;-0.4228515625;-2.3587786259541983;-30.282442748091604;21.297709923664122
0.973388671875;-0.240478515625;-0.4951171875;-2.183206106870229;-32.274809160305345;24.732824427480917
1.01171875;-0.1904296875;-0.490234375;-1.7938931297709924;-31.755725190839694;25.83969465648855
1.011962890625;-0.1845703125;-0.5234375;-5.33587786259542;-29.763358778625953;24.083969465648856
1.004638671875;-0.230712890625;-0.519287109375;-6.267175572519084;-25.18320610687023;21.458015267175572
0.961669921875;-0.26171875;-0.476806640625;-5.938931297709924;-20.427480916030536;19.549618320610687
0.92333984375;-0.27783203125;-0.456787109375;-6.885496183206107;-16.946564885496183;19.603053435114504
0.86572265625;-0.3017578125;-0.438232421875;-7.687022900763359;-15.603053435114504;20.51145038167939
0.85546875;-0.283203125;-0.414306640625;-8.49618320610687;-18.64885496183206;23.16793893129771
0.849853515625;-0.245361328125;-0.4228515625;-10.748091603053435;-20.14503816793893;25.35114503816794
0.8779296875;-0.22998046875;-0.4638671875;-12.366412213740459;-20.923664122137403;26.374045801526716
0.871337890625;-0.224853515625;-0.47802734375;-14.442748091603054;-19.442748091603054;26.862595419847327
0.86572265625;-0.24169921875;-0.49072265625;-13.114503816793894;-17.541984732824428;26.671755725190838
0.828369140625;-0.225341796875;-0.46923828125;-10.923664122137405;-14.465648854961833;26.87786259541985
0.8056640625;-0.246826171875;-0.48388671875;-11.709923664122137;-13.419847328244275;25.38167938931298
0.81103515625;-0.241455078125;-0.451904296875;-12.229007633587786;-11.51908396946565;25.053435114503817
0.84912109375;-0.276123046875;-0.484130859375;-13.51908396946565;-11.450381679389313;26.595419847328245
0.873046875;-0.282958984375;-0.48779296875;-13.755725190839694;-11.229007633587786;27.229007633587788
0.89990234375;-0.3017578125;-0.480712890625;-13.946564885496183;-11.061068702290076;26.52671755725191
0.895263671875;-0.329345703125;-0.52490234375;-14.099236641221374;-8.412213740458014;22.65648854961832
0.88525390625;-0.323486328125;-0.53515625;-13.267175572519085;-8.312977099236642;18.885496183206108
0.85302734375;-0.34375;-0.535888671875;-11.465648854961833;-7.030534351145038;14.679389312977099
0.8515625;-0.346435546875;-0.522705078125;-9.778625954198473;-6.465648854961832;12.702290076335878
0.870361328125;-0.3623046875;-0.53564453125;-7.297709923664122;-4.526717557251908;12.870229007633588
0.847900390625;-0.35009765625;-0.559326171875;-4.312977099236641;-3.7786259541984735;14.633587786259541
0.83349609375;-0.32421875;-0.557373046875;-2.2900763358778624;-2.2900763358778624;14.755725190839694
0.807861328125;-0.321533203125;-0.564697265625;-0.15267175572519084;0.183206106870229;15.641221374045802
0.802490234375;-0.316650390625;-0.529541015625;-0.35877862595419846;1.9694656488549618;13.709923664122137
0.783203125;-0.315185546875;-0.503173828125;-0.5114503816793893;3.7709923664122136;10.725190839694656
0.778076171875;-0.30859375;-0.507080078125;-1.633587786259542;4.305343511450381;7.404580152671755
0.8212890625;-0.316650390625;-0.542236328125;-1.0305343511450382;6.305343511450381;6.198473282442748
0.829833984375;-0.33349609375;-0.552734375;0.4198473282442748;8.618320610687023;6.00763358778626
0.85400390625;-0.369384765625;-0.602294921875;3.435114503816794;11.870229007633588;7.213740458015267
0.8447265625;-0.389892578125;-0.577880859375;4.7251908396946565;13.297709923664122;7.66412213740458
0.8271484375;-0.420166015625;-0.563720703125;7.923664122137405;17.00763358778626;6.717557251908397
0.805908203125;-0.41845703125;-0.557861328125;9.274809160305344;18.82442748091603;5.0534351145038165
0.790771484375;-0.400146484375;-0.541259765625;9.763358778625955;19.893129770992367;3.687022900763359
0.78955078125;-0.3701171875;-0.536865234375;10.267175572519085;21.198473282442748;2.8473282442748094
0.806640625;-0.35205078125;-0.560546875;10.98473282442748;19.641221374045802;1.5801526717557253
0.803955078125;-0.3466796875;-0.599853515625;14.213740458015268;18.396946564885496;-0.366412213740458
0.823974609375;-0.32177734375;-0.5986328125;10.068702290076336;16.106870229007633;-3.068702290076336
0.84619140625;-0.319091796875;-0.588623046875;7.190839694656488;16.328244274809162;-4.8396946564885495
0.86328125;-0.32275390625;-0.5712890625;2.7938931297709924;15.786259541984732;-5.213740458015267
0.860595703125;-0.352294921875;-0.614013671875;2.3206106870229006;17.091603053435115;-5.366412213740458
0.84033203125;-0.361083984375;-0.584716796875;2.816793893129771;20.549618320610687;-6.793893129770993
0.858154296875;-0.369873046875;-0.605224609375;4.740458015267175;24.427480916030536;-9.679389312977099
0.844482421875;-0.366455078125;-0.60205078125;5.916030534351145;27.702290076335878;-12.534351145038167
0.82080078125;-0.351806640625;-0.546142578125;7.5038167938931295;31.435114503816795;-15.038167938931299
0.810791015625;-0.334716796875;-0.514404296875;7.526717557251908;34.61832061068702;-16.870229007633586
0.7978515625;-0.323974609375;-0.540771484375;8.305343511450381;37.465648854961835;-18.022900763358777
0.788330078125;-0.318115234375;-0.47265625;8.358778625954198;39.38167938931298;-18.16793893129771
0.76416015625;-0.324951171875;-0.459716796875;8.80916030534351;40.786259541984734;-18.610687022900763
0.773193359375;-0.327392578125;-0.435302734375;9.229007633587786;40.93893129770992;-19.213740458015266
0.791015625;-0.3349609375;-0.451171875;9.740458015267176;41.80916030534351;-20.251908396946565
0.798095703125;-0.325439453125;-0.46435546875;9.564885496183207;45.091603053435115;-22.290076335877863
0.841552734375;-0.32666015625;-0.4638671875;9.893129770992367;50.41984732824427;-24.938931297709924
0.873779296875;-0.343994140625;-0.467529296875;10.435114503816793;56.229007633587784;-28.00763358778626
0.884033203125;-0.3544921875;-0.461669921875;10.374045801526718;62.3587786259542;-30.671755725190838
0.886474609375;-0.343994140625;-0.448486328125;10.885496183206106;68.68702290076335;-32.93129770992366
0.8984375;-0.35009765625;-0.457763671875;11.603053435114504;73.2442748091603;-34.93893129770992
0.90869140625;-0.353515625;-0.415771484375;12.854961832061068;78.43511450381679;-36.93129770992366
0.925537109375;-0.35302734375;-0.404541015625;14.374045801526718;82.54198473282443;-38.717557251908396
0.955810546875;-0.331298828125;-0.361083984375;15.618320610687023;86.56488549618321;-39.908396946564885
0.9697265625;-0.314697265625;-0.291259765625;15.954198473282442;91.30534351145039;-42.48854961832061
1.0791015625;-0.339111328125;-0.35205078125;16.763358778625953;100.35114503816794;-46.38167938931298
1.15234375;-0.316650390625;-0.25732421875;13.687022900763358;107.94656488549619;-49.74045801526717
1.29638671875;-0.310302734375;-0.20751953125;8.396946564885496;118.01526717557252;-50.85496183206107
1.411865234375;-0.358642578125;-0.224853515625;4.366412213740458;116.1526717557252;-49.49618320610687
1.515869140625;-0.4267578125;-0.359130859375;7.251908396946565;126.56488549618321;-50.93129770992366
1.47705078125;-0.38330078125;-0.28515625;9.694656488549619;125.56488549618321;-53.778625954198475
1.48876953125;-0.369384765625;-0.15966796875;10.450381679389313;108.32824427480917;-49.05343511450382
1.46630859375;-0.35546875;-0.137939453125;9.061068702290076;91.19083969465649;-41.51145038167939
1.398193359375;-0.33935546875;-0.11962890625;6.32824427480916;74.73282442748092;-36.3587786259542
1.318115234375;-0.25830078125;-0.073486328125;3.114503816793893;63.12977099236641;-33.30534351145038
1.200439453125;-0.167724609375;0.004638671875;-2.8931297709923665;46.274809160305345;-29.893129770992367
1.0595703125;-0.14306640625;0.009765625;-3.1374045801526718;34.51145038167939;-29.015267175572518
1.00244140625;-0.104736328125;0.059326171875;-4.847328244274809;25.801526717557252;-26.65648854961832
0.947509765625;-0.08984375;0.037353515625;-4.900763358778626;23.916030534351144;-24.641221374045802
0.912841796875;-0.0771484375;0.028076171875;-1.7633587786259541;23.46564885496183;-22.732824427480917
0.904296875;-0.070556640625;0.073486328125;1.1450381679389312;24.50381679389313;-21.916030534351144
0.9306640625;-0.1103515625;0.0390625;5.282442748091603;28.6793893129771;-22.87786259541985
0.942138671875;-0.102294921875;0.07373046875;8.297709923664122;34.61832061068702;-25.625954198473284
0.952392578125;-0.087890625;0.087890625;7.801526717557252;38.717557251908396;-27.954198473282442
0.96728515625;-0.06982421875;0.10546875;6.709923664122138;43.969465648854964;-30.33587786259542
0.96044921875;-0.062744140625;0.115234375;6.862595419847328;47.52671755725191;-32.38931297709924
0.979248046875;-0.078857421875;0.127197265625;7.076335877862595;51.31297709923664;-33.87022900763359
0.975341796875;-0.08349609375;0.135498046875;7.022900763358779;53.45038167938932;-34.19083969465649
1.017578125;-0.0830078125;0.12060546875;5.66412213740458;55.282442748091604;-35.2442748091603
1.06396484375;-0.101318359375;0.0888671875;5.374045801526718;56.465648854961835;-35.25190839694657
1.082275390625;-0.12841796875;0.07763671875;6.404580152671755;58.32824427480916;-34.80152671755725
1.0546875;-0.13671875;0.096435546875;7.038167938931298;59.267175572519086;-33.93893129770992
1.059814453125;-0.1376953125;0.12060546875;6.931297709923665;58.49618320610687;-32.50381679389313
1.05029296875;-0.129150390625;0.1328125;5.923664122137405;56.778625954198475;-31.14503816793893
1.053466796875;-0.1181640625;0.13037109375;5.419847328244275;55.29007633587786;-29.885496183206108
1.079345703125;-0.10791015625;0.12255859375;4.969465648854962;52.3206106870229;-28.0
1.0859375;-0.081787109375;0.129150390625;4.99236641221374;49.48091603053435;-25.755725190839694
1.052490234375;-0.08447265625;0.115966796875;4.809160305343512;45.969465648854964;-23.748091603053435
1.0126953125;-0.07373046875;0.1064453125;7.221374045801527;42.94656488549618;-22.31297709923664
1.013427734375;-0.056640625;0.15771484375;6.083969465648855;36.80916030534351;-19.38167938931298
0.9736328125;-0.0576171875;0.15673828125;6.152671755725191;32.465648854961835;-17.923664122137403
0.97021484375;-0.055908203125;0.14892578125;6.0458015267175576;27.954198473282442;-17.18320610687023
1.001953125;-0.035400390625;0.169921875;4.847328244274809;23.083969465648856;-15.465648854961833
1.012939453125;-0.025146484375;0.18359375;5.435114503816794;21.519083969465647;-14.679389312977099
1.01904296875;-0.018798828125;0.16552734375;5.4961832061068705;19.229007633587788;-13.938931297709924
1.0087890625;-0.019775390625;0.173583984375;5.916030534351145;18.267175572519083;-13.335877862595419
1.008544921875;-0.0185546875;0.195068359375;6.702290076335878;18.541984732824428;-14.16793893129771
1.000244140625;-0.010009765625;0.214599609375;6.076335877862595;17.83206106870229;-14.473282442748092
0.957763671875;-0.004638671875;0.22314453125;5.916030534351145;17.282442748091604;-14.198473282442748
0.972412109375;-0.0048828125;0.242919921875;6.129770992366412;15.587786259541986;-12.534351145038167
0.968994140625;0.00048828125;0.256103515625;7.908396946564886;13.290076335877863;-10.099236641221374
0.987060546875;-0.021240234375;0.25439453125;10.122137404580153;12.740458015267176;-7.473282442748092
1.00244140625;-0.02783203125;0.277099609375;11.877862595419847;13.122137404580153;-4.9465648854961835
1.040771484375;-0.01806640625;0.260986328125;12.01526717557252;12.648854961832061;-3.366412213740458
1.049072265625;0.02734375;0.24267578125;10.916030534351146;12.129770992366412;-3.7022900763358777
1.043212890625;0.0830078125;0.21484375;8.351145038167939;12.259541984732824;-4.404580152671755
1.050537109375;0.125;0.21923828125;5.557251908396947;13.534351145038167;-5.145038167938932
1.031982421875;0.14306640625;0.234375;1.2900763358778626;14.786259541984732;-5.7251908396946565
1.00048828125;0.10205078125;0.200439453125;-0.8396946564885496;15.687022900763358;-6.343511450381679
0.972900390625;0.04833984375;0.25146484375;-2.381679389312977;14.961832061068701;-6.0458015267175576
0.95458984375;-0.001953125;0.249267578125;-0.9312977099236641;12.32824427480916;-4.66412213740458
0.978271484375;-0.017822265625;0.246826171875;-0.13740458015267176;9.557251908396946;-3.4656488549618323
0.9931640625;-0.03662109375;0.26953125;0.7099236641221374;8.404580152671755;-2.9923664122137406
0.9931640625;-0.039794921875;0.2587890625;0.9847328244274809;7.1679389312977095;-3.4122137404580153
1.0283203125;-0.025390625;0.25048828125;1.8549618320610688;8.053435114503817;-3.3969465648854964
1.022216796875;-0.017578125;0.238037109375;1.3969465648854962;9.183206106870228;-3.3893129770992365
0.9931640625;-0.0146484375;0.265625;0.1297709923664122;9.923664122137405;-3.3893129770992365
0.98486328125;-0.0078125;0.251708984375;-0.6717557251908397;9.412213740458014;-3.2900763358778624
0.99462890625;-0.0107421875;0.279296875;-2.0229007633587788;7.862595419847328;-2.0839694656488548
1.00146484375;-0.025634765625;0.29248046875;-2.4427480916030535;7.198473282442748;-1.0305343511450382
0.987060546875;-0.047119140625;0.26953125;-1.8549618320610688;6.8320610687022905;-0.4351145038167939
1.001220703125;-0.042236328125;0.27099609375;-1.9618320610687023;6.511450381679389;-0.4732824427480916
1.006103515625;-0.05126953125;0.26123046875;-1.0229007633587786;7.358778625954199;-0.8396946564885496
0.9853515625;-0.038330078125;0.280029296875;-1.0534351145038168;8.229007633587786;-1.3129770992366412
0.976318359375;-0.006103515625;0.27197265625;-1.4045801526717556;8.648854961832061;-2.7786259541984735
0.999755859375;0.015380859375;0.253662109375;-0.9847328244274809;9.816793893129772;-4.183206106870229
0.96728515625;0.021728515625;0.27099609375;0.022900763358778626;9.564885496183207;-5.862595419847328
0.978271484375;0.0126953125;0.254150390625;0.10687022900763359;10.114503816793894;-6.549618320610687
0.978515625;-0.00341796875;0.274658203125;0.48854961832061067;6.9541984732824424;-6.1603053435114505
0.990234375;-0.001220703125;0.26513671875;1.0610687022900764;5.00763358778626;-5.076335877862595
0.984130859375;0.0087890625;0.26953125;1.0534351145038168;4.625954198473282;-4.3893129770992365
1.007080078125;0.010498046875;0.261474609375;0.05343511450381679;4.938931297709924;-4.068702290076335
1.01416015625;0.013916015625;0.275146484375;-0.7251908396946565;5.061068702290076;-3.763358778625954
0.9912109375;0.001708984375;0.28173828125;-1.7251908396946565;3.931297709923664;-3.6946564885496183
0.98876953125;0.003173828125;0.28125;-2.4122137404580153;3.2213740458015265;-4.106870229007634
0.991455078125;0.020751953125;0.30859375;-2.3206106870229006;3.3740458015267176;-4.297709923664122
1.011962890625;0.024169921875;0.26953125;-2.6030534351145036;2.595419847328244;-4.862595419847328
0.99072265625;0.0283203125;0.26904296875;-2.954198473282443;1.916030534351145;-4.770992366412214
0.9912109375;0.01904296875;0.305908203125;-3.1908396946564888;1.0916030534351144;-4.580152671755725
1.00390625;0.01806640625;0.29833984375;-3.648854961832061;0.2900763358778626;-3.5801526717557253
1.010498046875;0.009521484375;0.291015625;-4.419847328244275;-0.2595419847328244;-2.49618320610687
1.015869140625;0.001220703125;0.27294921875;-5.0534351145038165;0.030534351145038167;-1.4580152671755726
1.01123046875;0.017822265625;0.2705078125;-4.572519083969466;0.6641221374045801;-0.7175572519083969
1.005126953125;0.0185546875;0.272216796875;-4.656488549618321;0.2748091603053435;-0.24427480916030533
0.99560546875;0.023193359375;0.27197265625;-4.595419847328245;1.1908396946564885;0.22137404580152673
0.985107421875;0.02685546875;0.2734375;-4.816793893129771;1.2900763358778626;0.22137404580152673
0.99169921875;0.035888671875;0.2841796875;-4.824427480916031;0.8473282442748091;0.0
0.9892578125;0.03857421875;0.272216796875;-5.351145038167939;-0.22137404580152673;-0.2900763358778626
0.981689453125;0.02880859375;0.27392578125;-5.3893129770992365;-0.8549618320610687;-0.6106870229007634
0.98974609375;0.026123046875;0.272216796875;-5.572519083969466;-1.7328244274809161;-0.9389312977099237
1.00537109375;0.022705078125;0.264892578125;-5.358778625954199;-2.2748091603053435;-1.0763358778625953
0.997314453125;0.01904296875;0.2734375;-4.625954198473282;-2.4122137404580153;-0.9694656488549618
0.99609375;0.015625;0.2646484375;-4.244274809160306;-2.7099236641221376;-0.648854961832061
0.99755859375;0.006103515625;0.267822265625;-4.259541984732825;-3.0229007633587788;-0.20610687022900764
1.001220703125;0.00537109375;0.272705078125;-4.290076335877862;-3.2900763358778624;-0.061068702290076333
0.986328125;-0.00537109375;0.265625;-3.7786259541984735;-3.66412213740458;0.4198473282442748
0.9970703125;-0.012451171875;0.267333984375;-3.564885496183206;-4.351145038167939;0.8091603053435115
0.9970703125;0.000732421875;0.276611328125;-3.9618320610687023;-5.404580152671755;1.6564885496183206
0.996826171875;0.000244140625;0.27490234375;-4.374045801526718;-6.221374045801527;2.0763358778625953
0.99169921875;-0.000244140625;0.262939453125;-4.099236641221374;-6.847328244274809;2.8091603053435112
1.0068359375;-0.002197265625;0.26171875;-3.83206106870229;-7.114503816793893;3.030534351145038
1.020263671875;0.001708984375;0.263427734375;-4.0458015267175576;-7.145038167938932;2.969465648854962
1.01513671875;0.0;0.262939453125;-4.511450381679389;-6.648854961832061;2.7480916030534353
1.005126953125;-0.003173828125;0.2548828125;-4.778625954198473;-6.587786259541985;2.6412213740458017
1.01123046875;-0.00146484375;0.254150390625;-4.236641221374046;-6.877862595419847;2.816793893129771
1.009521484375;-0.00927734375;0.25439453125;-3.7709923664122136;-7.038167938931298;3.1908396946564888
0.99755859375;-0.013427734375;0.259033203125;-3.213740458015267;-6.984732824427481;3.1603053435114505
1.00927734375;-0.017822265625;0.25537109375;-2.9083969465648853;-6.297709923664122;2.66412213740458
1.011474609375;-0.017333984375;0.25634765625;-2.5572519083969465;-5.076335877862595;2.213740458015267
0.991455078125;-0.01953125;0.26806640625;-2.3053435114503817;-4.419847328244275;1.7709923664122138
0.99658203125;-0.02197265625;0.267578125;-2.2061068702290076;-3.3969465648854964;1.2366412213740459
1.003662109375;-0.009765625;0.263427734375;-2.1603053435114505;-3.1908396946564888;1.0916030534351144
1.00244140625;-0.0146484375;0.26025390625;-2.5267175572519083;-3.3282442748091605;0.9236641221374046
0.99951171875;-0.012939453125;0.252685546875;-2.6564885496183206;-2.946564885496183;0.8702290076335878
1.007080078125;-0.013671875;0.265625;-2.8702290076335877;-2.717557251908397;1.0534351145038168
1.01904296875;-0.00732421875;0.2529296875;-3.0763358778625953;-2.404580152671756;1.099236641221374
1.0126953125;-0.012939453125;0.24853515625;-2.8702290076335877;-2.3740458015267176;1.3511450381679388
1.002685546875;-0.01611328125;0.246826171875;-2.564885496183206;-2.4198473282442747;1.4045801526717556
1.02099609375;-0.0078125;0.243896484375;-2.2748091603053435;-2.2213740458015265;1.2213740458015268
1.011962890625;-0.008544921875;0.25048828125;-2.183206106870229;-2.572519083969466;1.3511450381679388
1.004638671875;-0.012451171875;0.244873046875;-2.030534351145038;-2.633587786259542;1.4961832061068703
1.01513671875;-0.005615234375;0.239990234375;-2.183206106870229;-2.969465648854962;1.7328244274809161
1.014892578125;-0.001220703125;0.234130859375;-2.3435114503816794;-3.0839694656488548;1.5419847328244274
1.004150390625;-0.00341796875;0.230712890625;-2.50381679389313;-3.1908396946564888;1.2061068702290076
1.003173828125;-0.010986328125;0.22509765625;-2.3282442748091605;-3.0381679389312977;1.1603053435114503
1.01220703125;-0.01318359375;0.231689453125;-1.8396946564885497;-2.969465648854962;0.9312977099236641
1.015380859375;-0.01318359375;0.239501953125;-1.7938931297709924;-2.9083969465648853;0.8396946564885496
1.001220703125;-0.02294921875;0.2333984375;-1.748091603053435;-3.282442748091603;0.9312977099236641
1.005615234375;-0.0185546875;0.236083984375;-1.5114503816793894;-3.030534351145038;1.015267175572519
1.0205078125;-0.01123046875;0.239013671875;-1.0610687022900764;-2.8702290076335877;0.8320610687022901
1.01806640625;-0.014892578125;0.234375;-0.8015267175572519;-2.8396946564885495;0.9923664122137404
1.0078125;-0.021728515625;0.234619140625;-0.816793893129771;-2.6564885496183206;1.1755725190839694
1.018310546875;-0.017578125;0.247314453125;-0.7938931297709924;-2.2519083969465647;1.183206106870229
1.021240234375;-0.01611328125;0.242431640625;-0.916030534351145;-2.068702290076336;1.0687022900763359
1.009765625;-0.017578125;0.236083984375;-1.213740458015267;-1.7557251908396947;0.8091603053435115
1.000732421875;-0.01806640625;0.241943359375;-1.2900763358778626;-1.7404580152671756;0.6717557251908397
1.01611328125;-0.0146484375;0.24462890625;-1.5572519083969465;-1.7557251908396947;0.6793893129770993
1.01171875;-0.0126953125;0.24462890625;-1.8931297709923665;-1.6717557251908397;0.5954198473282443
1.006103515625;-0.013671875;0.246337890625;-1.6717557251908397;-1.8244274809160306;0.46564885496183206
1.018798828125;-0.012939453125;0.235595703125;-1.7557251908396947;-1.5877862595419847;0.3893129770992366
1.018310546875;-0.005126953125;0.244384765625;-1.916030534351145;-1.3893129770992367;0.6183206106870229
1.006103515625;-0.0126953125;0.243896484375;-2.0229007633587788;-1.5038167938931297;0.549618320610687
0.998779296875;-0.0087890625;0.23876953125;-2.030534351145038;-1.4580152671755726;0.5801526717557252
1.0048828125;-0.013427734375;0.238525390625;-2.1374045801526718;-1.6870229007633588;0.5725190839694656
1.00830078125;-0.012451171875;0.2353515625;-2.183206106870229;-1.9694656488549618;0.7709923664122137
1.001220703125;-0.01904296875;0.2333984375;-2.1755725190839694;-2.4122137404580153;0.366412213740458
1.016845703125;-0.010986328125;0.244140625;-2.381679389312977;-2.5267175572519083;0.32061068702290074
1.018310546875;-0.01416015625;0.234375;-2.83206106870229;-2.633587786259542;0.7251908396946565
1.00634765625;-0.011962890625;0.23583984375;-2.9236641221374047;-2.2977099236641223;0.7786259541984732
1.00537109375;-0.021728515625;0.232177734375;-2.572519083969466;-2.732824427480916;0.8473282442748091
1.0185546875;-0.019775390625;0.229248046875;-2.4198473282442747;-3.0610687022900764;0.8778625954198473
1.017578125;-0.0185546875;0.235595703125;-1.984732824427481;-3.1603053435114505;0.8091603053435115
1.009765625;-0.02490234375;0.221435546875;-2.053435114503817;-2.8931297709923665;0.7480916030534351
1.01611328125;-0.018310546875;0.227783203125;-2.0076335877862594;-2.572519083969466;0.7404580152671756
1.02294921875;-0.01708984375;0.22607421875;-1.900763358778626;-2.3893129770992365;0.4580152671755725
1.013916015625;-0.024658203125;0.234619140625;-1.984732824427481;-2.1908396946564888;0.44274809160305345
1.01318359375;-0.02880859375;0.234130859375;-2.267175572519084;-2.1755725190839694;0.366412213740458
1.017578125;-0.022705078125;0.225830078125;-2.045801526717557;-2.435114503816794;0.48854961832061067
1.017578125;-0.026123046875;0.240478515625;-2.2900763358778624;-2.1297709923664123;0.13740458015267176
1.0068359375;-0.0302734375;0.232421875;-2.2900763358778624;-1.7633587786259541;0.0916030534351145
1.009765625;-0.023193359375;0.228759765625;-2.267175572519084;-1.2748091603053435;-0.2366412213740458
1.014892578125;-0.021240234375;0.227783203125;-2.1908396946564888;-0.9541984732824428;-0.5954198473282443
1.018310546875;-0.02685546875;0.230712890625;-2.3435114503816794;-0.7633587786259542;-0.6106870229007634
0.998779296875;-0.0341796875;0.22509765625;-2.282442748091603;-0.8091603053435115;-0.7709923664122137
1.01171875;-0.024658203125;0.235107421875;-2.435114503816794;-0.8854961832061069;-0.8702290076335878
1.0205078125;-0.033447265625;0.233154296875;-2.33587786259542;-0.9007633587786259;-0.8473282442748091
1.00927734375;-0.025634765625;0.22265625;-2.2290076335877864;-0.9694656488549618;-0.7862595419847328
1.009521484375;-0.0244140625;0.227294921875;-2.0076335877862594;-0.7251908396946565;-0.5038167938931297
1.019287109375;-0.015625;0.227783203125;-1.9618320610687023;-0.5572519083969466;-0.6259541984732825
1.015380859375;-0.027587890625;0.21875;-2.1068702290076335;-0.5648854961832062;-0.6717557251908397
1.005859375;-0.021484375;0.22314453125;-2.1374045801526718;-0.6106870229007634;-0.5801526717557252
1.008544921875;-0.0205078125;0.2275390625;-1.9389312977099236;-0.6106870229007634;-0.4580152671755725
1.020751953125;-0.018798828125;0.229736328125;-1.8854961832061068;-0.8625954198473282;-0.31297709923664124
1.014404296875;-0.0244140625;0.222900390625;-1.9541984732824427;-0.7480916030534351;-0.4198473282442748
1.00830078125;-0.028076171875;0.224853515625;-2.015267175572519;-0.9007633587786259;-0.5114503816793893
1.013916015625;-0.018310546875;0.221923828125;-1.7786259541984732;-0.5648854961832062;-0.5114503816793893
1.022705078125;-0.018310546875;0.226806640625;-1.6488549618320612;-0.3511450381679389;-0.9312977099236641
1.010986328125;-0.026611328125;0.22314453125;-1.5572519083969465;-0.37404580152671757;-0.8244274809160306
1.009521484375;-0.01953125;0.226318359375;-1.8549618320610688;-0.15267175572519084;-0.7786259541984732
1.01513671875;-0.01806640625;0.22412109375;-1.816793893129771;-0.10687022900763359;-0.7251908396946565
1.012939453125;-0.019775390625;0.228271484375;-1.8702290076335877;-0.19083969465648856;-0.648854961832061
1.004150390625;-0.031005859375;0.220458984375;-1.702290076335878;-0.11450381679389313;-0.6412213740458015
1.0166015625;-0.021728515625;0.228515625;-1.7099236641221374;-0.061068702290076333;-0.7480916030534351
1.01904296875;-0.0244140625;0.227783203125;-1.7251908396946565;-0.2366412213740458;-0.7480916030534351
1.011962890625;-0.024169921875;0.222412109375;-1.8015267175572518;-0.16793893129770993;-0.8091603053435115
1.008056640625;-0.02734375;0.23095703125;-2.099236641221374;0.06870229007633588;-0.7480916030534351
1.011962890625;-0.02197265625;0.24072265625;-2.183206106870229;0.10687022900763359;-0.6870229007633588
1.010986328125;-0.025634765625;0.22705078125;-2.0076335877862594;0.183206106870229;-0.8015267175572519
1.00927734375;-0.0263671875;0.227783203125;-1.9694656488549618;-0.06870229007633588;-0.6641221374045801
1.014404296875;-0.027587890625;0.216064453125;-1.8091603053435115;-0.183206106870229;-0.4961832061068702
1.025146484375;-0.0224609375;0.229248046875;-1.4885496183206106;-0.08396946564885496;-0.5114503816793893
1.0166015625;-0.0283203125;0.223876953125;-1.2748091603053435;-0.17557251908396945;-0.48854961832061067
1.01904296875;-0.021728515625;0.23291015625;-1.4198473282442747;0.20610687022900764;-0.7251908396946565
1.01904296875;-0.013916015625;0.22509765625;-1.6030534351145038;0.1297709923664122;-0.8931297709923665
1.009521484375;-0.01416015625;0.228759765625;-1.8625954198473282;0.21374045801526717;-0.8244274809160306
1.00341796875;-0.02197265625;0.2392578125;-1.9694656488549618;-0.05343511450381679;-1.0076335877862594
1.01220703125;-0.01708984375;0.2177734375;-1.9541984732824427;-0.17557251908396945;-0.9923664122137404
1.017578125;-0.018310546875;0.233642578125;-1.900763358778626;-0.1984732824427481;-1.1374045801526718
1.0029296875;-0.02197265625;0.23046875;-2.0610687022900764;-0.1984732824427481;-0.9465648854961832
1.0087890625;-0.014892578125;0.227783203125;-2.2213740458015265;-0.10687022900763359;-0.7175572519083969
1.0146484375;-0.01513671875;0.238037109375;-1.8854961832061068;0.05343511450381679;-0.7175572519083969
1.020263671875;-0.0244140625;0.226806640625;-1.9694656488549618;0.16030534351145037;-0.6717557251908397
1.008056640625;-0.022705078125;0.22509765625;-1.9312977099236641;-0.05343511450381679;-0.7862595419847328
1.003173828125;-0.016357421875;0.2255859375;-1.916030534351145;0.12213740458015267;-0.816793893129771
1.029541015625;-0.017578125;0.226318359375;-2.015267175572519;0.11450381679389313;-0.7633587786259542
1.016357421875;-0.022216796875;0.2197265625;-2.1755725190839694;0.3282442748091603;-0.9389312977099237
1.007568359375;-0.0244140625;0.232177734375;-2.2748091603053435;0.4198473282442748;-1.1145038167938932
1.01611328125;-0.018798828125;0.236572265625;-2.2290076335877864;0.6183206106870229;-1.3740458015267176
1.02392578125;-0.01416015625;0.22998046875;-2.33587786259542;0.5267175572519084;-1.3969465648854962
1.0107421875;-0.023193359375;0.232666015625;-2.3740458015267176;0.11450381679389313;-1.1450381679389312
1.011474609375;-0.020751953125;0.217529296875;-2.480916030534351;0.1450381679389313;-1.0916030534351144
1.02197265625;-0.02587890625;0.233154296875;-2.3893129770992365;0.44274809160305345;-0.9541984732824428
1.014404296875;-0.02490234375;0.23388671875;-2.2442748091603053;0.5190839694656488;-1.0916030534351144
1.00537109375;-0.02490234375;0.230224609375;-2.1526717557251906;0.8015267175572519;-1.3358778625954197
1.004638671875;-0.018310546875;0.23583984375;-2.3587786259541983;0.5572519083969466;-1.3435114503816794
1.012451171875;-0.015869140625;0.23583984375;-2.3435114503816794;0.31297709923664124;-1.1755725190839694
1.004150390625;-0.02099609375;0.2314453125;-2.519083969465649;0.061068702290076333;-1.1297709923664123
1.001708984375;-0.021728515625;0.239501953125;-2.2213740458015265;0.20610687022900764;-1.213740458015267
1.015380859375;-0.0205078125;0.235595703125;-2.2595419847328246;0.10687022900763359;-1.1603053435114503
1.01611328125;-0.020263671875;0.234130859375;-2.122137404580153;0.015267175572519083;-1.1908396946564885
0.9970703125;-0.02734375;0.22998046875;-1.8702290076335877;-0.13740458015267176;-1.1297709923664123
1.003662109375;-0.01953125;0.22705078125;-1.7251908396946565;-0.1984732824427481;-1.16793893129771
1.017333984375;-0.019287109375;0.232421875;-1.7557251908396947;-0.13740458015267176;-1.0381679389312977
1.01806640625;-0.0185546875;0.236328125;-1.5648854961832062;-0.26717557251908397;-1.0381679389312977
1.005126953125;-0.023681640625;0.229736328125;-1.549618320610687;-0.44274809160305345;-1.0305343511450382
1.01220703125;-0.01513671875;0.2236328125;-1.6793893129770991;-0.5267175572519084;-0.9236641221374046
1.0166015625;-0.02099609375;0.22265625;-1.4885496183206106;-0.8244274809160306;-0.8320610687022901
1.0048828125;-0.02197265625;0.228515625;-1.702290076335878;-0.5572519083969466;-0.816793893129771
1.01220703125;-0.015625;0.23095703125;-1.900763358778626;-0.5725190839694656;-0.6106870229007634
1.0244140625;-0.019287109375;0.235107421875;-1.8854961832061068;-0.21374045801526717;-0.7557251908396947
1.004638671875;-0.026123046875;0.235107421875;-2.015267175572519;-0.3816793893129771;-0.8320610687022901
1.009033203125;-0.0224609375;0.239501953125;-2.0610687022900764;-0.4351145038167939;-0.8702290076335878
1.025390625;-0.013916015625;0.22900390625;-2.099236641221374;-0.5572519083969466;-0.9694656488549618
1.009033203125;-0.021728515625;0.23681640625;-2.015267175572519;-0.5572519083969466;-0.9694656488549618
1.0048828125;-0.024169921875;0.23828125;-2.0381679389312977;-0.5572519083969466;-1.0
1.00830078125;-0.014892578125;0.22998046875;-1.9923664122137406;-0.5038167938931297;-0.8778625954198473
1.015869140625;-0.0185546875;0.239990234375;-1.916030534351145;-0.732824427480916;-0.8244274809160306
1.012939453125;-0.0166015625;0.22265625;-1.8244274809160306;-0.7175572519083969;-1.015267175572519
1.01025390625;-0.0205078125;0.228515625;-1.9694656488549618;-0.5114503816793893;-0.9541984732824428
1.012451171875;-0.017822265625;0.23095703125;-1.984732824427481;-0.4732824427480916;-0.9541984732824428
1.00732421875;-0.019775390625;0.230224609375;-1.984732824427481;-0.32061068702290074;-1.1145038167938932
1.0029296875;-0.0244140625;0.2255859375;-2.1297709923664123;-0.48091603053435117;-1.0763358778625953
1.00830078125;-0.021728515625;0.234130859375;-2.114503816793893;-0.37404580152671757;-1.0458015267175573
1.015380859375;-0.01904296875;0.237060546875;-1.9312977099236641;-0.32061068702290074;-0.8320610687022901
1.01025390625;-0.01806640625;0.2314453125;-1.8473282442748091;-0.1450381679389313;-0.9847328244274809
1.00341796875;-0.025146484375;0.23193359375;-1.916030534351145;-0.22900763358778625;-0.9694656488549618
1.009033203125;-0.017822265625;0.2275390625;-1.9694656488549618;-0.366412213740458;-0.9770992366412213
1.0146484375;-0.0224609375;0.234130859375;-2.0229007633587788;-0.6106870229007634;-1.2671755725190839
1.0029296875;-0.022705078125;0.234375;-1.9541984732824427;-0.7099236641221374;-1.0229007633587786
1.006591796875;-0.023193359375;0.23291015625;-1.9312977099236641;-0.8549618320610687;-0.9770992366412213
1.0185546875;-0.01806640625;0.22802734375;-1.7404580152671756;-0.4961832061068702;-1.0916030534351144
1.012939453125;-0.018798828125;0.224853515625;-1.816793893129771;-0.6564885496183206;-1.099236641221374
1.00830078125;-0.01806640625;0.227294921875;-1.8091603053435115;-0.4122137404580153;-0.9770992366412213
1.011962890625;-0.022705078125;0.2265625;-1.9236641221374047;-0.5114503816793893;-0.9847328244274809
1.02001953125;-0.01025390625;0.227294921875;-1.816793893129771;-0.3969465648854962;-0.8625954198473282
1.0078125;-0.0234375;0.217041015625;-1.7251908396946565;-0.366412213740458;-0.9770992366412213
1.00390625;-0.0146484375;0.2294921875;-1.7709923664122138;-0.35877862595419846;-0.8702290076335878
1.017822265625;-0.013671875;0.227783203125;-2.0381679389312977;-0.366412213740458;-1.0076335877862594
1.017333984375;-0.026123046875;0.2265625;-2.0763358778625953;-0.2824427480916031;-1.015267175572519
1.01171875;-0.01953125;0.2314453125;-1.8473282442748091;-0.37404580152671757;-1.3511450381679388
1.021240234375;-0.0205078125;0.210205078125;-2.122137404580153;-0.4351145038167939;-1.16793893129771
1.020751953125;-0.015869140625;0.2294921875;-2.0763358778625953;-0.42748091603053434;-1.0687022900763359
1.01904296875;-0.02099609375;0.231201171875;-2.1068702290076335;-0.20610687022900764;-0.8015267175572519
1.011962890625;-0.02099609375;0.23046875;-2.114503816793893;-0.3053435114503817;-0.9694656488549618
1.01220703125;-0.01708984375;0.22998046875;-2.16793893129771;0.17557251908396945;-1.0763358778625953
1.01416015625;-0.010498046875;0.233154296875;-1.8931297709923665;0.1297709923664122;-1.0687022900763359
1.00732421875;-0.02490234375;0.23291015625;-1.9694656488549618;0.3893129770992366;-1.183206106870229
1.004638671875;-0.01904296875;0.23779296875;-2.198473282442748;0.022900763358778626;-0.9694656488549618
1.01708984375;-0.0166015625;0.239013671875;-2.3282442748091605;0.1984732824427481;-0.8702290076335878
1.00537109375;-0.01806640625;0.2275390625;-2.2977099236641223;0.183206106870229;-0.816793893129771
1.004150390625;-0.02392578125;0.229736328125;-2.282442748091603;0.16793893129770993;-0.9389312977099237
1.02099609375;-0.015869140625;0.22607421875;-2.381679389312977;-0.030534351145038167;-1.0305343511450382
1.011474609375;-0.018798828125;0.23095703125;-2.381679389312977;0.0916030534351145;-1.3206106870229009
1.0029296875;-0.0185546875;0.2353515625;-2.435114503816794;0.15267175572519084;-1.3206106870229009
1.00439453125;-0.023193359375;0.222412109375;-2.2977099236641223;0.31297709923664124;-1.1450381679389312
1.015869140625;-0.01904296875;0.222900390625;-2.198473282442748;0.19083969465648856;-1.1603053435114503
1.01416015625;-0.015869140625;0.2275390625;-2.1068702290076335;0.3053435114503817;-1.0305343511450382
1.003662109375;-0.019287109375;0.23046875;-2.0381679389312977;0.26717557251908397;-0.9847328244274809
1.010009765625;-0.011962890625;0.22607421875;-2.030534351145038;0.4122137404580153;-0.9083969465648855
1.017333984375;-0.01220703125;0.227783203125;-2.0381679389312977;0.31297709923664124;-0.8549618320610687
1.0087890625;-0.02197265625;0.23193359375;-2.0839694656488548;0.19083969465648856;-0.9007633587786259
1.0107421875;-0.014892578125;0.23876953125;-2.0916030534351147;0.061068702290076333;-0.9465648854961832
1.021728515625;-0.015869140625;0.234375;-2.2748091603053435;0.35877862595419846;-1.0305343511450382
1.011962890625;-0.0146484375;0.2333984375;-2.282442748091603;0.5114503816793893;-0.9389312977099237
1.00390625;-0.016357421875;0.235107421875;-2.2519083969465647;0.46564885496183206;-1.0305343511450382
1.009521484375;-0.0146484375;0.228759765625;-2.0839694656488548;0.366412213740458;-1.0
1.02099609375;-0.012451171875;0.231201171875;-2.1908396946564888;0.48854961832061067;-0.9770992366412213
1.010986328125;-0.015380859375;0.239013671875;-1.9923664122137406;0.37404580152671757;-0.7862595419847328
1.008544921875;-0.01708984375;0.23193359375;-2.1068702290076335;0.5419847328244275;-0.6793893129770993
1.021728515625;-0.019287109375;0.232666015625;-1.8778625954198473;0.7709923664122137;-0.5648854961832062
1.018310546875;-0.01708984375;0.228759765625;-2.16793893129771;0.8396946564885496;-0.40458015267175573
1.00732421875;-0.025634765625;0.230224609375;-1.9618320610687023;0.9312977099236641;-0.732824427480916
1.009521484375;-0.027099609375;0.239990234375;-2.0;1.099236641221374;-0.6946564885496184
1.016845703125;-0.024658203125;0.23193359375;-2.015267175572519;1.183206106870229;-1.0687022900763359
1.01318359375;-0.019775390625;0.23681640625;-2.0610687022900764;1.1297709923664123;-1.0305343511450382
1.004638671875;-0.017578125;0.23095703125;-2.114503816793893;1.0458015267175573;-0.9923664122137404
1.011962890625;-0.0126953125;0.228515625;-1.8931297709923665;1.2290076335877862;-0.8320610687022901
1.014892578125;-0.013427734375;0.234130859375;-2.0381679389312977;0.9465648854961832;-0.8473282442748091
1.003173828125;-0.014404296875;0.231689453125;-2.0610687022900764;0.7633587786259542;-0.8320610687022901
1.005859375;-0.017578125;0.237060546875;-2.099236641221374;0.549618320610687;-1.015267175572519
1.0166015625;-0.019775390625;0.231201171875;-1.9465648854961832;0.4961832061068702;-0.9007633587786259
1.01513671875;-0.0244140625;0.24365234375;-1.9618320610687023;0.6335877862595419;-1.213740458015267
1.004150390625;-0.03076171875;0.24267578125;-2.16793893129771;0.5572519083969466;-1.1297709923664123
1.008056640625;-0.018798828125;0.23681640625;-2.3053435114503817;0.45038167938931295;-1.2748091603053435
1.02001953125;-0.019287109375;0.23779296875;-2.4656488549618323;0.7404580152671756;-1.015267175572519
1.015869140625;-0.023193359375;0.223876953125;-2.4122137404580153;1.1374045801526718;-0.9847328244274809
1.0078125;-0.02197265625;0.231689453125;-2.312977099236641;1.6793893129770991;-1.0534351145038168
1.009521484375;-0.01611328125;0.236572265625;-2.519083969465649;1.5038167938931297;-1.0687022900763359
1.01611328125;-0.014404296875;0.23583984375;-2.7557251908396947;2.0839694656488548;-1.1603053435114503
1.00390625;-0.0087890625;0.23583984375;-2.9618320610687023;2.1374045801526718;-1.2213740458015268
1.01708984375;-0.012451171875;0.23681640625;-2.732824427480916;2.213740458015267;-1.5190839694656488
1.011474609375;-0.011962890625;0.246337890625;-2.381679389312977;1.7328244274809161;-1.6564885496183206
1.006591796875;-0.00732421875;0.242919921875;-2.1297709923664123;1.1068702290076335;-1.450381679389313
1.006591796875;-0.00537109375;0.2314453125;-1.9312977099236641;0.648854961832061;-1.1984732824427482
1.015380859375;-0.01025390625;0.232666015625;-1.9236641221374047;0.4198473282442748;-0.916030534351145
1.01171875;-0.012451171875;0.238525390625;-2.015267175572519;0.7557251908396947;-1.1526717557251909
1.0048828125;-0.015869140625;0.238037109375;-2.2213740458015265;1.0458015267175573;-1.381679389312977
1.011474609375;-0.01953125;0.238525390625;-2.5801526717557253;1.2671755725190839;-1.3206106870229009
1.01220703125;-0.019775390625;0.232177734375;-3.0763358778625953;1.4045801526717556;-1.3129770992366412
1.007568359375;-0.02197265625;0.237548828125;-2.66412213740458;1.8702290076335877;-1.0458015267175573
0.997802734375;-0.02197265625;0.246826171875;-2.83206106870229;1.6717557251908397;-1.1450381679389312
1.016357421875;-0.01708984375;0.25146484375;-2.885496183206107;1.8702290076335877;-1.1297709923664123
1.01953125;-0.015380859375;0.24658203125;-2.9923664122137406;2.114503816793893;-0.9312977099236641
1.003662109375;-0.0205078125;0.239990234375;-3.1526717557251906;2.053435114503817;-0.9541984732824428
1.006103515625;-0.021240234375;0.23828125;-2.763358778625954;2.16793893129771;-0.8396946564885496
1.008544921875;-0.012451171875;0.239501953125;-2.5343511450381677;1.8931297709923665;-0.7786259541984732
1.001953125;-0.018310546875;0.23974609375;-1.9770992366412214;1.6564885496183206;-0.6412213740458015
0.99951171875;-0.022705078125;0.2490234375;-1.9618320610687023;1.2290076335877862;-0.549618320610687
1.007080078125;-0.017822265625;0.241943359375;-1.9236641221374047;1.1450381679389312;-0.44274809160305345
1.01513671875;-0.0205078125;0.236083984375;-1.916030534351145;1.0305343511450382;-0.7251908396946565
1.0009765625;-0.025390625;0.2451171875;-2.030534351145038;1.0534351145038168;-0.8549618320610687
0.995361328125;-0.0224609375;0.2431640625;-1.9694656488549618;0.7938931297709924;-0.8854961832061069
1.01123046875;-0.0146484375;0.242919921875;-2.015267175572519;0.6793893129770993;-0.8854961832061069
1.009521484375;-0.0166015625;0.239013671875;-1.8015267175572518;0.45038167938931295;-1.0687022900763359
0.998291015625;-0.021240234375;0.240478515625;-2.0076335877862594;0.26717557251908397;-1.0229007633587786
1.00341796875;-0.013427734375;0.251953125;-2.2900763358778624;0.21374045801526717;-1.2366412213740459
1.00634765625;-0.0146484375;0.255615234375;-2.6793893129770994;-0.05343511450381679;-1.0
1.0048828125;-0.020751953125;0.250244140625;-2.885496183206107;-0.015267175572519083;-1.0916030534351144
1.001708984375;-0.01708984375;0.2451171875;-2.931297709923664;0.061068702290076333;-1.1450381679389312
1.013671875;-0.0107421875;0.25390625;-2.9160305343511452;0.0;-1.2366412213740459
1.014404296875;-0.012939453125;0.248046875;-2.9770992366412212;-0.2748091603053435;-1.282442748091603
0.998291015625;-0.008544921875;0.248779296875;-2.7480916030534353;-0.6717557251908397;-1.3511450381679388
1.00634765625;-0.011962890625;0.24365234375;-2.816793893129771;-0.8015267175572519;-1.1755725190839694
1.01220703125;-0.00927734375;0.240478515625;-2.7022900763358777;-0.8549618320610687;-1.4809160305343512
1.0029296875;-0.013916015625;0.247314453125;-2.7480916030534353;-0.42748091603053434;-1.297709923664122
0.998779296875;-0.01220703125;0.242919921875;-2.946564885496183;-0.5419847328244275;-1.3511450381679388
1.011474609375;-0.0107421875;0.248291015625;-3.2519083969465647;-0.4580152671755725;-1.3358778625954197
1.0185546875;-0.014892578125;0.25244140625;-3.1374045801526718;-0.7251908396946565;-1.297709923664122
1.007568359375;-0.020751953125;0.24462890625;-2.854961832061069;-1.251908396946565;-1.0458015267175573
1.010009765625;-0.014892578125;0.2431640625;-2.427480916030534;-1.251908396946565;-0.6870229007633588
1.0244140625;-0.0205078125;0.229736328125;-2.114503816793893;-1.2290076335877862;-0.7022900763358778
1.00146484375;-0.024169921875;0.22509765625;-2.2290076335877864;-0.4580152671755725;-0.7557251908396947
1.009521484375;-0.019775390625;0.2275390625;-2.4427480916030535;-0.20610687022900764;-1.0076335877862594
1.010498046875;-0.02294921875;0.234619140625;-2.351145038167939;-0.07633587786259542;-0.7175572519083969
0.995361328125;-0.024658203125;0.2451171875;-2.122137404580153;-0.7633587786259542;-0.8625954198473282
1.0068359375;-0.0302734375;0.243408203125;-1.9236641221374047;-0.5114503816793893;-0.6564885496183206
1.006103515625;-0.026611328125;0.247802734375;-1.9541984732824427;-0.8778625954198473;-0.8396946564885496
1.020263671875;-0.020263671875;0.22802734375;-1.7404580152671756;-0.10687022900763359;-1.3969465648854962
1.003173828125;-0.022705078125;0.257568359375;-1.83206106870229;-0.015267175572519083;-1.4732824427480915
1.008056640625;-0.02294921875;0.2412109375;-2.1297709923664123;0.6335877862595419;-1.6106870229007633
1.005126953125;-0.017333984375;0.262939453125;-2.0763358778625953;0.4198473282442748;-1.3893129770992367
1.009521484375;-0.021240234375;0.255859375;-2.099236641221374;-0.2748091603053435;-1.251908396946565
0.996826171875;-0.0224609375;0.2578125;-1.618320610687023;-0.24427480916030533;-0.8778625954198473
0.997314453125;-0.029052734375;0.24462890625;-0.9923664122137404;-0.6259541984732825;-1.0076335877862594
1.019287109375;-0.021240234375;0.249267578125;-0.9312977099236641;-0.061068702290076333;-0.8015267175572519
1.01953125;-0.0126953125;0.248779296875;-1.3740458015267176;0.6946564885496184;-0.6793893129770993
0.994384765625;-0.0107421875;0.25634765625;-1.702290076335878;0.732824427480916;-0.7557251908396947
1.00537109375;0.00048828125;0.2548828125;-1.7328244274809161;0.24427480916030533;-0.7022900763358778
1.01123046875;0.000732421875;0.247314453125;-1.4961832061068703;-0.061068702290076333;-0.7099236641221374
1.000244140625;-0.002685546875;0.24755859375;-1.6030534351145038;-0.3053435114503817;-0.6183206106870229
0.98974609375;-0.005126953125;0.249755859375;-1.0916030534351144;-0.5801526717557252;-0.6335877862595419
1.010009765625;-0.001708984375;0.251220703125;-1.0687022900763359;-0.31297709923664124;-0.7938931297709924
1.015625;-0.0078125;0.241943359375;-1.1374045801526718;0.19083969465648856;-0.8931297709923665
0.990234375;-0.00634765625;0.241943359375;-1.213740458015267;0.20610687022900764;-1.1984732824427482
1.00341796875;-0.007568359375;0.25732421875;-1.366412213740458;-0.3435114503816794;-0.7633587786259542
1.00830078125;-0.004638671875;0.259521484375;-1.4351145038167938;-0.5267175572519084;-0.7480916030534351
1.009521484375;-0.01416015625;0.244140625;-1.7633587786259541;-0.3435114503816794;-0.4580152671755725
1.008056640625;-0.014404296875;0.247314453125;-1.5572519083969465;-0.1984732824427481;-0.732824427480916
1.004150390625;-0.0126953125;0.2509765625;-1.9465648854961832;-0.11450381679389313;-0.8244274809160306
1.010009765625;-0.012451171875;0.24365234375;-1.984732824427481;-0.16030534351145037;-0.916030534351145
1.003662109375;-0.009521484375;0.24267578125;-1.9923664122137406;-0.6106870229007634;-1.1145038167938932
1.002197265625;-0.024658203125;0.2451171875;-2.2977099236641223;-0.5419847328244275;-0.9770992366412213
1.019775390625;-0.011474609375;0.24658203125;-2.068702290076336;-0.6793893129770993;-0.8854961832061069
1.017578125;-0.013671875;0.23876953125;-2.0229007633587788;-0.44274809160305345;-0.9770992366412213
1.008544921875;-0.01708984375;0.238525390625;-2.0381679389312977;-0.16793893129770993;-1.0687022900763359
1.00830078125;-0.0087890625;0.242431640625;-2.068702290076336;-0.16030534351145037;-1.1526717557251909
1.013671875;-0.006591796875;0.248291015625;-2.2595419847328246;-0.16030534351145037;-1.1297709923664123
1.012939453125;-0.00830078125;0.24658203125;-2.5114503816793894;-0.21374045801526717;-1.0458015267175573
0.99755859375;-0.0146484375;0.25048828125;-2.427480916030534;-0.183206106870229;-1.015267175572519
1.017333984375;-0.002685546875;0.240478515625;-2.3053435114503817;-0.17557251908396945;-0.816793893129771
1.00244140625;-0.00146484375;0.242431640625;-2.3206106870229006;-0.35877862595419846;-0.8625954198473282
1.001220703125;-0.01318359375;0.254638671875;-2.312977099236641;-0.37404580152671757;-0.9541984732824428
1.009033203125;-0.001953125;0.258056640625;-2.2748091603053435;-0.3816793893129771;-0.7938931297709924
1.0078125;-0.018310546875;0.251708984375;-2.2442748091603053;-0.3969465648854962;-1.0229007633587786
1.000244140625;-0.01513671875;0.25;-2.0381679389312977;-0.8854961832061069;-0.7175572519083969
1.001220703125;-0.01171875;0.256591796875;-2.198473282442748;-1.1908396946564885;-0.6335877862595419
1.01318359375;-0.0107421875;0.255615234375;-1.9389312977099236;-0.9541984732824428;-0.48854961832061067
1.007080078125;-0.02001953125;0.256591796875;-1.8854961832061068;-1.1374045801526718;-0.09923664122137404
1.001708984375;-0.02099609375;0.25927734375;-1.9312977099236641;-0.9007633587786259;-0.16793893129770993
1.006103515625;-0.01904296875;0.243896484375;-1.9618320610687023;-0.7251908396946565;-0.16030534351145037
1.0107421875;-0.007568359375;0.240966796875;-2.1297709923664123;-0.5114503816793893;-0.13740458015267176
1.005615234375;-0.017333984375;0.2431640625;-2.1068702290076335;-0.5419847328244275;-0.1984732824427481
1.000732421875;-0.021240234375;0.240234375;-2.030534351145038;-0.5343511450381679;-0.1297709923664122
1.0107421875;-0.013916015625;0.238525390625;-1.8778625954198473;-0.5954198473282443;-0.1984732824427481
1.01123046875;-0.01611328125;0.242431640625;-1.916030534351145;-0.366412213740458;-0.29770992366412213
1.00244140625;-0.021484375;0.232421875;-1.748091603053435;-0.061068702290076333;-0.40458015267175573
1.009033203125;-0.013916015625;0.22607421875;-1.900763358778626;-0.007633587786259542;-0.3435114503816794
1.010986328125;-0.008544921875;0.238525390625;-1.9694656488549618;-0.03816793893129771;-0.24427480916030533
1.00537109375;-0.016357421875;0.237060546875;-1.9541984732824427;-0.3816793893129771;-0.19083969465648856
0.99853515625;-0.015625;0.2451171875;-1.9312977099236641;-0.061068702290076333;-0.3816793893129771
1.010986328125;-0.010986328125;0.24609375;-1.5954198473282444;-0.1984732824427481;-0.3053435114503817
1.016357421875;-0.013427734375;0.239013671875;-1.6717557251908397;-0.33587786259541985;-0.5648854961832062
1.004150390625;-0.013916015625;0.239501953125;-1.6717557251908397;-0.33587786259541985;-0.5114503816793893
0.998291015625;-0.015380859375;0.245361328125;-1.6106870229007633;-0.6335877862595419;-0.6641221374045801
1.01318359375;-0.01318359375;0.244873046875;-1.4045801526717556;-0.3816793893129771;-0.5419847328244275
1.0068359375;-0.015625;0.239501953125;-1.5572519083969465;-0.16793893129770993;-0.5648854961832062
1.00244140625;-0.01611328125;0.249267578125;-1.7557251908396947;-0.1984732824427481;-0.6564885496183206
1.0068359375;-0.0166015625;0.249267578125;-2.030534351145038;-0.030534351145038167;-0.816793893129771
1.02197265625;-0.01416015625;0.248291015625;-2.404580152671756;0.2824427480916031;-0.9465648854961832
1.008544921875;-0.018310546875;0.24853515625;-2.816793893129771;0.7786259541984732;-1.0076335877862594
1.001953125;-0.013916015625;0.249755859375;-2.7557251908396947;0.4351145038167939;-0.916030534351145
1.01171875;-0.018310546875;0.259033203125;-2.801526717557252;0.22137404580152673;-0.6717557251908397
1.01806640625;-0.010009765625;0.26123046875;-2.6793893129770994;-0.10687022900763359;-0.5190839694656488
1.003662109375;-0.0166015625;0.245849609375;-2.2900763358778624;-0.6183206106870229;-0.20610687022900764
1.0048828125;-0.015625;0.2412109375;-2.2900763358778624;-0.6793893129770993;-0.17557251908396945
1.01708984375;-0.0146484375;0.254150390625;-2.2977099236641223;-0.3816793893129771;-0.31297709923664124
1.0087890625;-0.01708984375;0.25732421875;-2.5114503816793894;0.16030534351145037;-0.29770992366412213
0.9951171875;-0.011962890625;0.25927734375;-2.519083969465649;-0.007633587786259542;-0.17557251908396945
1.008544921875;-0.010009765625;0.243896484375;-2.3740458015267176;-0.19083969465648856;-0.4732824427480916
1.008056640625;-0.01123046875;0.24560546875;-2.198473282442748;-0.6564885496183206;-0.20610687022900764
1.000244140625;-0.011474609375;0.232421875;-2.0;-0.9007633587786259;-0.32061068702290074
1.01171875;-0.014892578125;0.239990234375;-1.7786259541984732;-0.7709923664122137;-0.40458015267175573
1.010986328125;-0.00830078125;0.248291015625;-1.8854961832061068;-0.6946564885496184;-0.2595419847328244
1.0087890625;-0.020263671875;0.25;-2.351145038167939;-0.4351145038167939;-0.3053435114503817
1.00830078125;-0.02001953125;0.250244140625;-2.427480916030534;0.061068702290076333;-0.5190839694656488
1.01904296875;-0.021484375;0.24755859375;-2.5419847328244276;-0.25190839694656486;-0.549618320610687
1.017578125;-0.016845703125;0.23828125;-2.648854961832061;-0.3969465648854962;-0.6412213740458015
0.998046875;-0.0166015625;0.243896484375;-2.4885496183206106;-0.6793893129770993;-0.4351145038167939
1.006591796875;-0.01220703125;0.23876953125;-2.351145038167939;-0.6793893129770993;-0.32061068702290074
1.013671875;-0.015869140625;0.245361328125;-2.2213740458015265;-0.6183206106870229;-0.20610687022900764
1.00537109375;-0.014404296875;0.247802734375;-2.1526717557251906;-0.6641221374045801;0.007633587786259542
0.998291015625;-0.013671875;0.237060546875;-2.0;-0.732824427480916;0.1450381679389313
1.012939453125;-0.016845703125;0.235595703125;-1.633587786259542;-1.2061068702290076;0.31297709923664124
1.011962890625;-0.012451171875;0.236328125;-1.6106870229007633;-1.2595419847328244;0.015267175572519083
1.005859375;-0.01806640625;0.22265625;-1.8854961832061068;-1.5114503816793894;0.0
1.00146484375;-0.013916015625;0.23974609375;-2.0229007633587788;-1.1526717557251909;-0.2595419847328244
1.008544921875;-0.018310546875;0.238525390625;-2.2748091603053435;-0.6641221374045801;-0.6793893129770993
1.009033203125;-0.02783203125;0.237548828125;-2.427480916030534;-0.21374045801526717;-0.48091603053435117
1.004638671875;-0.02392578125;0.236083984375;-2.6564885496183206;-0.007633587786259542;-0.5343511450381679
1.0126953125;-0.016357421875;0.243408203125;-2.8473282442748094;0.1297709923664122;-0.5954198473282443
1.01171875;-0.022216796875;0.2431640625;-2.8931297709923665;-0.20610687022900764;-0.9923664122137404
1.00390625;-0.02490234375;0.240966796875;-2.7938931297709924;-0.5267175572519084;-0.916030534351145
1.0029296875;-0.021728515625;0.23486328125;-2.6412213740458017;-0.6793893129770993;-0.8931297709923665
1.017578125;-0.01708984375;0.2373046875;-2.33587786259542;-0.4122137404580153;-0.9236641221374046
1.011962890625;-0.019775390625;0.2431640625;-2.2442748091603053;-0.4198473282442748;-0.8702290076335878
1.0009765625;-0.028564453125;0.248779296875;-2.1297709923664123;-0.8091603053435115;-0.8778625954198473
1.00830078125;-0.033447265625;0.25244140625;-2.045801526717557;-0.7175572519083969;-0.8931297709923665
1.0146484375;-0.033447265625;0.2421875;-2.0229007633587788;-0.6870229007633588;-0.8549618320610687
0.99560546875;-0.041015625;0.247802734375;-2.114503816793893;-1.0;-1.0305343511450382
0.993408203125;-0.034912109375;0.24755859375;-1.816793893129771;-1.4045801526717556;-0.8396946564885496
1.004150390625;-0.05859375;0.17236328125;-1.3511450381679388;-2.427480916030534;-0.6793893129770993
1.026611328125;-0.014404296875;0.239990234375;-1.9541984732824427;-1.7709923664122138;-0.11450381679389313
1.0126953125;-0.014404296875;0.2451171875;-1.4351145038167938;-1.4122137404580153;-0.10687022900763359
1.00830078125;-0.009521484375;0.247802734375;-1.4122137404580153;-0.7709923664122137;-0.25190839694656486
1.016357421875;-0.000732421875;0.243896484375;-1.2061068702290076;-0.4122137404580153;-0.42748091603053434
1.013916015625;-0.0009765625;0.239990234375;-1.1908396946564885;-0.25190839694656486;-0.37404580152671757
1.00439453125;-0.0009765625;0.245361328125;-1.251908396946565;-0.648854961832061;-0.48854961832061067
1.011962890625;-0.002197265625;0.250244140625;-1.5725190839694656;-0.7480916030534351;-0.2824427480916031
1.012939453125;0.003662109375;0.238525390625;-1.717557251908397;-1.1145038167938932;-0.3511450381679389
1.000244140625;-0.004638671875;0.2421875;-2.030534351145038;-1.1603053435114503;-0.4198473282442748
1.008056640625;-0.004638671875;0.24169921875;-2.3282442748091605;-0.9312977099236641;-0.35877862595419846
1.016357421875;-0.01025390625;0.239013671875;-2.351145038167939;-1.1603053435114503;-0.10687022900763359
1.01416015625;-0.0107421875;0.231689453125;-2.633587786259542;-0.648854961832061;-0.04580152671755725
1.00341796875;-0.016845703125;0.239501953125;-2.50381679389313;-0.5114503816793893;0.030534351145038167
1.012451171875;-0.015869140625;0.249755859375;-2.572519083969466;-0.3282442748091603;-0.2595419847328244
1.015625;-0.023193359375;0.235107421875;-2.381679389312977;-0.20610687022900764;-0.15267175572519084
1.004150390625;-0.020263671875;0.238037109375;-2.351145038167939;-0.46564885496183206;-0.31297709923664124
1.009033203125;-0.02197265625;0.239501953125;-2.3587786259541983;-0.3816793893129771;-0.45038167938931295
1.018798828125;-0.0205078125;0.2275390625;-2.66412213740458;-0.05343511450381679;-0.40458015267175573
1.014892578125;-0.022705078125;0.234130859375;-2.595419847328244;-0.1984732824427481;-0.5267175572519084
0.996826171875;-0.02490234375;0.23779296875;-2.7938931297709924;0.17557251908396945;-0.7099236641221374
1.006103515625;-0.021240234375;0.24169921875;-2.7786259541984735;-0.03816793893129771;-0.7099236641221374
1.010009765625;-0.025634765625;0.25;-3.030534351145038;0.030534351145038167;-0.732824427480916
1.002685546875;-0.026611328125;0.248046875;-2.9923664122137406;-0.08396946564885496;-0.8091603053435115
1.00439453125;-0.01904296875;0.2412109375;-2.969465648854962;-0.4122137404580153;-0.916030534351145
1.010986328125;-0.024169921875;0.245361328125;-2.786259541984733;-0.21374045801526717;-0.9541984732824428
1.007080078125;-0.02294921875;0.244140625;-2.3435114503816794;-0.366412213740458;-1.0076335877862594
1.000244140625;-0.026123046875;0.239990234375;-2.0381679389312977;-0.6259541984732825;-1.0610687022900764
1.0048828125;-0.024169921875;0.24365234375;-1.9389312977099236;-0.4351145038167939;-0.9007633587786259
1.010986328125;-0.021484375;0.236572265625;-2.0;-0.5038167938931297;-1.1526717557251909
1.006591796875;-0.026123046875;0.24560546875;-1.9694656488549618;-0.5877862595419847;-1.1297709923664123
1.003662109375;-0.02587890625;0.23974609375;-1.9465648854961832;-0.8091603053435115;-1.0687022900763359
1.020263671875;-0.021728515625;0.2412109375;-2.1908396946564888;-0.48091603053435117;-0.7633587786259542
1.02099609375;-0.02734375;0.236572265625;-2.198473282442748;-0.3435114503816794;-0.5419847328244275
1.001220703125;-0.02978515625;0.237548828125;-2.366412213740458;-0.35877862595419846;-0.549618320610687
1.005615234375;-0.02099609375;0.234375;-2.33587786259542;-0.4961832061068702;-0.48854961832061067
1.01025390625;-0.019775390625;0.247802734375;-2.351145038167939;-0.7404580152671756;-0.40458015267175573
1.01416015625;-0.016845703125;0.234130859375;-2.2900763358778624;-0.8244274809160306;-0.5801526717557252
1.008544921875;-0.027587890625;0.22509765625;-2.053435114503817;-0.4580152671755725;-0.6259541984732825
1.018310546875;-0.019287109375;0.2314453125;-1.9389312977099236;-0.2595419847328244;-0.6412213740458015
1.01953125;-0.018798828125;0.23193359375;-2.030534351145038;-0.3816793893129771;-0.8549618320610687
1.010986328125;-0.019287109375;0.2451171875;-1.8549618320610688;-0.12213740458015267;-0.7786259541984732
1.00146484375;-0.017333984375;0.239013671875;-1.9083969465648856;0.05343511450381679;-0.8625954198473282
1.010009765625;-0.01318359375;0.23291015625;-2.0076335877862594;0.04580152671755725;-0.7633587786259542
1.018798828125;-0.012939453125;0.246826171875;-2.1755725190839694;-0.03816793893129771;-0.5954198473282443
1.00439453125;-0.01953125;0.24072265625;-2.068702290076336;0.12213740458015267;-0.8320610687022901
1.00439453125;-0.009765625;0.244384765625;-2.1908396946564888;0.022900763358778626;-1.015267175572519
1.01416015625;-0.01123046875;0.2412109375;-2.0763358778625953;-0.0916030534351145;-0.9694656488549618
1.005615234375;-0.02099609375;0.244384765625;-2.114503816793893;0.04580152671755725;-1.2061068702290076
1.00146484375;-0.02197265625;0.244873046875;-2.16793893129771;0.3282442748091603;-1.3053435114503817
1.011474609375;-0.017578125;0.240234375;-2.145038167938931;0.2900763358778626;-1.4198473282442747
1.013427734375;-0.02001953125;0.23828125;-1.9694656488549618;0.5877862595419847;-1.3358778625954197
0.99853515625;-0.01904296875;0.237060546875;-1.9083969465648856;0.7862595419847328;-1.465648854961832
1.005859375;-0.021484375;0.237548828125;-1.9770992366412214;0.6793893129770993;-1.4580152671755726
1.0078125;-0.02587890625;0.2548828125;-1.9770992366412214;0.48091603053435117;-1.4274809160305344
1.00634765625;-0.02978515625;0.230224609375;-2.0916030534351147;0.22900763358778625;-1.6641221374045803
1.0068359375;-0.026123046875;0.239501953125;-1.900763358778626;0.6641221374045801;-1.6030534351145038
1.013916015625;-0.019287109375;0.242919921875;-1.8396946564885497;0.6946564885496184;-1.6870229007633588
1.004150390625;-0.020751953125;0.244384765625;-2.1297709923664123;0.648854961832061;-1.6870229007633588
0.998779296875;-0.0234375;0.234375;-2.0839694656488548;0.5801526717557252;-1.6946564885496183
1.006591796875;-0.018798828125;0.242431640625;-1.9541984732824427;0.732824427480916;-1.4351145038167938
1.0185546875;-0.019287109375;0.2490234375;-2.1297709923664123;0.3816793893129771;-1.5954198473282444
1.01171875;-0.0166015625;0.25341796875;-2.0839694656488548;0.4198473282442748;-1.1908396946564885
1.00830078125;-0.0185546875;0.2392578125;-1.984732824427481;0.5267175572519084;-1.3282442748091603
1.017333984375;-0.02001953125;0.2451171875;-1.6793893129770991;0.6641221374045801;-1.3206106870229009
1.0146484375;-0.01220703125;0.245361328125;-1.8854961832061068;0.6335877862595419;-1.1755725190839694
1.00341796875;-0.016845703125;0.243408203125;-1.984732824427481;0.7480916030534351;-0.816793893129771
1.003173828125;-0.017822265625;0.239013671875;-1.9236641221374047;0.3282442748091603;-0.6870229007633588
1.013427734375;-0.010986328125;0.248046875;-1.702290076335878;0.2900763358778626;-0.6717557251908397
1.01318359375;-0.01806640625;0.2431640625;-2.068702290076336;0.4198473282442748;-0.7175572519083969
1.00927734375;-0.016845703125;0.25048828125;-1.6412213740458015;0.45038167938931295;-0.8549618320610687
1.0107421875;-0.018310546875;0.237060546875;-1.6488549618320612;0.45038167938931295;-0.9770992366412213
1.0146484375;-0.01611328125;0.23486328125;-1.717557251908397;0.3893129770992366;-1.0610687022900764
1.001708984375;-0.01708984375;0.244384765625;-1.7557251908396947;0.3053435114503817;-1.1221374045801527
1.00390625;-0.01416015625;0.246337890625;-1.9312977099236641;0.4961832061068702;-0.9236641221374046
1.009521484375;-0.011474609375;0.248046875;-1.900763358778626;0.8015267175572519;-0.8091603053435115
1.006591796875;-0.013427734375;0.248291015625;-1.9618320610687023;0.6793893129770993;-0.9083969465648855
0.999755859375;-0.01904296875;0.251953125;-2.114503816793893;0.4961832061068702;-0.8702290076335878
1.001220703125;-0.0146484375;0.25146484375;-2.114503816793893;0.19083969465648856;-0.8931297709923665
1.005859375;-0.017578125;0.2529296875;-2.1374045801526718;0.10687022900763359;-1.0916030534351144
1.005859375;-0.024658203125;0.242431640625;-2.404580152671756;0.2824427480916031;-1.0610687022900764
1.003173828125;-0.022216796875;0.24462890625;-2.3053435114503817;0.15267175572519084;-1.1908396946564885
1.012939453125;-0.019775390625;0.2431640625;-2.5801526717557253;0.2900763358778626;-1.16793893129771
1.017578125;-0.019775390625;0.24169921875;-2.66412213740458;0.2824427480916031;-1.3511450381679388
0.998779296875;-0.01806640625;0.24267578125;-2.801526717557252;-0.015267175572519083;-1.2290076335877862
1.003662109375;-0.009521484375;0.238037109375;-2.5419847328244276;-0.1984732824427481;-1.1145038167938932
1.02099609375;-0.009521484375;0.236328125;-2.3969465648854964;-0.24427480916030533;-0.8091603053435115
1.0185546875;-0.015380859375;0.240234375;-2.2977099236641223;-0.1450381679389313;-1.0076335877862594
1.00244140625;-0.01806640625;0.235107421875;-2.1068702290076335;0.15267175572519084;-1.1755725190839694
1.00390625;-0.0234375;0.2421875;-2.1603053435114505;0.26717557251908397;-0.9770992366412213
1.011474609375;-0.013671875;0.256103515625;-2.7938931297709924;-0.33587786259541985;-1.0229007633587786
1.001220703125;-0.019775390625;0.2529296875;-1.816793893129771;0.1297709923664122;-1.1068702290076335
1.0087890625;-0.019287109375;0.2587890625;-1.9694656488549618;0.007633587786259542;-1.16793893129771
1.011474609375;-0.010498046875;0.235107421875;-2.045801526717557;-0.1297709923664122;-1.0381679389312977
1.006591796875;-0.013427734375;0.2412109375;-1.9694656488549618;-0.16793893129770993;-0.9007633587786259
0.998291015625;-0.018310546875;0.2490234375;-2.114503816793893;-0.3511450381679389;-1.0305343511450382
1.00830078125;-0.01416015625;0.24560546875;-1.916030534351145;-0.05343511450381679;-1.0458015267175573
1.01123046875;-0.01171875;0.249755859375;-1.900763358778626;-0.2366412213740458;-0.9541984732824428
0.999267578125;-0.021484375;0.248291015625;-1.7938931297709924;-0.19083969465648856;-0.916030534351145
1.010498046875;-0.01171875;0.253173828125;-1.8625954198473282;-0.07633587786259542;-0.9923664122137404
1.015869140625;-0.01416015625;0.25;-1.9923664122137406;-0.366412213740458;-0.816793893129771
1.007568359375;-0.017822265625;0.2451171875;-1.8778625954198473;-0.32061068702290074;-0.7786259541984732
0.99365234375;-0.0224609375;0.248046875;-1.8702290076335877;-0.3969465648854962;-0.6412213740458015
1.00830078125;-0.009765625;0.240966796875;-1.7099236641221374;-0.2366412213740458;-0.5877862595419847
1.010986328125;-0.016845703125;0.237548828125;-1.5725190839694656;-0.40458015267175573;-0.7557251908396947
1.003662109375;-0.017333984375;0.24365234375;-1.633587786259542;-0.6946564885496184;-0.7099236641221374
1.006591796875;-0.017333984375;0.240966796875;-1.618320610687023;-0.7862595419847328;-0.4351145038167939
1.01806640625;-0.01025390625;0.242919921875;-1.7328244274809161;-0.9541984732824428;-0.5572519083969466
1.009765625;-0.01611328125;0.245361328125;-1.7786259541984732;-0.8320610687022901;-0.6564885496183206
1.0;-0.014892578125;0.2431640625;-1.83206106870229;-1.0763358778625953;-0.6717557251908397
1.001953125;-0.014892578125;0.244384765625;-1.8702290076335877;-1.0076335877862594;-0.6641221374045801
1.0126953125;-0.012939453125;0.248046875;-1.9312977099236641;-0.9770992366412213;-0.7099236641221374
1.009033203125;-0.017578125;0.24755859375;-1.9770992366412214;-1.0458015267175573;-0.648854961832061
1.00146484375;-0.00830078125;0.2509765625;-1.9389312977099236;-1.0076335877862594;-0.648854961832061
1.01318359375;-0.011474609375;0.251220703125;-2.0;-1.0305343511450382;-0.5725190839694656
1.016357421875;-0.005615234375;0.246337890625;-2.0;-1.0229007633587786;-0.5572519083969466
1.004150390625;-0.015869140625;0.25390625;-2.114503816793893;-0.9923664122137404;-0.5343511450381679
1.00439453125;-0.010986328125;0.254150390625;-2.183206106870229;-0.9770992366412213;-0.6564885496183206
1.010498046875;-0.012939453125;0.244384765625;-2.183206106870229;-0.9770992366412213;-0.3511450381679389
1.0078125;-0.011962890625;0.24365234375;-2.145038167938931;-1.0305343511450382;-0.37404580152671757
1.001220703125;-0.012451171875;0.24462890625;-2.2519083969465647;-0.9083969465648855;-0.5267175572519084
1.009765625;-0.01416015625;0.247802734375;-2.2213740458015265;-0.7251908396946565;-0.4198473282442748
1.014892578125;-0.008544921875;0.24560546875;-2.1374045801526718;-0.9312977099236641;-0.3053435114503817
1.0048828125;-0.016357421875;0.24169921875;-2.213740458015267;-1.0916030534351144;-0.3969465648854962
1.004150390625;-0.013427734375;0.235595703125;-2.1908396946564888;-1.0534351145038168;-0.2748091603053435
1.01708984375;-0.011962890625;0.236328125;-1.9236641221374047;-1.1603053435114503;-0.21374045801526717
1.015625;-0.010986328125;0.239501953125;-2.267175572519084;-0.7557251908396947;-0.45038167938931295
1.003662109375;-0.017333984375;0.24267578125;-2.183206106870229;-0.7862595419847328;-0.5114503816793893
1.01171875;-0.016357421875;0.245849609375;-2.099236641221374;-0.7480916030534351;-0.4122137404580153
1.015625;-0.0205078125;0.240478515625;-2.1068702290076335;-0.8244274809160306;-0.40458015267175573
1.010986328125;-0.018798828125;0.244384765625;-2.213740458015267;-0.8549618320610687;-0.2900763358778626
0.99658203125;-0.015869140625;0.24072265625;-2.381679389312977;-0.8625954198473282;-0.3893129770992366
1.01416015625;-0.011962890625;0.242431640625;-2.4122137404580153;-0.5648854961832062;-0.4732824427480916
1.008544921875;-0.0234375;0.243408203125;-2.381679389312977;-0.648854961832061;-0.5725190839694656
0.999267578125;-0.02001953125;0.248046875;-2.3587786259541983;-0.33587786259541985;-0.5190839694656488
1.007080078125;-0.010498046875;0.245361328125;-2.2213740458015265;-0.6793893129770993;-0.3969465648854962
1.0048828125;-0.014892578125;0.25;-1.9694656488549618;-0.7251908396946565;-0.46564885496183206
1.00390625;-0.019775390625;0.24267578125;-2.213740458015267;-0.9083969465648855;-0.6106870229007634
0.998779296875;-0.011962890625;0.244140625;-2.0076335877862594;-0.7022900763358778;-0.46564885496183206
1.01416015625;-0.01806640625;0.237548828125;-2.114503816793893;-0.6793893129770993;-0.5725190839694656
1.00244140625;-0.020263671875;0.2451171875;-1.9770992366412214;-0.7404580152671756;-0.6870229007633588
1.002197265625;-0.020263671875;0.244140625;-1.9083969465648856;-0.8931297709923665;-0.4961832061068702
1.01318359375;-0.01806640625;0.2373046875;-1.9694656488549618;-0.9923664122137404;-0.648854961832061
1.02099609375;-0.01611328125;0.2373046875;-1.9465648854961832;-1.0076335877862594;-0.48091603053435117
1.006591796875;-0.0166015625;0.23779296875;-2.0763358778625953;-1.0229007633587786;-0.5038167938931297
1.006103515625;-0.01171875;0.239501953125;-1.9541984732824427;-0.9236641221374046;-0.3816793893129771
1.01171875;-0.015869140625;0.2373046875;-1.8015267175572518;-1.0763358778625953;-0.2824427480916031
1.009765625;-0.021728515625;0.235107421875;-1.7938931297709924;-0.9236641221374046;-0.33587786259541985
1.000244140625;-0.02490234375;0.241943359375;-1.6641221374045803;-1.0305343511450382;-0.3435114503816794
1.01318359375;-0.01806640625;0.23681640625;-1.6717557251908397;-0.916030534351145;-0.40458015267175573
1.011962890625;-0.0126953125;0.231689453125;-1.6641221374045803;-0.9923664122137404;-0.648854961832061
1.003173828125;-0.01416015625;0.238037109375;-1.618320610687023;-0.6717557251908397;-0.6030534351145038
1.00390625;-0.02001953125;0.24072265625;-1.6793893129770991;-0.8473282442748091;-0.6564885496183206
1.008544921875;-0.019287109375;0.245361328125;-1.717557251908397;-0.8931297709923665;-0.732824427480916
1.015869140625;-0.015380859375;0.24658203125;-1.7709923664122138;-0.9541984732824428;-0.6717557251908397
1.007568359375;-0.024169921875;0.236572265625;-1.7251908396946565;-1.0;-0.7022900763358778
1.00732421875;-0.01806640625;0.2412109375;-1.7251908396946565;-0.8549618320610687;-0.5343511450381679
1.01708984375;-0.017822265625;0.2470703125;-1.618320610687023;-0.8396946564885496;-0.7862595419847328
1.012451171875;-0.0166015625;0.233154296875;-1.717557251908397;-0.8244274809160306;-0.7633587786259542
0.999267578125;-0.015869140625;0.244140625;-1.6870229007633588;-0.9312977099236641;-0.7862595419847328
1.00732421875;-0.014404296875;0.237060546875;-1.8778625954198473;-0.7251908396946565;-0.7938931297709924
1.019287109375;-0.01953125;0.237060546875;-1.9312977099236641;-0.7938931297709924;-0.8702290076335878
1.0087890625;-0.01904296875;0.23779296875;-1.816793893129771;-0.7099236641221374;-0.6641221374045801
1.00048828125;-0.02099609375;0.241943359375;-1.6870229007633588;-0.8320610687022901;-0.7099236641221374
1.01025390625;-0.018310546875;0.233154296875;-1.786259541984733;-0.6793893129770993;-0.8396946564885496
1.01123046875;-0.014404296875;0.236572265625;-1.8625954198473282;-0.6106870229007634;-1.0076335877862594
1.0029296875;-0.021484375;0.228759765625;-1.7938931297709924;-0.7938931297709924;-0.9770992366412213
1.002685546875;-0.015625;0.234375;-1.6946564885496183;-0.7938931297709924;-0.9389312977099237
1.0166015625;-0.015625;0.23974609375;-1.8473282442748091;-0.6030534351145038;-0.7175572519083969
1.012939453125;-0.017578125;0.238037109375;-1.7938931297709924;-0.9847328244274809;-0.8473282442748091
1.005615234375;-0.01904296875;0.23974609375;-1.6412213740458015;-0.6793893129770993;-0.7099236641221374
1.00244140625;-0.018798828125;0.234375;-1.633587786259542;-0.6641221374045801;-0.6793893129770993
1.008544921875;-0.0205078125;0.24267578125;-1.5877862595419847;-0.8702290076335878;-0.732824427480916
1.001953125;-0.02197265625;0.23828125;-1.748091603053435;-0.7557251908396947;-0.7404580152671756
1.014892578125;-0.0087890625;0.241943359375;-2.183206106870229;-0.7938931297709924;-0.5801526717557252
1.019287109375;-0.0068359375;0.236083984375;-2.0381679389312977;-0.7557251908396947;-0.5954198473282443
1.007568359375;-0.017578125;0.23486328125;-2.0;-0.7022900763358778;-0.3893129770992366
1.013427734375;-0.017578125;0.2236328125;-2.0381679389312977;-0.6793893129770993;-0.3282442748091603
1.021484375;-0.01318359375;0.228515625;-2.1526717557251906;-0.5877862595419847;-0.4732824427480916
1.010986328125;-0.01806640625;0.24072265625;-2.053435114503817;-0.48091603053435117;-0.4732824427480916
1.0068359375;-0.024169921875;0.2421875;-2.0076335877862594;-0.5190839694656488;-0.4732824427480916
1.012939453125;-0.01708984375;0.23974609375;-2.045801526717557;-0.4351145038167939;-0.5419847328244275
1.0185546875;-0.012939453125;0.23681640625;-1.9770992366412214;-0.6183206106870229;-0.4122137404580153
1.01123046875;-0.01806640625;0.2431640625;-1.8778625954198473;-0.8702290076335878;-0.4580152671755725
1.002685546875;-0.021728515625;0.230712890625;-1.9770992366412214;-1.0458015267175573;-0.5190839694656488
1.011962890625;-0.012451171875;0.23974609375;-2.030534351145038;-0.8015267175572519;-0.6183206106870229
1.015380859375;-0.017578125;0.23974609375;-2.236641221374046;-0.5038167938931297;-0.7480916030534351
1.008056640625;-0.01611328125;0.239501953125;-2.2442748091603053;-0.4351145038167939;-0.7862595419847328
1.003662109375;-0.02197265625;0.24072265625;-2.2900763358778624;-0.5419847328244275;-1.0916030534351144
1.018798828125;-0.0146484375;0.240234375;-2.183206106870229;-0.4351145038167939;-0.8015267175572519
1.02001953125;-0.02197265625;0.230224609375;-2.114503816793893;-0.46564885496183206;-0.6946564885496184
1.001220703125;-0.0234375;0.23046875;-2.351145038167939;-0.5267175572519084;-0.732824427480916
1.011962890625;-0.025634765625;0.233154296875;-2.2290076335877864;-0.35877862595419846;-0.6946564885496184
1.018310546875;-0.02392578125;0.230712890625;-2.267175572519084;-0.15267175572519084;-0.7938931297709924
1.006103515625;-0.01953125;0.222900390625;-2.267175572519084;-0.07633587786259542;-1.1221374045801527
1.0029296875;-0.0166015625;0.234375;-2.236641221374046;-0.17557251908396945;-1.1755725190839694
1.010498046875;-0.019775390625;0.236328125;-2.1603053435114505;-0.19083969465648856;-1.1755725190839694
1.009765625;-0.012451171875;0.23291015625;-2.1297709923664123;-0.2748091603053435;-1.16793893129771
1.00244140625;-0.018310546875;0.2373046875;-2.0610687022900764;-0.16030534351145037;-1.16793893129771
1.010498046875;-0.0185546875;0.22607421875;-2.0916030534351147;-0.35877862595419846;-1.1297709923664123
1.01806640625;-0.021240234375;0.232666015625;-2.0229007633587788;-0.12213740458015267;-1.083969465648855
1.011962890625;-0.01708984375;0.22509765625;-1.8473282442748091;-0.26717557251908397;-1.3893129770992367
1.0029296875;-0.016845703125;0.233154296875;-2.0229007633587788;-0.17557251908396945;-1.0534351145038168
1.008056640625;-0.012451171875;0.236572265625;-1.9694656488549618;-0.2366412213740458;-1.0610687022900764
1.01611328125;-0.017333984375;0.23291015625;-1.9770992366412214;-0.22137404580152673;-1.0076335877862594
1.00341796875;-0.0224609375;0.225830078125;-1.9541984732824427;-0.3053435114503817;-0.8854961832061069
1.00634765625;-0.022216796875;0.23046875;-1.7328244274809161;-0.42748091603053434;-0.8015267175572519
1.022216796875;-0.017822265625;0.235595703125;-1.9541984732824427;-0.3511450381679389;-0.8015267175572519
1.01318359375;-0.02001953125;0.240234375;-2.099236641221374;-0.22137404580152673;-1.0229007633587786
1.004150390625;-0.01318359375;0.23291015625;-2.122137404580153;-0.3053435114503817;-0.9541984732824428
1.01123046875;-0.010986328125;0.234130859375;-1.9923664122137406;-0.33587786259541985;-0.9618320610687023
1.020263671875;-0.008544921875;0.237548828125;-2.015267175572519;0.030534351145038167;-0.9847328244274809
1.002685546875;-0.0126953125;0.234375;-2.068702290076336;-0.061068702290076333;-1.099236641221374
1.002197265625;-0.0126953125;0.236572265625;-2.0229007633587788;-0.061068702290076333;-1.083969465648855
1.019287109375;-0.013916015625;0.2373046875;-2.145038167938931;-0.03816793893129771;-0.8625954198473282
1.004638671875;-0.0205078125;0.233642578125;-2.213740458015267;-0.183206106870229;-1.015267175572519
1.008056640625;-0.012939453125;0.23779296875;-2.0916030534351147;-0.07633587786259542;-0.8625954198473282
1.011474609375;-0.0146484375;0.228271484375;-2.1603053435114505;-0.20610687022900764;-1.0381679389312977
1.020751953125;-0.011962890625;0.235107421875;-2.053435114503817;-0.11450381679389313;-0.8320610687022901
1.00732421875;-0.022705078125;0.235595703125;-2.213740458015267;-0.1984732824427481;-0.7862595419847328
1.005126953125;-0.015625;0.243896484375;-2.312977099236641;-0.17557251908396945;-0.7938931297709924
1.0166015625;-0.012939453125;0.240478515625;-2.1755725190839694;0.03816793893129771;-0.6717557251908397
1.009521484375;-0.021240234375;0.23681640625;-2.114503816793893;-0.22900763358778625;-0.9618320610687023
1.002685546875;-0.016845703125;0.235595703125;-2.1526717557251906;-0.26717557251908397;-0.8091603053435115
1.010986328125;-0.014892578125;0.239013671875;-2.2442748091603053;-0.25190839694656486;-0.8396946564885496
1.01318359375;-0.013427734375;0.232177734375;-2.16793893129771;-0.22900763358778625;-0.8244274809160306
1.008544921875;-0.016845703125;0.23046875;-2.3435114503816794;-0.29770992366412213;-0.8854961832061069
1.007568359375;-0.011962890625;0.235107421875;-2.1603053435114505;-0.10687022900763359;-0.7404580152671756
1.009765625;-0.01416015625;0.23583984375;-2.282442748091603;-0.15267175572519084;-0.8473282442748091
1.016845703125;-0.007568359375;0.239990234375;-2.3435114503816794;-0.183206106870229;-0.7938931297709924
1.006591796875;-0.01806640625;0.229736328125;-2.450381679389313;-0.3435114503816794;-0.9694656488549618
1.009521484375;-0.01513671875;0.23583984375;-2.2900763358778624;-0.29770992366412213;-0.9389312977099237
1.018310546875;-0.015625;0.234619140625;-2.3282442748091605;-0.07633587786259542;-0.8396946564885496
1.005859375;-0.017822265625;0.228759765625;-2.2061068702290076;-0.20610687022900764;-0.8549618320610687
0.999755859375;-0.013916015625;0.22802734375;-2.2061068702290076;-0.1450381679389313;-0.7786259541984732
1.01025390625;-0.012939453125;0.23828125;-2.2900763358778624;-0.4580152671755725;-0.8854961832061069
1.016845703125;-0.01611328125;0.236328125;-2.068702290076336;-0.24427480916030533;-0.7557251908396947
1.006103515625;-0.022705078125;0.239013671875;-2.2595419847328246;-0.16030534351145037;-0.5343511450381679
1.009521484375;-0.011962890625;0.23681640625;-2.2900763358778624;-0.1450381679389313;-0.7557251908396947
1.014892578125;-0.01611328125;0.2373046875;-2.0763358778625953;-0.2824427480916031;-0.8320610687022901
1.00927734375;-0.013916015625;0.25244140625;-2.1374045801526718;-0.15267175572519084;-0.8473282442748091
1.005859375;-0.019775390625;0.23779296875;-2.0610687022900764;0.007633587786259542;-0.8702290076335878
1.008056640625;-0.0166015625;0.233154296875;-2.2061068702290076;-0.022900763358778626;-0.6564885496183206
1.014892578125;-0.011962890625;0.23828125;-2.0916030534351147;-0.31297709923664124;-0.7557251908396947
1.0068359375;-0.015869140625;0.22802734375;-1.984732824427481;-0.20610687022900764;-0.8702290076335878
1.0078125;-0.020263671875;0.23583984375;-2.0229007633587788;-0.1450381679389313;-0.9007633587786259
1.010986328125;-0.014892578125;0.239990234375;-2.068702290076336;-0.07633587786259542;-0.8702290076335878
1.022216796875;-0.018310546875;0.24755859375;-2.099236641221374;-0.26717557251908397;-0.9312977099236641
1.008056640625;-0.02001953125;0.24072265625;-2.145038167938931;0.022900763358778626;-1.0458015267175573
1.012451171875;-0.017578125;0.242431640625;-2.1297709923664123;-0.0916030534351145;-1.1603053435114503
1.0234375;-0.018310546875;0.235107421875;-2.213740458015267;-0.030534351145038167;-0.9465648854961832
1.008056640625;-0.021484375;0.232666015625;-2.2595419847328246;0.07633587786259542;-0.9465648854961832
1.0029296875;-0.017333984375;0.2333984375;-2.3435114503816794;-0.04580152671755725;-0.9465648854961832
1.018310546875;-0.02001953125;0.247802734375;-2.404580152671756;0.31297709923664124;-0.7938931297709924
1.00537109375;-0.017822265625;0.23681640625;-2.366412213740458;0.33587786259541985;-0.8702290076335878
0.998046875;-0.016357421875;0.249267578125;-2.4580152671755724;0.3969465648854962;-1.1984732824427482
1.00927734375;-0.0078125;0.23681640625;-2.5572519083969465;-0.06870229007633588;-1.0381679389312977
1.013427734375;-0.012451171875;0.235107421875;-2.282442748091603;-0.03816793893129771;-1.0687022900763359
1.01025390625;-0.01806640625;0.236328125;-2.2519083969465647;-0.21374045801526717;-1.1068702290076335
1.00341796875;-0.02392578125;0.24951171875;-2.1755725190839694;-0.04580152671755725;-1.099236641221374
1.01611328125;-0.01806640625;0.235107421875;-2.213740458015267;-0.15267175572519084;-1.1755725190839694
1.01611328125;-0.01416015625;0.235107421875;-2.3893129770992365;-0.2900763358778626;-1.1984732824427482
1.008056640625;-0.015625;0.238525390625;-2.2595419847328246;-0.0916030534351145;-1.099236641221374
1.010986328125;-0.017333984375;0.2373046875;-2.1755725190839694;-0.16793893129770993;-1.2290076335877862
1.016845703125;-0.020263671875;0.23828125;-2.099236641221374;-0.2595419847328244;-1.0916030534351144
1.012451171875;-0.014404296875;0.22802734375;-2.068702290076336;-0.24427480916030533;-0.8473282442748091
1.005859375;-0.013427734375;0.236572265625;-2.145038167938931;-0.2595419847328244;-0.8778625954198473
1.008056640625;-0.013427734375;0.243408203125;-2.183206106870229;-0.1450381679389313;-0.8854961832061069
1.012939453125;-0.015869140625;0.237548828125;-2.045801526717557;-0.22900763358778625;-1.0
1.00244140625;-0.0205078125;0.236328125;-2.045801526717557;-0.2595419847328244;-1.0
1.001953125;-0.017333984375;0.241943359375;-2.030534351145038;-0.37404580152671757;-0.8320610687022901
1.014892578125;-0.011962890625;0.23779296875;-1.916030534351145;-0.1450381679389313;-1.015267175572519
1.01123046875;-0.015869140625;0.234375;-1.916030534351145;-0.1297709923664122;-0.9923664122137404
0.998779296875;-0.0166015625;0.24072265625;-2.1068702290076335;-0.015267175572519083;-1.099236641221374
1.014892578125;-0.01513671875;0.236328125;-1.9465648854961832;-0.183206106870229;-1.0534351145038168
1.015625;-0.015380859375;0.2412109375;-1.8931297709923665;-0.16030534351145037;-0.8854961832061069
