timestamp;acc_x;acc_y;acc_z;gyro_x;gyro_y;gyro_z
184350;9.77;0.58;0.35;-2.875;2.6875;-0.5
184350;9.69;0.61;0.33;-2.6875;2.75;-0.375
184350;9.73;0.61;0.41;1.75;-5.75;-1.3125
184350;9.76;0.58;0.28;1.3125;-5.5;-1.9375
184350;9.74;0.59;0.32;1.125;-4.5625;-1.625
184350;9.81;0.65;0.3;0.875;-4.0;-1.1875
184350;9.78;0.56;0.3;-1.5625;2.1875;-0.125
184350;9.79;0.57;0.32;-1.3125;2.125;-0.0625
184350;9.77;0.61;0.31;-1.125;2.1875;0.125
184350;9.74;0.56;0.32;-1.25;2.625;0.1875
184350;9.76;0.51;0.33;-1.25;0.8125;0.625
184350;9.76;0.54;0.33;-1.1875;0.8125;0.875
184350;9.76;0.54;0.28;-1.25;1.0625;1.25
184350;9.82;0.57;0.33;-0.625;1.0;1.3125
184350;9.72;0.58;0.32;-0.125;-0.6875;0.5625
184350;9.67;0.54;0.28;-0.4375;-0.625;0.1875
184350;9.73;0.6;0.33;-0.6875;-0.75;0.5625
184351;9.79;0.54;0.44;-1.0625;0.75;0.1875
184351;9.79;0.55;0.4;-0.8125;0.5625;0.125
184351;9.58;0.61;-0.08;-1.0;0.875;0.1875
184351;9.73;0.47;0.3;-0.875;1.8125;0.4375
184351;9.78;0.56;0.36;0.0625;-0.75;-0.125
184351;9.77;0.57;0.34;-0.0625;-0.5;-0.125
184351;9.78;0.56;0.29;-0.375;0.1875;0.0
184351;9.8;0.55;0.38;-0.375;0.4375;0.0625
184351;9.75;0.56;0.38;0.0625;1.875;0.375
184351;9.75;0.56;0.36;0.3125;1.375;0.1875
184351;9.73;0.6;0.41;0.5625;0.9375;0.0
184351;9.71;0.58;0.37;0.625;0.5;-0.125
184351;9.77;0.58;0.44;-0.25;0.1875;-0.3125
184351;9.76;0.59;0.42;-0.25;0.1875;-0.375
184351;9.76;0.59;0.36;-0.5;0.375;-0.4375
184351;9.76;0.55;0.36;-0.625;0.4375;-0.625
184351;9.82;0.59;0.36;-1.25;0.4375;-0.3125
184351;9.82;0.56;0.4;-1.3125;0.5;-0.3125
184351;9.75;0.53;0.39;-0.9375;0.625;-0.3125
184351;9.76;0.51;0.38;-0.6875;0.75;-0.125
184351;9.83;0.57;0.35;0.125;1.75;0.6875
184352;9.67;0.61;0.48;0.25;1.8125;0.5625
184352;9.69;0.57;0.51;0.0;0.375;0.25
184352;9.78;0.6;0.47;-0.625;0.25;-0.5
184352;9.81;0.62;0.43;0.9375;-0.1875;0.1875
184352;9.8;0.6;0.39;0.75;-0.25;0.375
184352;9.79;0.6;0.47;-0.1875;0.3125;0.5
184352;9.76;0.59;0.43;-0.4375;0.8125;0.375
184352;9.78;0.59;0.43;-0.0625;-0.3125;0.125
184352;9.76;0.61;0.44;-0.125;0.0;0.0625
184352;9.73;0.57;0.41;-0.1875;0.0625;0.125
184352;9.72;0.57;0.44;-0.1875;0.125;0.1875
184352;9.84;0.58;0.56;0.5;0.625;0.25
184352;9.7;0.55;0.31;0.375;1.625;-0.0625
184352;9.71;0.61;0.12;0.875;1.0;-0.5625
184352;9.74;0.49;0.34;0.625;0.9375;-0.375
184352;9.75;0.53;0.39;-0.375;0.0625;0.125
184352;9.75;0.55;0.39;-0.25;-0.0625;0.1875
184352;9.77;0.55;0.35;-0.1875;-0.25;0.0625
184352;9.77;0.55;0.43;0.0;-0.4375;0.125
184352;9.75;0.57;0.39;-0.1875;0.0;0.125
184352;9.74;0.6;0.43;-0.375;0.1875;0.125
184352;9.76;0.55;0.42;-0.375;0.0;0.0
184353;9.72;0.54;0.4;-0.4375;0.125;0.0
184353;9.73;0.55;0.38;-0.5;-0.0625;0.375
184353;9.78;0.54;0.33;-0.5625;-0.25;0.3125
184353;9.77;0.52;0.34;-0.1875;-0.4375;0.375
184353;9.76;0.54;0.45;-0.125;-0.4375;0.25
184353;9.73;0.51;0.41;0.4375;-0.4375;0.125
184353;9.73;0.52;0.43;0.5625;-0.1875;0.25
184353;9.75;0.53;0.38;0.5625;-0.125;0.0
184353;9.75;0.51;0.38;0.5625;-0.0625;0.0625
184353;9.74;0.58;0.34;0.875;0.9375;0.3125
184353;9.77;0.57;0.36;0.75;0.6875;0.25
184353;9.78;0.58;0.35;0.8125;0.375;0.1875
184353;9.74;0.59;0.4;0.5;0.625;0.125
184353;9.77;0.6;0.35;-1.0625;0.0;0.125
184353;9.78;0.57;0.39;-1.1875;0.125;0.0
184353;9.76;0.6;0.41;-1.375;-0.125;-0.125
184353;9.77;0.56;0.38;-0.9375;-0.25;-0.25
184353;9.77;0.49;0.34;-1.1875;0.0625;0.125
184353;9.78;0.53;0.32;-1.125;0.0;0.125
184353;9.76;0.51;0.34;-0.8125;0.5;0.0625
184353;9.77;0.5;0.39;-0.5;0.0;0.1875
184353;9.72;0.5;0.37;0.0;-0.125;0.25
184354;9.76;0.59;0.43;-0.0625;-0.125;0.25
184354;9.76;0.52;0.33;-0.0625;-0.1875;-0.0625
184354;9.76;0.58;0.37;0.25;-0.625;0.125
184354;9.72;0.64;0.53;-0.875;0.875;-1.125
184354;9.78;0.56;0.35;-0.375;0.9375;-0.8125
184354;9.78;0.55;0.38;-0.4375;0.875;-0.375
184354;9.79;0.58;0.37;-0.625;0.5625;-0.1875
184354;9.79;0.5;0.28;-0.4375;-1.25;0.125
184354;9.75;0.65;0.42;-0.1875;-1.4375;0.1875
184354;9.76;0.54;0.35;-0.6875;-0.5625;-0.1875
184354;9.75;0.52;0.41;-0.6875;-0.3125;-0.1875
184354;9.77;0.49;0.35;-0.9375;0.1875;0.125
184354;9.75;0.54;0.35;-0.4375;0.125;0.0625
184354;9.74;0.56;0.34;-0.4375;-0.125;-0.125
184354;9.74;0.6;0.3;-0.5;-0.0625;0.125
184354;9.75;0.6;0.32;-0.625;0.0625;0.0625
184354;9.76;0.56;0.3;-1.0;0.1875;0.125
184354;9.74;0.56;0.3;-0.9375;-0.125;0.0
184354;9.73;0.55;0.36;-0.5;-0.75;0.1875
184354;9.76;0.58;0.35;-0.75;-0.1875;-0.125
184354;9.75;0.58;0.35;-0.6875;-0.125;-0.3125
184355;9.76;0.55;0.3;-1.0;-0.25;0.0
184355;9.76;0.54;0.29;-0.25;-0.6875;-0.125
184355;9.79;0.57;0.33;-0.1875;-0.875;0.0
184355;9.76;0.56;0.32;-0.375;-0.75;0.0625
184355;9.78;0.54;0.27;-0.375;-0.75;-0.125
184355;9.76;0.58;0.34;-0.5;-0.75;-0.1875
184355;9.77;0.56;0.28;-0.625;-0.5625;-0.1875
184355;9.77;0.57;0.28;-0.9375;0.25;-0.0625
184355;9.76;0.53;0.27;-0.875;0.4375;0.0625
184355;9.81;0.55;0.24;0.5;-0.6875;0.25
184355;9.76;0.52;0.22;0.9375;-1.3125;0.0
184355;9.77;0.52;0.25;0.8125;-1.0625;0.0625
184355;9.75;0.58;0.31;0.1875;-0.6875;0.0625
184355;9.76;0.53;0.25;-0.1875;0.0625;0.1875
184355;9.75;0.48;0.24;0.125;-0.125;0.3125
184355;9.76;0.49;0.28;0.5625;-0.5;0.0625
184355;9.72;0.57;0.23;0.625;-0.875;0.1875
184355;9.75;0.56;0.24;0.5;-0.375;-0.0625
184355;9.75;0.58;0.23;0.625;-0.6875;0.125
184355;9.76;0.59;0.25;0.4375;-0.5;0.125
184355;9.8;0.6;0.22;0.375;-0.25;-0.0625
184355;9.76;0.6;0.25;-0.375;-0.25;0.1875
184356;9.76;0.59;0.21;-0.5;-0.0625;0.0625
184356;9.76;0.56;0.17;-0.3125;0.0;0.0
184356;9.78;0.56;0.23;-0.3125;-0.1875;-0.0625
184356;9.76;0.6;0.22;-0.4375;-0.125;-0.1875
184356;9.75;0.57;0.23;-0.3125;-0.25;-0.1875
184356;9.72;0.6;0.22;-0.4375;-0.6875;-0.0625
184356;9.72;0.57;0.23;-0.375;-0.75;-0.1875
184356;9.72;0.56;0.23;-0.25;0.3125;0.125
184356;9.75;0.65;0.22;-0.25;0.25;0.0625
184356;9.72;0.61;0.14;-0.3125;0.1875;0.125
184356;9.77;0.57;0.16;-0.375;0.3125;-0.0625
184356;9.73;0.56;0.18;-0.4375;0.4375;0.0
184356;9.74;0.58;0.2;-0.0625;-0.0625;-0.125
184356;9.77;0.54;0.25;0.125;-0.4375;-0.125
184356;9.77;0.58;0.2;-0.6875;0.8125;0.25
184356;9.78;0.56;0.2;-0.625;0.6875;-0.0625
184356;9.77;0.54;0.22;-0.375;0.5;-0.0625
184356;9.79;0.54;0.21;-0.4375;0.4375;-0.125
184356;9.78;0.62;0.24;0.375;0.125;-0.0625
184356;9.75;0.54;0.21;-0.125;0.625;0.0
184356;9.76;0.54;0.25;-0.1875;0.5625;0.0
184357;9.76;0.59;0.23;0.0;0.6875;0.0
184357;9.78;0.55;0.28;-0.625;0.5;0.0625
184357;9.77;0.57;0.28;-0.5625;0.5;0.0625
184357;9.78;0.59;0.26;-0.6875;0.75;0.0
184357;9.77;0.57;0.24;-0.625;0.5;-0.125
184357;9.79;0.56;0.27;0.0;0.125;0.125
184357;9.77;0.54;0.27;0.0;0.25;0.0625
184357;9.76;0.55;0.28;-0.25;0.75;0.0625
184357;9.74;0.56;0.25;-0.375;1.0625;0.0
184357;9.73;0.56;0.25;-0.5625;0.875;0.0625
184357;9.74;0.55;0.25;-0.4375;0.5625;0.25
184357;9.76;0.56;0.23;-0.3125;0.0625;0.125
184357;9.74;0.58;0.23;-0.0625;0.0625;-0.0625
184357;9.75;0.6;0.24;0.3125;-0.125;-0.0625
184357;9.77;0.61;0.27;0.4375;-0.1875;-0.125
184357;9.77;0.61;0.25;0.3125;0.0;-0.125
184357;9.77;0.56;0.25;0.1875;0.0;-0.125
184357;9.75;0.58;0.21;0.625;-0.125;-0.3125
184357;9.76;0.62;0.29;0.6875;-0.25;-0.3125
184357;9.76;0.6;0.32;0.375;0.4375;-0.1875
184357;9.78;0.58;0.29;0.1875;0.5625;-0.0625
184357;9.76;0.6;0.25;-0.1875;0.5;-0.125
184358;9.76;0.62;0.27;0.125;0.125;-0.0625
184358;9.77;0.59;0.22;0.0;0.5;-0.125
184358;9.79;0.6;0.26;0.1875;0.75;-0.1875
184358;9.75;0.58;0.24;-0.0625;0.5625;0.0625
184358;9.74;0.6;0.27;-0.0625;0.25;0.125
184358;9.73;0.58;0.24;-0.0625;0.3125;0.1875
184358;9.77;0.61;0.25;-0.25;0.0625;0.1875
184358;9.74;0.57;0.22;-0.3125;0.3125;-0.25
184358;9.75;0.56;0.2;-0.1875;-0.0625;-0.25
184358;9.76;0.58;0.32;-0.4375;0.125;-0.1875
184358;9.77;0.59;0.3;-0.4375;0.0625;-0.25
184358;9.79;0.58;0.26;-0.1875;0.125;-0.125
184358;9.77;0.6;0.3;-0.125;0.1875;-0.1875
184358;9.72;0.58;0.25;0.0;0.25;-0.125
184358;9.78;0.56;0.28;-0.125;0.0;-0.0625
184358;9.72;0.58;0.28;0.5625;0.125;-0.0625
184358;9.75;0.58;0.28;0.4375;0.0625;-0.0625
184358;9.75;0.59;0.22;0.9375;-0.5625;0.0
184358;9.77;0.57;0.29;1.0;-0.75;0.3125
184358;9.77;0.58;0.3;-0.4375;0.875;0.1875
184358;9.75;0.59;0.27;-0.5;0.625;0.0
184359;9.76;0.57;0.25;-0.5;0.6875;0.125
184359;9.76;0.54;0.29;-0.5625;0.5625;0.25
184359;9.75;0.59;0.28;-0.25;0.125;0.1875
184359;9.74;0.58;0.28;-0.25;-0.1875;0.0625
184359;9.77;0.62;0.26;-0.3125;-0.25;0.125
184359;9.77;0.56;0.24;0.0625;-0.75;0.0
184359;9.77;0.57;0.25;-0.875;0.4375;0.25
184359;9.77;0.58;0.27;-0.875;0.375;0.125
184359;9.74;0.57;0.26;-0.5;0.3125;0.1875
184359;9.77;0.53;0.25;-0.375;0.3125;0.125
184359;9.77;0.59;0.24;0.3125;-0.125;-0.0625
184359;9.76;0.6;0.26;0.375;0.0;-0.0625
184359;9.72;0.61;0.24;0.25;-0.125;-0.0625
184359;9.78;0.57;0.21;0.125;-0.125;0.0625
184359;9.74;0.59;0.21;0.875;-0.4375;-0.0625
184359;9.73;0.59;0.25;1.1875;-1.125;-0.0625
184359;9.74;0.61;0.24;1.125;-1.0;-0.1875
184359;9.77;0.56;0.25;0.8125;-0.6875;-0.0625
184359;9.75;0.57;0.16;0.375;-0.5625;-0.0625
184359;9.76;0.6;0.25;0.75;-1.0;-0.0625
184359;9.73;0.63;0.22;0.4375;-1.0625;-0.0625
184359;9.81;0.57;0.26;0.4375;-0.8125;0.1875
184400;9.78;0.61;0.21;-0.5;0.75;0.125
184400;9.74;0.6;0.19;-0.5625;0.5625;-0.0625
184400;9.78;0.57;0.22;-0.125;0.0;-0.25
184400;9.78;0.56;0.27;0.0;0.125;-0.125
184400;9.76;0.54;0.21;0.0;0.0;0.0
184400;9.73;0.55;0.26;-0.1875;0.3125;0.0625
184400;9.74;0.55;0.18;-0.25;0.25;0.0625
184400;9.75;0.58;0.25;0.0;0.0625;0.1875
184400;9.8;0.57;0.21;0.4375;-0.625;0.1875
184400;9.8;0.57;0.26;0.1875;0.0;0.0
184400;9.79;0.56;0.22;0.1875;0.25;0.0625
184400;9.76;0.57;0.21;0.0625;0.5;0.25
184400;9.77;0.6;0.27;0.4375;0.1875;-0.125
184400;9.77;0.6;0.19;0.3125;0.1875;-0.125
184400;9.79;0.63;0.19;-0.125;0.4375;-0.0625
184400;9.78;0.61;0.2;-0.375;0.875;-0.1875
184400;9.77;0.57;0.23;-0.5625;1.0625;0.0
184400;9.76;0.59;0.23;-0.9375;1.125;-0.25
184400;9.72;0.55;0.18;-0.875;0.875;-0.1875
184400;9.73;0.58;0.2;-0.6875;0.5;-0.125
184400;9.75;0.62;0.23;-0.375;0.5;-0.1875
184400;9.78;0.6;0.25;-0.5625;0.625;-0.1875
184401;9.78;0.55;0.26;-0.375;0.6875;-0.125
184401;9.79;0.6;0.25;-0.5625;0.9375;-0.0625
184401;9.76;0.61;0.24;0.3125;0.0;0.125
184401;9.76;0.6;0.23;0.1875;0.1875;0.0
184401;9.74;0.59;0.2;0.25;-0.0625;0.0
184401;9.73;0.61;0.26;-0.4375;0.625;0.125
184401;9.73;0.58;0.25;-0.1875;0.4375;0.125
184401;9.74;0.58;0.21;-0.0625;0.25;0.25
184401;9.74;0.6;0.24;0.1875;0.25;0.1875
184401;9.78;0.59;0.22;-1.125;0.3125;0.0625
184401;9.78;0.58;0.24;-1.1875;0.3125;0.0625
184401;9.73;0.59;0.26;-0.75;0.1875;0.125
184401;9.77;0.59;0.25;-0.5625;0.0;0.0625
184401;9.75;0.57;0.24;-0.5;-0.25;-0.0625
184401;9.77;0.6;0.26;0.375;-0.25;-0.1875
184401;9.77;0.58;0.23;0.4375;-0.125;-0.0625
184401;9.76;0.58;0.25;0.1875;0.3125;0.0
184401;9.75;0.56;0.25;-0.25;0.9375;-0.25
184401;9.74;0.58;0.25;-0.3125;1.0;-0.25
184401;9.75;0.58;0.26;-0.125;0.5625;-0.1875
184401;9.76;0.59;0.21;-0.125;0.4375;-0.125
184402;9.77;0.61;0.23;-0.3125;-0.0625;-0.3125
184402;9.78;0.58;0.21;-0.3125;-0.0625;-0.125
184402;9.77;0.59;0.25;-0.1875;-0.4375;-0.125
184402;9.78;0.59;0.28;-0.125;-0.5;-0.125
184402;9.8;0.56;0.25;0.25;-0.5625;0.125
184402;9.77;0.58;0.23;0.1875;-0.0625;0.125
184402;9.75;0.57;0.23;0.3125;-0.125;-0.125
184402;9.69;0.58;0.23;0.5;-0.8125;-0.1875
184402;9.73;0.58;0.24;0.1875;0.0625;-0.0625
184402;9.75;0.58;0.22;0.25;0.0625;0.0625
184402;9.74;0.56;0.24;0.25;-0.25;-0.0625
184402;9.77;0.62;0.27;0.25;-0.125;-0.1875
184402;9.75;0.58;0.23;-0.125;0.625;-0.125
184402;9.76;0.58;0.22;-0.1875;0.375;-0.0625
184402;9.78;0.58;0.26;-0.375;0.5;-0.1875
184402;9.76;0.6;0.24;-0.375;0.25;-0.125
184402;9.78;0.6;0.24;-0.625;-0.125;-0.375
184402;9.79;0.6;0.24;-0.8125;-0.1875;-0.3125
184402;9.77;0.6;0.24;-0.75;0.0;-0.3125
184402;9.74;0.56;0.2;-1.125;0.1875;-0.125
184402;9.75;0.62;0.22;0.3125;-0.3125;-0.0625
184402;9.77;0.58;0.23;0.25;-0.0625;0.0
184403;9.78;0.56;0.26;0.25;-0.0625;-0.1875
184403;9.75;0.59;0.24;0.125;-0.0625;-0.125
184403;9.73;0.58;0.26;0.125;0.3125;0.0
184403;9.73;0.6;0.24;0.0625;-0.1875;0.0
184403;9.77;0.61;0.25;-0.0625;0.125;-0.0625
184403;9.74;0.61;0.21;-0.1875;-0.3125;-0.125
184403;9.76;0.57;0.24;-0.3125;0.0;-0.125
184403;9.78;0.56;0.26;-0.5;-0.0625;-0.125
184403;9.79;0.57;0.26;-0.625;0.1875;0.0
184403;9.72;0.59;0.22;-0.3125;0.1875;-0.25
184403;9.76;0.57;0.21;-0.3125;0.0625;-0.1875
184403;9.74;0.57;0.26;-0.125;-0.375;-0.25
184403;9.76;0.58;0.25;-0.3125;-0.1875;-0.25
184403;9.75;0.58;0.24;-0.0625;-0.25;0.125
184403;9.75;0.57;0.24;-0.0625;-0.25;0.3125
184403;9.76;0.57;0.24;-0.125;-0.25;0.125
184403;9.78;0.56;0.24;0.0;-0.0625;0.125
184403;9.76;0.56;0.23;0.375;-0.25;0.0
184403;9.76;0.57;0.22;0.125;-0.25;0.0
184403;9.78;0.55;0.24;0.125;-0.3125;0.0625
184403;9.78;0.59;0.21;0.0625;0.0;0.1875
184404;9.77;0.58;0.23;0.125;-0.3125;0.0
184404;9.77;0.58;0.23;0.125;0.125;0.0
184404;9.78;0.57;0.28;0.1875;0.0;-0.0625
184404;9.76;0.59;0.26;0.0;-0.0625;-0.0625
184404;9.76;0.56;0.2;-0.4375;0.1875;0.0625
184404;9.75;0.58;0.21;-0.0625;-0.125;0.0
184404;9.76;0.58;0.2;0.0;-0.0625;-0.0625
184404;9.8;0.59;0.25;0.1875;-0.375;0.25
184404;9.78;0.57;0.23;0.125;0.3125;0.0
184404;9.76;0.57;0.23;0.0625;0.25;0.0
184404;9.78;0.58;0.25;0.0625;0.375;-0.0625
184404;9.77;0.57;0.22;0.0625;0.5;0.0625
184404;9.77;0.57;0.24;-0.0625;0.0625;0.0625
184404;9.75;0.58;0.24;-0.375;0.125;0.125
184404;9.75;0.57;0.25;-0.375;0.125;0.0625
184404;9.74;0.56;0.25;-0.25;0.0;-0.0625
184404;9.77;0.58;0.26;-0.3125;-0.125;0.125
184404;9.79;0.57;0.23;-0.125;-0.5;0.125
184404;9.77;0.54;0.21;-0.1875;-0.375;0.125
184404;9.77;0.6;0.43;-0.375;0.0625;0.125
184404;9.79;0.58;0.27;-0.875;0.375;-0.125
184404;9.78;0.6;0.23;-0.875;0.4375;-0.0625
184405;9.75;0.59;0.23;-0.75;0.25;-0.0625
184405;9.75;0.57;0.27;-0.625;0.0;0.0
184405;9.78;0.55;0.22;0.5;-0.75;-0.0625
184405;9.78;0.56;0.25;0.375;-0.75;-0.125
184405;9.77;0.58;0.26;0.375;-0.625;0.0
184405;9.74;0.6;0.26;0.3125;-0.5;0.0
184405;9.75;0.6;0.27;0.375;-0.125;-0.125
184405;9.75;0.58;0.21;0.0625;0.0;-0.0625
184405;9.76;0.57;0.2;-0.1875;0.0625;-0.0625
184405;9.77;0.58;0.23;-0.1875;-0.0625;-0.0625
184405;9.75;0.59;0.25;-1.1875;0.25;-0.1875
184405;9.78;0.56;0.22;-1.125;0.25;-0.0625
184405;9.78;0.55;0.2;-1.0625;0.0625;-0.25
184405;9.78;0.57;0.22;-1.0625;-0.125;-0.125
184405;9.77;0.52;0.22;-0.375;-0.0625;0.0
184405;9.76;0.55;0.25;-0.25;-0.0625;-0.0625
184405;9.79;0.56;0.25;0.1875;-0.3125;0.0
184405;9.76;0.57;0.18;0.375;-0.0625;0.125
184405;9.76;0.55;0.22;0.375;-0.0625;0.0
184405;9.76;0.58;0.22;0.4375;0.125;0.0
184405;9.76;0.6;0.25;0.5625;-0.3125;0.0
184406;9.74;0.57;0.23;0.5;-0.25;-0.125
184406;9.76;0.55;0.23;0.125;0.0;0.125
184406;9.76;0.58;0.18;0.3125;-0.0625;0.125
184406;9.76;0.59;0.19;0.3125;-0.0625;0.0
184406;9.73;0.55;0.22;-1.875;1.0;-0.0625
184406;9.71;0.51;0.2;-1.25;0.125;0.0
184406;9.73;0.53;0.21;-1.0;0.0625;-0.125
184406;9.73;0.53;0.25;-0.5;-0.375;0.0
184406;9.77;0.57;0.23;0.5;0.6875;0.25
184406;9.72;0.57;0.19;0.3125;0.5625;0.125
184406;9.75;0.58;0.22;0.1875;0.125;0.125
184406;9.76;0.58;0.21;0.3125;0.0;0.125
184406;9.8;0.57;0.23;-0.4375;0.3125;0.3125
184406;9.78;0.59;0.24;-0.6875;0.5;0.3125
184406;9.75;0.56;0.26;-1.0;0.8125;0.3125
184406;9.73;0.52;0.27;-1.125;0.625;0.3125
184406;9.74;0.57;0.16;1.0;-0.125;0.125
184406;9.76;0.55;0.19;1.125;0.4375;0.125
184406;9.74;0.55;0.17;0.9375;0.625;0.0625
184406;9.71;0.51;0.25;0.8125;0.625;0.375
184406;9.74;0.52;0.24;0.875;0.5;0.375
184406;9.81;0.55;0.23;0.8125;-0.75;0.0625
184407;9.83;0.64;0.34;-0.0625;-0.5;-0.1875
184407;9.8;0.61;0.28;-0.25;-0.5;-0.3125
184407;9.77;0.59;0.25;-1.0625;-0.3125;-0.1875
184407;9.75;0.54;0.22;-1.3125;-0.3125;-0.0625
184407;9.75;0.5;0.23;-1.0;-0.375;0.0625
184407;9.77;0.51;0.22;-0.5625;-0.5625;-0.0625
184407;9.78;0.51;0.22;-0.8125;0.125;0.375
184407;9.78;0.52;0.22;-0.4375;-0.25;0.1875
184407;9.77;0.58;0.18;-0.125;-0.4375;0.3125
184407;9.76;0.58;0.2;0.125;-0.375;0.4375
184407;9.74;0.53;0.21;0.125;-1.3125;0.25
184407;9.79;0.57;0.24;-0.125;-0.9375;0.25
184407;9.82;0.55;0.26;-0.4375;-0.5;0.125
184407;9.81;0.52;0.29;-0.5;-0.125;0.1875
184407;9.79;0.56;0.32;-0.1875;-0.125;0.5625
184407;9.79;0.48;0.3;-0.5625;0.3125;0.625
184407;9.8;0.55;0.26;-0.4375;1.0;0.5625
184407;9.8;0.55;0.22;-0.5;1.0625;0.25
184407;9.8;0.52;0.26;-0.125;-0.375;0.25
184407;9.8;0.65;0.31;-0.1875;0.0;0.375
184407;9.85;0.74;0.16;-0.625;0.0625;0.0625
184407;9.75;0.45;0.13;0.1875;-0.8125;-0.125
184408;9.78;0.47;0.24;-1.0;1.125;0.125
184408;9.75;0.49;0.25;-1.25;1.8125;0.625
184408;9.79;0.45;0.24;-1.0625;1.6875;0.5625
184408;9.77;0.43;0.24;-0.25;1.6875;0.8125
184408;9.71;0.53;0.23;2.8125;-1.9375;0.1875
184408;9.71;0.51;0.22;3.375;-2.6875;0.0625
184408;9.78;0.58;0.28;3.5;-3.1875;-0.0625
184408;9.82;0.52;0.32;3.375;-2.9375;-0.375
184408;9.82;0.49;0.21;-0.6875;0.1875;0.375
184408;9.81;0.49;0.26;-0.9375;0.5625;0.75
184408;9.78;0.43;0.23;-0.9375;1.5;0.9375
184408;9.74;0.67;0.53;-0.625;1.875;1.0625
184408;9.72;0.46;0.18;-0.25;-0.375;0.75
184408;9.73;0.45;0.21;0.0625;-0.625;0.75
184408;9.76;0.44;0.27;0.625;-1.0625;0.5625
184408;9.75;0.44;0.3;1.125;-1.6875;0.6875
184408;9.87;0.46;0.23;-0.25;-1.125;0.9375
184408;9.74;0.49;0.34;-1.6875;0.125;0.1875
184408;9.72;0.44;0.31;-1.1875;0.375;0.375
184408;9.74;0.48;0.25;-1.1875;1.1875;-0.25
184408;9.71;0.47;0.13;-1.3125;0.3125;-0.1875
184409;9.67;0.41;0.15;-2.125;0.1875;-0.4375
184409;9.72;0.42;0.16;-1.75;-0.5;0.375
184409;9.78;0.4;0.17;-1.625;-0.8125;0.3125
184409;9.78;0.43;0.2;1.5625;-0.625;0.0625
184409;9.76;0.48;0.21;1.75;-0.6875;0.125
184409;9.76;0.5;0.19;1.6875;-0.875;0.125
184409;9.78;0.54;0.18;1.1875;-0.3125;-0.3125
184409;9.72;0.48;0.2;0.0;-0.0625;0.25
184409;9.74;0.51;0.14;0.125;-0.4375;0.375
184409;9.76;0.53;0.22;-0.0625;-0.625;0.4375
184409;9.77;0.54;0.2;-0.3125;-0.5;0.3125
184409;9.77;0.52;0.19;-2.125;0.375;-0.375
184409;9.72;0.42;0.22;-1.6875;0.1875;-0.4375
184409;9.74;0.4;0.19;-0.75;-0.25;-0.5625
184409;9.77;0.48;0.22;-0.5625;1.3125;-0.125
184409;9.79;0.49;0.15;-1.3125;1.625;-0.0625
184409;9.76;0.46;0.13;-1.3125;1.4375;-0.1875
184409;9.74;0.43;0.15;-1.0;0.8125;0.1875
184409;9.88;0.54;0.48;-0.375;-0.25;0.125
184409;9.78;0.39;0.19;0.875;-1.1875;0.125
184409;9.81;0.46;0.28;0.875;-1.0;-0.25
184409;9.86;0.52;0.34;0.5625;-0.5;-0.25
184410;9.73;0.5;0.24;-0.5;0.125;-0.125
184410;9.74;0.44;0.18;-0.625;0.25;-0.25
184410;9.76;0.45;0.23;-0.5;0.125;0.0
184410;9.8;0.5;0.18;-0.9375;0.125;0.0625
184410;9.81;0.42;0.24;-0.3125;-0.875;-0.0625
184410;9.76;0.47;0.23;-0.125;-1.0;-0.0625
184410;9.76;0.48;0.27;0.0;-0.9375;0.0
184410;9.76;0.47;0.19;-0.3125;-0.25;-0.125
184410;9.78;0.54;0.18;-0.75;0.3125;-0.1875
184410;9.73;0.54;0.23;-0.6875;0.1875;-0.3125
184410;9.73;0.47;0.13;-0.625;-0.1875;-0.375
184410;9.75;0.47;0.17;-0.75;-0.5;-0.3125
184410;9.75;0.49;0.17;-0.375;-0.8125;-0.125
184410;9.74;0.44;0.2;-0.125;-0.75;0.0
184410;9.75;0.46;0.2;0.0;-0.5625;-0.125
184410;9.77;0.46;0.17;0.0;-0.625;-0.125
184410;9.78;0.46;0.23;0.5625;-0.6875;0.125
184410;9.76;0.5;0.22;0.5;-0.875;-0.125
184410;9.77;0.47;0.14;0.4375;-0.625;0.0625
184410;9.75;0.48;0.21;0.625;-0.75;-0.125
184410;9.81;0.53;0.17;1.25;-0.625;-0.125
184411;9.78;0.5;0.17;1.0;-0.4375;-0.125
184411;9.78;0.51;0.21;0.6875;-0.375;-0.125
184411;9.75;0.49;0.11;-1.625;-0.375;0.0625
184411;9.78;0.46;0.12;-1.125;-0.75;0.125
184411;9.74;0.43;0.17;-0.625;-0.9375;0.0625
184411;9.77;0.39;0.2;-0.3125;-1.125;0.125
184411;9.76;0.52;0.13;-0.125;-0.75;0.1875
184411;9.77;0.52;0.07;-0.1875;-1.125;0.0625
184411;9.73;0.52;0.04;0.0;-1.75;0.0
184411;9.75;0.57;0.11;-0.1875;-1.9375;-0.1875
184411;9.77;0.5;0.04;-1.1875;-3.1875;-0.5
184411;9.81;0.49;0.06;-1.0;-3.4375;-0.25
184411;9.83;0.51;0.13;-1.25;-3.5625;-0.125
184411;9.83;0.51;0.15;-1.75;-2.4375;-0.3125
184411;9.79;0.44;0.09;-2.5625;0.125;-0.5
184411;9.79;0.42;0.07;-2.125;0.3125;-0.4375
184411;9.8;0.4;0.08;-1.8125;0.0625;-0.25
184411;9.77;0.41;0.07;-1.5;0.25;-0.5
184411;9.78;0.47;0.12;2.0;0.5625;0.25
184411;9.78;0.48;0.12;2.4375;0.375;0.1875
184411;9.77;0.5;0.14;2.375;0.75;0.25
184412;9.77;0.53;0.04;2.125;0.5;0.125
184412;9.8;0.54;0.1;1.4375;-0.3125;0.0
184412;9.77;0.55;0.09;1.1875;0.0;-0.1875
184412;9.76;0.51;0.07;0.8125;0.3125;-0.25
184412;9.74;0.49;0.1;0.3125;-0.1875;-0.0625
184412;9.73;0.56;0.04;-0.5625;-1.0;-0.3125
184412;9.76;0.58;0.01;-1.25;-1.375;-0.1875
184412;9.78;0.59;0.05;-2.3125;-1.3125;-0.4375
184412;9.84;0.55;0.06;-3.0625;-0.6875;-0.3125
184412;9.73;0.43;0.13;1.0625;-0.875;0.0
184412;9.74;0.47;0.13;1.5;-1.0;0.125
184412;9.77;0.46;0.14;2.3125;-1.1875;0.3125
184412;9.77;0.48;0.14;2.3125;-1.0;0.1875
184412;9.77;0.5;0.05;0.25;1.6875;0.1875
184412;9.75;0.48;0.04;0.5;1.4375;0.0625
184412;9.73;0.46;0.15;0.625;0.875;0.5
184412;9.75;0.48;0.17;0.75;0.6875;0.4375
184412;9.78;0.48;0.15;1.5625;0.75;0.1875
184412;9.79;0.52;0.14;1.3125;0.875;0.25
184412;9.79;0.5;0.09;0.8125;1.0;0.25
184412;9.71;0.52;0.12;0.4375;0.625;0.4375
184412;9.77;0.46;0.09;2.0625;-1.125;0.3125
184413;9.73;0.44;0.12;2.8125;-1.9375;0.25
184413;9.7;0.46;0.11;3.1875;-2.375;0.375
184413;9.72;0.49;0.12;3.5625;-2.75;0.3125
184413;9.68;0.43;0.01;-2.875;1.9375;-0.625
