timestamp;acc_x;acc_y;acc_z;gyro_x;gyro_y;gyro_z
192131;9.34;-2.69;-1.14;-1.875;-0.6875;1.4375
192131;9.34;-2.67;-1.18;2.4375;-0.5;1.125
192131;9.31;-2.67;-1.22;2.0;-0.625;0.9375
192131;9.31;-2.61;-1.3;2.125;-0.9375;0.6875
192131;9.35;-2.6;-1.26;2.0;-1.375;0.4375
192131;8.99;-2.86;-1.29;0.0625;-1.25;1.5625
192131;9.12;-2.85;-1.31;-0.125;-1.3125;1.4375
192131;9.72;-2.97;-1.12;-0.0625;-3.75;1.5625
192131;9.24;-2.88;-1.32;-2.1875;-2.375;1.625
192131;9.3;-2.8;-1.29;-2.75;-1.875;1.3125
192131;9.25;-2.81;-1.24;-4.0;-1.25;0.125
192131;9.06;-3.0;-1.36;-4.5;-1.3125;-0.6875
192131;8.84;-3.01;-0.86;1.6875;0.9375;0.5
192131;8.94;-2.97;-0.86;1.375;1.0;-0.25
192131;9.15;-2.9;-0.85;-0.25;1.1875;-2.1875
192131;9.83;-2.3;0.13;-8.4375;12.6875;-13.125
192131;9.67;-2.41;0.38;-12.8125;16.75;-15.0625
192131;8.43;-2.43;0.38;-21.0625;26.5625;-19.375
192131;5.52;-1.56;0.4;-31.375;39.125;-31.375
192131;5.51;-1.33;0.16;-27.0;34.9375;-31.875
192131;6.97;-1.98;0.14;-18.1875;26.4375;-27.5
192131;10.17;0.56;-1.66;-2.75;1.3125;-21.3125
192131;12.76;0.66;-2.81;-1.125;-11.5;-19.4375
192131;13.75;0.26;-3.68;8.8125;-23.5625;-12.8125
192131;16.02;-1.38;-1.69;11.375;-32.6875;-9.0625
192131;13.48;1.3;1.92;14.375;-24.5625;-26.6875
192131;12.92;1.64;1.93;13.4375;-14.5625;-23.8125
192131;9.64;0.81;0.4;8.625;-0.75;-11.75
192131;8.39;-0.27;-0.41;13.625;2.0625;5.6875
192131;8.37;-0.36;-0.52;11.75;1.0625;6.375
192131;8.58;-0.46;-0.46;9.5;-0.9375;8.1875
192131;9.41;-0.85;-0.15;9.5625;-1.0;8.9375
192131;9.02;-0.82;0.15;12.9375;11.5;20.75
192132;9.09;-0.75;0.17;12.25;12.25;16.9375
192132;8.83;-0.96;0.15;12.1875;13.25;12.1875
192132;8.78;-1.15;0.03;12.625;13.75;11.5625
192132;8.95;-1.31;0.73;25.0625;1.9375;22.1875
192132;9.28;-1.61;0.85;26.75;-4.4375;22.75
192132;9.34;-1.65;0.79;27.375;-7.125;22.3125
192132;13.32;-2.63;0.62;-2.5;-51.5625;24.1875
192132;13.76;-4.3;1.57;-20.5;-31.875;11.3125
192132;12.14;-7.67;1.03;-16.75;-17.875;10.375
192132;11.24;-7.38;0.67;-0.75;-8.9375;14.3125
192132;10.19;-4.98;-0.67;-18.8125;-26.6875;13.6875
192132;9.16;-4.19;-0.89;-16.125;-22.4375;7.4375
192132;8.76;-3.9;-0.97;-14.375;-21.625;5.125
192132;8.34;-3.66;-1.1;5.375;-7.5;-3.375
192132;8.27;-3.61;-0.96;5.25;-6.125;-6.0625
192132;8.25;-3.26;-0.6;4.1875;-4.5;-8.0625
192132;8.33;-3.16;-0.63;1.25;-2.4375;-12.0
192132;7.17;-2.26;0.87;-11.3125;31.875;-25.5
192132;6.29;-1.61;-0.03;-15.5625;38.1875;-31.625
192132;6.29;-1.18;-0.1;-18.3125;38.5;-32.375
192133;6.43;0.07;-0.6;-15.8125;30.4375;-16.5
192133;7.21;-0.1;-1.13;-24.0;28.1875;-20.0625
192133;9.58;-2.25;-3.7;-27.75;20.3125;-26.1875
192133;7.99;-1.07;-0.99;6.375;6.1875;-9.875
192133;8.5;-1.1;-1.28;0.5;-13.4375;-3.375
192133;11.27;-1.06;-1.24;0.0;-42.5625;5.375
192133;12.38;-1.08;-1.24;1.5625;-46.8125;3.3125
192133;8.84;-1.18;0.18;9.875;-9.0625;4.6875
192133;9.07;-1.2;0.23;12.625;-9.5;2.75
192133;9.31;-0.95;0.39;13.8125;-9.625;2.6875
192133;9.22;-0.84;0.25;15.875;-7.25;2.0625
192133;8.83;-1.25;0.26;26.875;7.625;14.3125
192133;8.94;-1.48;0.11;31.5;8.4375;14.4375
192133;8.74;-1.5;0.06;34.25;10.0;14.3125
192133;7.25;-1.16;0.77;37.0;5.0;20.4375
192133;7.62;-1.74;0.81;37.125;5.6875;19.0
192133;7.84;-1.95;0.01;40.1875;5.5;20.625
192133;8.0;-1.92;-0.58;46.25;-1.0;26.625
192133;9.96;-2.29;-1.04;12.8125;15.4375;-4.875
192133;9.65;-1.02;-0.66;9.0625;-6.9375;-3.625
192134;10.47;-1.16;0.21;3.3125;-15.5625;-1.125
192134;12.19;-2.85;0.54;-6.6875;-20.1875;4.5
192134;8.7;-3.01;-0.25;-7.375;-4.625;-15.5
192134;8.78;-3.44;-0.06;-5.0625;-6.4375;-11.125
192134;8.78;-4.17;0.45;0.375;-4.5625;-1.9375
192134;7.65;-1.86;1.32;-6.4375;14.125;-15.625
192134;7.5;-2.09;1.33;-12.0;16.1875;-16.375
192134;7.28;-2.06;1.5;-14.5;17.0;-17.1875
192134;6.8;-1.85;1.26;-19.3125;18.3125;-20.4375
192134;6.24;-2.33;-3.24;-13.5625;5.9375;-18.0
192134;9.25;-2.97;-2.87;-11.875;-5.1875;-20.4375
192134;11.23;-3.24;-1.57;-1.625;-7.375;-19.5625
192134;10.42;-0.76;0.01;-17.5;-9.25;4.375
192134;12.07;-0.91;0.39;-16.25;-13.5625;-6.0
192134;11.92;-1.03;-0.03;-14.3125;-10.625;-8.3125
192134;9.59;-0.27;0.88;0.375;-4.4375;2.25
192134;10.1;-0.55;1.27;1.6875;-6.1875;0.75
192134;10.18;-0.91;1.46;2.75;-4.5625;1.3125
192134;10.03;-1.08;1.44;8.0;2.8125;3.75
192134;7.81;-0.6;0.63;40.375;7.9375;6.0625
192135;8.23;-0.5;0.92;42.5625;8.5625;6.3125
192135;8.35;-0.37;1.14;41.75;10.0;7.3125
192135;8.39;0.15;1.51;38.625;12.5;9.5625
192135;10.82;-4.02;1.74;8.0;9.0625;-0.8125
192135;10.7;-4.51;1.39;11.25;5.5;-2.1875
192135;11.74;-4.03;2.41;15.1875;-4.125;-0.6875
192135;12.66;-3.54;3.76;14.4375;-1.9375;-0.125
192135;10.88;-2.87;2.27;-0.75;-9.875;14.5625
192135;10.32;-2.45;2.02;-2.1875;-10.0;9.1875
192135;9.37;-1.75;1.72;-5.8125;-12.5;7.0
192135;8.08;-1.8;2.3;-0.375;-12.4375;-0.4375
192135;8.16;-1.56;2.55;-2.875;-8.875;-0.9375
192135;7.95;-1.62;2.69;-8.0;-1.8125;-4.375
192135;7.52;-1.61;2.83;-10.4375;2.3125;-6.875
192135;8.17;-1.33;1.92;-18.375;8.1875;-29.625
192135;8.21;-1.58;1.14;-18.6875;10.4375;-32.3125
192135;8.0;-2.43;-0.75;-17.625;7.1875;-30.3125
192135;9.21;-2.37;0.17;0.0625;23.0625;6.5
192135;8.14;-2.18;-0.27;-0.5;11.6875;11.0
192135;8.6;-0.3;0.18;-5.125;-8.5625;5.3125
192135;9.28;0.28;0.04;-5.0625;-16.1875;-0.625
192136;8.74;-0.97;1.24;19.3125;3.5625;3.5625
192136;8.62;-0.22;1.29;25.6875;2.8125;4.0625
192136;8.36;0.22;1.69;33.6875;1.0;6.0
192136;8.07;0.25;1.77;35.75;3.375;9.4375
192136;8.32;0.37;1.85;48.0625;9.75;13.3125
192136;8.05;0.19;2.3;47.6875;19.1875;14.5625
192136;7.68;-0.18;1.5;49.125;22.625;15.875
192136;9.64;-1.85;1.23;10.875;33.9375;-19.0625
192136;9.82;-1.14;1.29;19.6875;6.25;-9.375
192136;11.41;-2.09;1.79;20.0625;-1.4375;-3.0625
192136;11.83;-2.75;2.03;17.8125;-8.0625;8.625
192136;8.34;-1.87;2.43;0.5625;0.3125;-23.5
192136;7.73;-2.45;1.96;3.0625;-2.1875;-21.0
192136;7.52;-2.39;2.09;5.25;-4.8125;-18.1875
192136;7.0;-1.75;2.52;7.125;-7.3125;-13.9375
192136;7.24;-1.44;2.3;7.8125;7.4375;-30.6875
192136;6.95;-1.77;1.87;12.5;5.875;-29.1875
192136;6.92;-1.91;2.35;19.4375;3.625;-22.5625
192136;18.32;0.21;1.7;58.8125;-8.5;13.3125
192136;14.71;0.37;0.81;53.4375;-4.375;9.0
192137;14.32;0.24;0.29;53.0;-6.0625;5.0625
192137;12.44;-1.32;0.08;61.0;-15.5625;16.125
192137;10.23;0.33;1.24;69.6875;-24.9375;9.875
192137;9.69;0.22;0.96;68.3125;-24.5625;9.5625
192137;9.43;0.07;0.87;65.0;-24.3125;7.6875
192137;8.87;-0.75;0.69;64.25;-23.625;6.875
192137;8.1;-0.98;1.17;71.125;-10.8125;15.75
192137;8.2;-1.05;1.44;71.8125;-9.375;16.6875
192137;8.55;-1.19;1.82;72.875;-8.125;17.5625
192137;6.69;2.32;-11.2;122.5625;-34.625;42.125
192137;8.71;7.35;-11.54;100.75;-67.75;33.0625
192137;24.18;-0.68;6.47;-8.125;-95.3125;-52.5625
192137;26.97;-4.77;10.56;-29.875;-59.875;-80.9375
192137;11.6;-5.04;-1.06;39.0625;-11.25;-15.6875
192137;10.78;-3.95;-1.26;62.25;-11.125;-14.6875
192137;9.59;-1.66;-0.98;68.375;-15.75;-10.5625
192137;7.58;-1.57;-0.31;67.8125;-9.1875;-8.9375
192137;7.71;-1.56;-0.3;66.125;-9.1875;-9.1875
192137;8.1;-1.79;0.26;61.0;-8.4375;-9.75
192137;9.99;-0.78;1.97;27.5625;8.8125;-31.375
192138;10.33;0.49;2.46;14.4375;10.75;-36.0
192138;10.44;0.98;2.73;7.3125;14.5;-40.3125
192138;10.2;0.44;1.36;2.3125;23.125;-46.5625
192138;6.1;1.68;-0.98;43.6875;8.375;1.4375
192138;6.15;2.1;-1.73;33.25;-0.25;-2.875
192138;8.38;0.85;-2.46;27.8125;-19.625;-6.75
192138;8.2;-1.63;-1.99;52.6875;12.75;-1.1875
192138;9.24;-2.2;-1.45;59.0;-1.625;9.9375
192138;10.43;-2.38;-0.79;63.6875;-4.25;12.875
192138;11.26;-2.25;-0.4;73.8125;-2.8125;13.25
192138;10.08;-1.57;0.39;62.25;-1.0;6.25
192138;9.86;-1.48;0.53;63.25;1.125;6.875
192138;9.39;-1.13;0.37;64.8125;2.625;6.125
192138;9.07;-0.91;0.43;65.125;1.875;5.9375
192138;9.01;-1.54;1.18;65.25;-2.3125;19.0
192138;9.04;-1.65;1.43;65.9375;-2.6875;19.0
192138;8.95;-1.78;1.3;66.875;-2.8125;20.75
192138;11.68;2.71;-4.53;60.6875;-50.6875;2.8125
192138;13.6;1.85;-2.55;43.9375;-48.1875;-10.125
192138;15.97;-3.76;1.6;6.625;-10.9375;-36.3125
192138;15.18;-5.15;2.07;-3.875;4.625;-40.9375
192139;10.09;-2.34;-0.55;33.4375;-15.0;-9.375
192139;10.34;-1.74;-0.62;39.1875;-21.3125;-7.375
192139;10.43;-1.74;0.0;39.0625;-23.125;-3.125
192139;8.65;-1.61;0.83;25.9375;-1.25;-2.5625
192139;8.56;-1.56;0.83;22.5625;1.1875;-3.25
192139;8.3;-1.54;0.62;15.3125;2.6875;-3.75
192139;7.77;-1.68;0.31;11.8125;2.375;-3.25
192139;8.13;-1.14;0.56;-12.4375;6.8125;-23.1875
192139;8.12;-1.38;0.91;-13.0625;9.75;-24.125
192139;8.17;-1.73;0.89;-11.4375;15.625;-24.5
192139;8.87;-1.57;-0.09;-12.625;30.125;-18.6875
192139;9.48;-2.71;-1.91;-11.5;25.75;-16.875
192139;9.97;-3.25;-2.06;2.5625;11.625;-7.125
192139;11.27;-3.71;-1.0;11.9375;7.0625;-1.8125
192139;12.38;-0.51;1.42;-16.125;3.5;-9.375
192139;13.65;-0.48;1.51;-4.0;10.4375;-13.5
192139;12.98;-0.93;1.58;-0.9375;12.875;-11.125
192139;9.08;0.42;0.98;11.3125;-13.125;1.0625
192139;8.85;0.15;1.15;10.6875;-14.125;2.125
192139;8.78;-0.1;1.17;7.3125;-13.875;6.1875
192140;8.76;-0.48;1.06;6.125;-13.1875;7.8125
192140;8.56;-0.69;1.17;23.3125;-1.0;16.25
192140;8.33;-0.73;1.26;24.5;-1.9375;16.9375
192140;8.21;-0.67;1.3;26.8125;-3.5;19.625
192140;8.03;-0.63;1.24;28.1875;-4.625;21.125
192140;8.28;-0.2;1.3;27.5625;3.75;30.75
192140;7.98;-0.14;0.0;23.9375;3.875;28.375
192140;8.08;-0.34;-0.23;20.5625;1.125;26.8125
192140;9.01;-2.27;-0.9;2.5625;11.0625;-6.625
192140;9.66;-1.95;-0.44;6.625;-1.125;-0.625
192140;11.42;-1.81;0.75;5.5;-16.125;10.75
192140;12.68;-2.03;1.21;-2.0;-19.3125;9.1875
192140;8.77;-3.95;0.39;3.8125;-18.5;3.8125
192140;8.54;-3.94;0.4;11.8125;-21.25;3.125
192140;8.45;-3.83;0.35;15.375;-22.4375;2.6875
192140;7.78;-1.75;1.17;5.8125;-17.125;-10.8125
192140;7.86;-1.73;1.25;4.8125;-16.5;-12.0
192140;8.3;-1.84;1.39;0.625;-14.875;-16.0625
192140;8.66;-2.04;1.47;-3.0;-10.3125;-18.3125
192140;8.36;-1.47;1.58;-10.0625;14.8125;-35.6875
192141;8.58;-2.08;1.66;-8.375;17.25;-34.125
192141;8.33;-2.23;1.84;-5.8125;18.375;-30.25
192141;16.42;-0.4;4.18;27.75;-38.875;-8.125
192141;17.13;1.16;7.4;24.25;18.25;-12.9375
192141;15.52;1.2;5.98;23.6875;48.375;-13.3125
192141;10.02;0.71;1.3;16.625;49.5;-9.875
192141;9.32;-0.03;-0.04;4.1875;10.5625;-5.625
192141;9.18;-0.94;-0.38;-1.375;-4.625;-2.1875
192141;9.8;-1.24;-0.3;0.5;-9.5625;-0.5625
192141;10.31;-1.14;0.27;7.3125;-11.8125;1.5625
192141;9.17;-0.87;1.26;19.5;-1.4375;13.875
192141;9.05;-0.85;1.28;20.75;1.5;13.875
192141;8.55;-0.92;1.19;23.5;6.125;13.6875
192141;8.35;-1.24;1.53;30.875;7.5625;27.5625
192141;8.09;-1.11;1.32;31.625;10.4375;29.0625
192141;7.75;-1.05;1.21;31.3125;10.9375;28.9375
192141;7.24;-1.09;1.21;31.0625;11.75;29.0625
192141;14.98;-5.86;1.38;-8.5625;2.5;11.75
192141;17.05;-6.6;5.96;-9.0;18.75;7.0625
192141;15.37;-5.57;5.04;-0.6875;53.0625;-5.75
192142;10.6;-3.1;0.75;-4.5;-5.0;-13.5625
192142;10.16;-2.59;0.28;-3.4375;-15.625;-11.875
192142;9.97;-2.44;0.65;-3.0;-19.8125;-9.125
192142;9.96;-2.76;1.08;-5.3125;-20.0;-3.25
192142;7.67;-1.93;1.55;-0.1875;-4.5;-5.875
192142;7.65;-2.17;1.73;-2.4375;-2.125;-6.25
192142;7.6;-2.36;1.73;-4.5625;2.0;-6.875
192142;7.32;-1.3;1.94;-23.375;10.25;-22.25
192142;7.28;-1.57;1.89;-20.8125;12.4375;-23.0625
192142;7.09;-2.28;1.69;-18.1875;13.5;-23.5
192142;6.52;-2.53;0.82;-14.5;13.625;-21.0
192142;16.19;-0.39;1.14;19.375;-6.125;-2.0625
192142;15.38;0.3;3.75;12.8125;1.875;-4.5625
192142;15.08;0.28;3.37;6.875;16.875;-6.5
192142;11.71;-0.76;0.8;3.625;-20.4375;-7.5625
192142;10.74;-1.43;0.39;1.9375;-22.125;-4.375
192142;9.97;-1.61;0.07;2.1875;-23.6875;-2.4375
192142;9.68;-1.49;-0.12;6.25;-27.8125;-1.5625
192142;8.37;-1.14;0.65;15.5625;-19.125;6.625
192142;8.25;-0.11;0.98;17.125;-15.875;5.75
192143;8.14;0.07;1.0;15.9375;-9.8125;3.6875
192143;8.12;-0.03;1.05;14.9375;-7.9375;3.625
192143;8.27;-0.78;0.79;24.6875;26.125;17.9375
192143;8.05;-0.71;0.69;25.8125;25.0;18.3125
192143;8.0;-0.54;0.53;28.4375;21.0625;19.8125
192143;9.27;-1.17;-2.29;14.1875;-2.875;28.8125
192143;11.04;-0.65;-0.95;-0.5;-8.0;24.0625
192143;12.26;-1.05;-0.59;-26.6875;-12.0625;5.125
192143;16.55;-6.22;0.86;-24.0625;-13.125;1.0625
192143;11.55;-3.93;1.24;-5.6875;-19.6875;5.625
192143;10.94;-4.2;1.38;-7.25;-17.125;-0.0625
192143;10.03;-4.38;1.62;-3.4375;-14.0625;-4.875
192143;7.64;-2.5;1.05;14.75;-9.5;-6.6875
192143;7.81;-2.06;1.26;16.125;-9.0625;-7.125
192143;7.82;-1.78;1.51;14.0625;-2.6875;-9.4375
192143;7.66;-1.63;1.08;11.25;2.625;-10.5625
192143;7.65;-2.73;1.15;-7.125;4.75;-17.9375
192143;8.24;-3.08;1.62;2.5625;4.5625;-10.0625
192143;9.57;-3.44;2.67;4.5625;7.0;-12.1875
192143;9.69;-3.53;2.57;5.0625;14.3125;-15.5
192143;10.63;-1.4;-0.68;-2.125;-8.0;-12.0
192144;11.75;-1.91;0.81;-1.1875;-7.1875;-14.75
192144;12.9;-1.79;2.34;1.875;-4.625;-15.9375
192144;11.32;-0.77;0.29;1.25;-17.5625;-1.0625
192144;11.93;-0.61;0.73;4.8125;-24.4375;-1.0
192144;12.33;-0.58;0.91;6.5625;-22.5625;-2.5
192144;8.64;0.08;1.34;4.125;-10.6875;1.625
192144;8.49;-0.09;1.35;3.1875;-7.5;2.625
192144;8.26;-0.68;1.56;2.3125;-2.5625;6.625
192144;7.97;-0.83;1.35;3.0;-0.0625;8.75
192144;7.38;-0.91;1.01;19.6875;16.4375;20.625
192144;7.26;-0.97;1.09;21.6875;16.0;22.375
192144;7.66;-0.84;1.8;23.4375;15.875;24.0625
192144;7.81;-0.61;1.86;23.75;16.625;25.5625
192144;13.13;-2.83;-1.2;-11.0625;-20.3125;25.6875
192144;17.29;-4.03;4.79;-32.5;-3.125;14.0
192144;18.7;-5.54;7.88;-34.3125;26.125;4.1875
192144;10.53;-2.73;2.4;15.5625;0.1875;-1.5625
192144;9.33;-1.58;1.66;19.4375;-4.25;-5.6875
192144;9.4;-1.24;1.74;20.25;-15.8125;-7.6875
192144;9.79;-1.56;2.18;18.6875;-19.6875;-7.125
192145;7.75;-1.75;2.91;23.75;-6.0;-1.5625
192145;8.0;-1.97;3.02;23.375;-4.1875;-2.875
192145;7.88;-2.19;3.16;22.625;-2.875;-5.4375
192145;7.53;-2.28;2.85;21.625;6.5;-9.25
192145;7.63;-1.98;3.23;27.5625;8.0625;-13.3125
192145;8.01;-1.76;3.34;27.75;9.875;-12.625
192145;8.24;-1.68;1.72;28.375;13.9375;-9.6875
192145;12.54;-1.55;1.43;25.3125;22.75;-8.0625
192145;9.16;-2.39;-0.29;29.4375;16.75;0.125
192145;9.0;-2.47;-0.73;31.0625;3.8125;7.375
192145;10.98;-1.84;-0.76;32.375;-27.875;16.5625
192145;10.19;-1.35;1.07;45.625;-34.375;5.8125
192145;10.09;-0.54;1.5;48.75;-33.0;6.5625
192145;9.87;-0.37;1.48;54.75;-28.875;7.25
192145;8.17;-0.77;1.54;69.5625;-24.875;15.625
192145;8.34;-0.9;1.77;72.5625;-22.4375;17.375
192145;8.39;-0.85;1.81;73.5;-20.5625;18.8125
192145;8.5;-0.57;1.86;74.25;-16.5;20.8125
192145;15.59;-3.2;4.62;24.4375;-2.5625;-29.5625
192145;11.09;-5.66;2.41;30.4375;15.9375;-32.5
192146;9.32;-5.35;1.34;57.1875;33.0625;-13.75
192146;9.44;-2.91;-0.18;36.8125;-10.25;-2.0625
192146;9.32;-2.59;0.22;44.875;-19.375;3.125
192146;9.35;-2.64;0.42;46.125;-21.375;5.125
192146;9.42;-2.7;0.64;46.875;-20.25;6.25
192146;8.57;-2.2;1.52;40.8125;-10.6875;-3.9375
192146;8.84;-1.96;1.74;39.5;-8.3125;-4.375
192146;8.9;-1.8;1.97;36.5625;-3.4375;-8.3125
192146;10.37;-0.83;-0.68;-3.0625;11.0;-44.8125
192146;11.23;-3.17;-2.78;-0.4375;-3.0;-46.1875
192146;12.06;-4.16;-1.47;2.6875;-18.625;-42.4375
