timestamp;seconds_elapsed;acc_z;acc_y;acc_x;gyro_z;gyro_y;gyro_x
1768416580594849500;0.055849609375;-0.0040577509582042;0.0888859056770801;-0.0698388215102255;-0.005833241622895;-0.0038254365790635;-0.0107302144169807
1768416580604850400;0.065850341796875;-0.0101847824711352;0.038484336695075;-0.0687232614837586;-0.0044860765337944;-4.52233944088e-05;-0.0143750384449958
1768416580614852400;0.075852294921875;-0.0189594789486378;-0.0021802666485309;-0.0822309047672897;-0.0032700768206268;0.0068283951841294;-0.0175689663738012
1768416580624853500;0.085853515625;-0.0019873013596981;-0.0406891532629728;-0.092189038875699;-0.0063607487827539;0.0102268829941749;-0.0259699895977973
1768416580634854700;0.095854736328125;0.0048631490569561;-0.0471188940495252;-0.0859231834139674;-0.0062243952415883;0.0113390190526843;-0.0265641398727893
1768416580644856600;0.105856689453125;-0.0325367534022778;-0.0312689984887838;-0.0508813153229653;-0.0063363816589117;0.0140264024958014;-0.0228660982102155
1768416580654857700;0.115857666015625;-0.0465079956095665;-0.0250321499258279;-0.0198615423548966;-0.0046604545786976;0.0166211202740669;-0.0189579091966152
1768416580664858600;0.125858642578125;-0.027822072905302;-0.045323242804408;-0.047208252833411;-0.0040065087378025;0.0220942161977291;-0.0175546184182167
1768416580674859500;0.135859619140625;-0.0158732764363288;-0.0431610963344573;-0.0844163590475916;-0.0035540380049496;0.0270732622593641;-0.0235379431396722
1768416580684861400;0.145861328125;-0.0289630596339702;-0.0331201793134212;-0.1204383242171257;-0.0060677332803606;0.0336494445800781;-0.030839055776596
1768416580694862600;0.155862548828125;-0.0914939692836254;-0.0122375502824783;-0.1296707013342529;-0.0108537003397941;0.0354556031525135;-0.0308872610330581
1768416580704863500;0.165863525390625;-0.1172573560934513;0.0063929159075021;-0.1223392624676227;-0.0117082428187131;0.0405148901045322;-0.0245507694780826
1768416580714865400;0.175865478515625;-0.1091406851332634;0.0010310966134071;-0.1470301246751099;-0.0118182320147752;0.0476436391472816;-0.0204857196658849
1768416580724866600;0.185866455078125;-0.1163992779593914;-0.0486585247069597;-0.1738029807884246;-0.0083898091688752;0.0531227514147758;-0.0241013802587986
1768416580734867500;0.195867431640625;-0.1206511632502078;-0.075099956908822;-0.2082778626464307;-0.0069399839267134;0.0619236975908279;-0.0354504399001598
1768416580744869400;0.205869384765625;-0.1144506281096488;-0.0757329941153526;-0.2358849776268005;-0.0029720033053308;0.0678122267127037;-0.0459267608821392
1768416580754870500;0.21587060546875;-0.1308628337282687;-0.0549362898021936;-0.2788640684578568;0.000763080199249;0.0777106657624244;-0.0531351380050182
1768416580764871700;0.22587158203125;-0.1368249570030719;-0.0116518593490123;-0.3267425487030297;0.0057013798505067;0.088772103190422;-0.0692062526941299
1768416580774872600;0.23587255859375;-0.1439069511532783;0.0311480024576187;-0.3905570684224367;0.0084007596597075;0.0978305786848068;-0.0915142148733139
1768416580784874500;0.24587451171875;-0.1894762046080082;0.0883440538853406;-0.4244996700346469;0.0080850385129451;0.109178826212883;-0.1166526153683662
1768416580794875600;0.255875732421875;-0.2482884590607136;0.1248942076474428;-0.4624848981011659;0.0088791931048035;0.1204650402069091;-0.1346782147884369
1768416580804876500;0.26587646484375;-0.2873918044369667;0.122954179495573;-0.4811214287057518;0.0104985926300287;0.1278254240751266;-0.1539160907268524
1768416580814878500;0.27587841796875;-0.3125437813501804;0.1001841292828321;-0.5313366082701831;0.0106237605214118;0.1390064507722854;-0.173000305891037
1768416580824879400;0.28587939453125;-0.3081155165791511;0.0491717349261045;-0.5694089300982654;0.0049771275371313;0.1356469690799713;-0.2003152072429657
1768416580834880500;0.295880615234375;-0.3650806818604469;0.0223515325397253;-0.5982618804212659;-0.0055008139461278;0.124848373234272;-0.2248503863811493
1768416580844882400;0.30588232421875;-0.4323906424801796;-0.0198030171006917;-0.6062446958687157;-0.0144585529342293;0.1123178526759147;-0.2440931051969528
1768416580854883300;0.31588330078125;-0.4867302084982395;-0.0737432816028594;-0.6436717055305838;-0.0267698150128126;0.0988558381795883;-0.2569199502468109
1768416580864884700;0.325884765625;-0.5506581254642456;-0.1455050339996814;-0.7090403228241949;-0.0334321111440658;0.08814188092947;-0.2707083225250244
1768416580874885600;0.3358857421875;-0.6048293491780757;-0.2412193243920803;-0.7426758312486111;-0.0467178225517272;0.0793414637446403;-0.2822192907333374
1768416580884887600;0.345887451171875;-0.6195767633896321;-0.294760360443592;-0.7357816878207027;-0.0587704926729202;0.0620121620595455;-0.2913219332695007
1768416580894888700;0.355888671875;-0.6161433548748493;-0.3323544703006744;-0.6812998637877404;-0.0696303248405456;0.0486622713506221;-0.2910151183605194
1768416580904889600;0.3658896484375;-0.5578876017937436;-0.3216249864935874;-0.5986033142700791;-0.0766397640109062;0.0295561775565147;-0.2854534685611725
1768416580914891500;0.3758916015625;-0.4552817617893219;-0.2732183907210826;-0.5067698108337819;-0.0835541263222694;0.0217131692916154;-0.2835040390491485
1768416580924892400;0.385892333984375;-0.3137783646464347;-0.161964585891366;-0.4157692510902881;-0.089412085711956;0.008850572630763;-0.29277104139328
1768416580934893600;0.3958935546875;-0.2424525925140827;-0.0472714542627334;-0.3386090006507933;-0.0905306190252304;-0.0045456602238118;-0.3022691905498504
1768416580944895500;0.4058955078125;-0.2232020581969991;0.0583650952070951;-0.2584768217284232;-0.0890277251601219;-0.0099892560392618;-0.3000862598419189
1768416580954896400;0.415896484375;-0.1512041954893618;0.1489957987248897;-0.1888838647380471;-0.0803910940885543;-0.0103807412087917;-0.2858093380928039
1768416580964897500;0.4258974609375;-0.0581307019293308;0.1780623187333345;-0.163301314387843;-0.0795783028006553;-0.009896489791572;-0.2618210017681122
1768416580974899500;0.4358994140625;0.0257002584457397;0.193240598642826;-0.1700531267356127;-0.0893675535917282;-0.0053328964859247;-0.234958216547966
1768416580984900400;0.445900390625;0.1189314633181318;0.1820470044553279;-0.1764060028936714;-0.1016533747315406;-0.0033476764801889;-0.2083708792924881
1768416580994901500;0.455901611328125;0.2187748163392767;0.1673947942465543;-0.2456509501639753;-0.1123310551047325;-0.0005758584011346;-0.1871454864740371
1768416581004902700;0.465902587890625;0.2483469477823004;0.1286912618428468;-0.2980086947150528;-0.1295740306377411;0.0070416308008134;-0.1662860363721847
1768416581014904600;0.475904541015625;0.2958721210777759;0.1165016423553228;-0.2632499544143676;-0.1400106996297836;0.0017541912384331;-0.1394424438476562
1768416581024905500;0.485905517578125;0.3017629326820373;0.0592541530013084;-0.1888702015388756;-0.1484479010105133;-0.0031004131305962;-0.1187597885727882
1768416581034906600;0.49590673828125;0.3066588880300521;0.0151759418219327;-0.0357469476204365;-0.1581338196992874;-0.0165520403534173;-0.1021315455436706
1768416581044908500;0.505908447265625;0.2989583966553211;0.0185527247786521;0.1445394038379192;-0.1653424054384231;-0.0317088924348354;-0.0975747555494308
1768416581054909400;0.515909423828125;0.2112053309330716;0.0648000966906547;0.2401329173948615;-0.1852149069309234;-0.0359555669128894;-0.0794106647372245
1768416581064910300;0.525910400390625;0.0802794053733348;0.1460252584815025;0.3373904917065054;-0.2078620344400406;-0.0457552596926689;-0.0383203290402889
1768416581074912500;0.53591259765625;-0.0757002608895301;0.245358323892951;0.5739973538670688;-0.2223317921161651;-0.0558214746415615;0.0285444539040327
1768416581084913400;0.545913330078125;-0.0304558920076116;0.2449614335298538;0.8207837378017604;-0.2388644218444824;-0.0662508308887481;0.0904152318835258
1768416581094914600;0.55591455078125;0.1576140259990468;0.1678524748861789;1.0399396989457308;-0.2474770843982696;-0.0967682600021362;0.1449311971664428
1768416581104915700;0.565915771484375;0.2933306199014187;0.0322147549062967;1.217294600062072;-0.2521787583827972;-0.121771715581417;0.2055749148130417
1768416581114917600;0.575917724609375;0.4608920028865337;-0.1321247434228658;1.2897662542939186;-0.2441892921924591;-0.1339322477579116;0.2425494492053985
1768416581124918500;0.58591845703125;0.608366875654459;-0.3429553592920303;1.2750146753638982;-0.2288854420185089;-0.1343787610530853;0.2330080419778823
1768416581134919700;0.595919677734375;0.6328630190074443;-0.535364767807722;1.1893769578278064;-0.2187861949205398;-0.1228262409567833;0.1907953470945358
1768416581144921600;0.605921630859375;0.5193161348044872;-0.591025864753127;1.0112607169501482;-0.2041378766298294;-0.1016590073704719;0.1462670862674713
1768416581154922500;0.615922607421875;0.3126467668006196;-0.5730991629183292;0.7688558360353112;-0.1924500614404678;-0.0670488327741622;0.1187377274036407
1768416581164923400;0.62592333984375;0.0036614816496148;-0.4904103583157062;0.4838632747597992;-0.1864972859621048;-0.0232980940490961;0.1032274663448333
1768416581174925600;0.635925537109375;-0.2873568427214398;-0.3366770096749067;0.2398820844389498;-0.1885559111833572;0.0342781171202659;0.1086414083838462
1768416581184926500;0.645926513671875;-0.466619184894301;-0.1353355221629142;0.0687267686150968;-0.1844181567430496;0.1078899800777435;0.1382348984479904
1768416581194927400;0.65592724609375;-0.450298128157854;0.0437765978842973;-0.1059736724697053;-0.1791863739490509;0.1774762421846389;0.1767961382865905
1768416581204928500;0.665928466796875;-0.3584615925142541;0.1588970150142908;-0.2031399883013218;-0.1778926104307174;0.2322677671909332;0.2126546204090118
1768416581214930400;0.675930419921875;-0.2768400152843445;0.2585205878049135;-0.2344416469506919;-0.1776279062032699;0.2697687745094299;0.248284250497818
1768416581224931600;0.685931640625;-0.2027402483940124;0.3558277003467083;-0.1854005526669323;-0.1840431988239288;0.2926253080368042;0.2797490656375885
1768416581234932500;0.695932373046875;-0.1214706629395484;0.4344108231961727;-0.0829153068348765;-0.191329076886177;0.3084404766559601;0.2964183092117309
1768416581244934700;0.7059345703125;-0.0567501342911273;0.5445809244424105;0.1000256142528727;-0.189144417643547;0.3166016340255737;0.2944363057613373
1768416581254935600;0.715935546875;-0.0387900416433811;0.6425216587126255;0.3230632391357794;-0.166281446814537;0.321993738412857;0.2686185538768768
1768416581264936400;0.7259365234375;-0.1124667242834344;0.6881681421220303;0.5158369509192183;-0.133146658539772;0.3309764564037323;0.233365848660469
1768416581274938600;0.735938720703125;-0.3086463355202227;0.6297241364598274;0.663423576965928;-0.0951004698872566;0.338197112083435;0.2118778675794601
1768416581284939500;0.745939453125;-0.5386322451710701;0.4950748429954051;0.7783416033916175;-0.0570098794996738;0.3337988555431366;0.2104286700487136
1768416581294940400;0.7559404296875;-0.7125882245641201;0.3340899157911539;0.8587311180759221;-0.0168496742844581;0.3324510455131531;0.2197028547525406
1768416581304943600;0.765943603515625;-0.7545791811406612;0.1483943257004022;0.8758268489792943;0.024004079401493;0.326122522354126;0.2243450433015823
1768416581314944500;0.775944580078125;-0.7129074465811253;-0.0706254418432712;0.8005695826169102;0.0594749897718429;0.3203285336494446;0.2129027694463729
1768416581324945400;0.7859453125;-0.6142096833985299;-0.2600461899369954;0.6932905997022986;0.0795241370797157;0.3039162158966064;0.1783229112625122
1768416581334946600;0.795946533203125;-0.4921453654147684;-0.3747743928790092;0.625540567164868;0.0944298505783081;0.2815246284008026;0.1274008601903915
1768416581344948500;0.805948486328125;-0.4608545934855937;-0.4353787914454937;0.5710542130872607;0.1111609563231468;0.2609323859214782;0.0771165639162063
1768416581354949400;0.815949462890625;-0.4862848028182983;-0.4216846126139164;0.5113145050587132;0.1320686340332031;0.2444698065519333;0.028483510017395
1768416581364950800;0.82595068359375;-0.5485328038733452;-0.3738426649868488;0.4488772285092622;0.1526767760515213;0.2354128807783126;-0.0121171455830335
1768416581374952400;0.835952392578125;-0.6447872655570507;-0.2853407901912927;0.380207523843646;0.170479729771614;0.2332919389009475;-0.042750421911478
1768416581384953600;0.84595361328125;-0.7420319073218852;-0.1749479861050844;0.3145730952206998;0.1838561296463012;0.2356335967779159;-0.0620709657669067
1768416581394954800;0.855954833984375;-0.8146200275402515;-0.0856049843102693;0.280473622546345;0.1943793445825576;0.242631047964096;-0.0846609696745872
1768416581404956700;0.865956787109375;-0.8420213908154517;0.0061415714949369;0.260528128235042;0.2040622681379318;0.2583451271057129;-0.0965537875890731
1768416581414957600;0.87595751953125;-0.820623140412569;0.0463385573267936;0.2278988742437213;0.213652566075325;0.2805220782756805;-0.1002065762877464
1768416581424958500;0.88595849609375;-0.7920973031520843;0.0195399822503328;0.1451471604727208;0.2248811274766922;0.3156268000602722;-0.1076663359999656
1768416581434960600;0.895960693359375;-0.7463735897880047;-0.0481441454440355;0.0450273285977542;0.2337577193975448;0.3624044060707092;-0.132269412279129
1768416581444961500;0.90596142578125;-0.7087187627196312;-0.1593243005156517;-0.0349107159920036;0.243180438876152;0.4106405973434448;-0.1709821820259094
1768416581454962400;0.91596240234375;-0.6636649845063686;-0.1843441754817962;-0.0632820202779024;0.2491733580827713;0.4635163247585296;-0.2160924077033996
1768416581464963600;0.925963623046875;-0.6194798058211803;-0.1298205581337213;0.0038606209509074;0.2538481950759887;0.5156648755073547;-0.2471566647291183
1768416581474965500;0.935965576171875;-0.5762707786917686;-0.040509705042839;0.1035512676283717;0.2639346420764923;0.5681107640266418;-0.2594428658485412
1768416581484966400;0.94596630859375;-0.5633949305057525;-0.0902051715821027;0.080387249661982;0.2536611258983612;0.6161711812019348;-0.2523026168346405
1768416581494967600;0.955967529296875;-0.4621265496501698;-0.2187900504410266;0.0212747701536864;0.222893089056015;0.6565843820571899;-0.2255961745977401
1768416581504969500;0.965969482421875;-0.1647943294245749;-0.2047603560447692;0.1453513047426939;0.2010421752929687;0.6948262453079224;-0.2022692412137985
1768416581514970600;0.975970703125;0.2710708572983741;-0.13187456805408;0.1932894062206149;0.1912728995084762;0.7413063645362854;-0.1723022907972335
1768416581524971500;0.985971435546875;0.6605155805647372;-0.1910626700818538;0.0682123162869364;0.1673099100589752;0.7481626272201538;-0.1297900080680847
1768416581534973700;0.9959736328125;0.889355900377035;-0.3974602719396352;-0.0984757179297506;0.096301257610321;0.6968117952346802;-0.0639270991086959
1768416581544974600;1.005974609375;0.978632266676426;-0.5941939733952284;-0.0474016565136611;0.0004219922120682;0.6091845631599426;0.0175599679350852
1768416581554975500;1.0159755859375;0.999434231686592;-0.6454010135412216;0.2817079866468906;-0.08931615203619;0.5161416530609131;0.0791764631867408
1768416581564976400;1.025976318359375;0.9720785341840236;-0.5877572183459997;0.7456781548697501;-0.1276150047779083;0.4531569480895996;0.099833570420742
1768416581574978600;1.035978515625;0.8177531379342079;-0.4447714736908674;1.1148587463296948;-0.1036058142781257;0.4365276396274566;0.0769977644085884
1768416581584979500;1.0459794921875;0.6944178501665592;-0.2413520108610391;1.2737763657405972;-0.0434108451008796;0.4465778172016144;0.0349067971110343
1768416581594980400;1.05598046875;0.5832277216902002;-0.0254237795919179;1.2202510387148708;0.0285059548914432;0.4688279926776886;0.0091758696362376
1768416581604982500;1.065982421875;0.4744926947483792;0.1571539707392454;1.083404308271408;0.1066110134124755;0.5057885646820068;0.0254851356148719
1768416581614983700;1.075983642578125;0.4744961653470992;0.1897153471261262;0.6912824016850442;0.1891628801822662;0.558002233505249;0.0639632865786552
1768416581624984600;1.085984619140625;0.5771849343946204;0.0963894131749868;0.1566177449706941;0.2526722848415375;0.6235638856887817;0.0892356783151626
1768416581634986800;1.09598681640625;0.687055212444067;-0.0647545039832592;-0.3711400549646467;0.2904015481472015;0.7043724656105042;0.0779249668121337
1768416581644987600;1.105987548828125;0.7052794359207153;-0.2434089433908462;-0.8431331514496355;0.3097225129604339;0.7824518084526062;0.04479705914855
1768416581654988500;1.115988525390625;0.5883002026489004;-0.3818365863502025;-1.1864280448943376;0.3074433803558349;0.8379259705543518;-0.0006892005912959
1768416581664990700;1.12599072265625;0.3912344927599653;-0.3994698581963777;-1.284322455804795;0.2914678752422333;0.867083728313446;-0.0387744009494781
1768416581674991600;1.13599169921875;0.280233822441101;-0.3174462395042181;-1.1811712203446776;0.2605877220630646;0.8739994168281555;-0.0617036819458007
1768416581684992500;1.145992431640625;0.2163829527666792;-0.152848382499814;-0.8961147269874811;0.2141997814178466;0.8571649193763733;-0.0571573711931705
1768416581694993400;1.155993408203125;0.2382335865795612;0.0818406633406877;-0.4967756555639207;0.1597791463136673;0.8210532665252686;-0.018518628552556
1768416581704995600;1.16599560546875;0.3816705456009134;0.3684574648171663;-0.0648249388709664;0.1134536042809486;0.769352376461029;0.0347993858158588
1768416581714996500;1.17599658203125;0.5658125130414963;0.6489093139231205;0.273378988110274;0.0890212282538414;0.7174830436706543;0.0778134316205978
1768416581724997600;1.18599755859375;0.729773241186142;0.887535699212551;0.5219345006093382;0.0831036195158958;0.6661771535873413;0.1037739366292953
1768416581734999600;1.19599951171875;0.7951403241097926;1.0329366883158684;0.6736629391685128;0.096463106572628;0.617394745349884;0.1290055215358734
1768416581745000700;1.206000732421875;0.7083131045281886;1.0427297680556773;0.5984070610456168;0.1122799515724182;0.5792089104652405;0.1593908071517944
1768416581755001600;1.216001708984375;0.6320482685584574;0.9739905783504248;0.2995863192953169;0.1200952678918838;0.5451521277427673;0.1841233223676681
1768416581765003800;1.226003662109375;0.512733285815455;0.819271141281724;-0.0271722306944429;0.1121017783880233;0.5166609883308411;0.1928955465555191
1768416581775004700;1.236004638671875;0.3285200067043304;0.5724725554525852;-0.3068551412545144;0.0980834364891052;0.4927077293395996;0.1941594928503036
1768416581785005600;1.246005615234375;0.1808136267354712;0.3375532079875469;-0.5645663123726844;0.0769288167357444;0.4640094637870788;0.1969912350177765
1768416581795007500;1.256007568359375;0.1424339559912681;0.0941986251324415;-0.7561110668830573;0.0600014962255954;0.4404594004154205;0.1861204802989959
1768416581805008600;1.266008544921875;0.1005717038283124;-0.2365887419819831;-0.8534713709168136;0.047437310218811;0.3965717852115631;0.1525583267211914
1768416581815009500;1.276009521484375;-0.06699435533192;-0.4649743037641048;-0.7393358731709421;0.0298415347933769;0.3377830386161804;0.1207567304372787
1768416581825010400;1.286010498046875;-0.2417196385970339;-0.5721183351874352;-0.5716192996241152;0.0095667513087391;0.2736717760562897;0.1030425950884819
1768416581835012600;1.2960126953125;-0.2389232858767732;-0.5671627586066722;-0.4417170545563101;-0.0050822324119508;0.2202631384134292;0.0985724776983261
1768416581845013500;1.306013427734375;-0.1063210611352696;-0.5096861366719008;-0.3599266600981354;-0.012950075790286;0.171039342880249;0.0922477543354034
1768416581855014700;1.3160146484375;0.0202524779012426;-0.4456868349701166;-0.3641914779357612;-0.0148675516247749;0.1161934062838554;0.0827067121863365
1768416581865016600;1.3260166015625;0.0315454408099874;-0.2978244241893291;-0.4318604080609977;-0.0179536901414394;0.0552663654088974;0.0798854157328605
1768416581875017700;1.336017822265625;-0.0464110380411148;-0.162436295056343;-0.5589999104171991;-0.0094310399144887;0.0224698074162006;0.097743771970272
1768416581885018600;1.3460185546875;0.0086555270772427;-0.0580097058981656;-0.8488589086852967;0.0039226515218615;0.0354644507169723;0.1195472478866577
1768416581895020500;1.3560205078125;0.1117407115638256;0.0707289022177457;-1.287192750544101;0.0123387733474373;0.0826948136091232;0.1200726851820945
1768416581905021700;1.366021728515625;0.0959762292642146;0.274970787346363;-1.6995799579806623;0.0141374021768569;0.141038104891777;0.1087545678019523
1768416581915022600;1.376022705078125;-0.0862988117933273;0.5310919127941132;-1.983773185572028;0.0050328536890447;0.1863986700773239;0.1030894890427589
1768416581925024500;1.3860244140625;-0.1973041948199272;0.807799314674735;-2.060009745295346;-0.016232619062066;0.2154326140880584;0.0926851257681846
1768416581935025400;1.396025390625;-0.2828396575579419;0.9159908093243836;-1.8545310118481515;-0.030440317466855;0.246433138847351;0.0916259884834289
1768416581945026600;1.406026611328125;-0.3711106096744537;0.9913011941134928;-1.5597171676516532;-0.0466205552220344;0.2737804055213928;0.1028761863708496
1768416581955027500;1.41602734375;-0.4666495434999466;1.0118681813240051;-1.2599129678219556;-0.0723789110779762;0.289050430059433;0.1337483525276184
1768416581965029400;1.426029296875;-0.5087059299955144;0.8874643875420093;-0.9638654901772736;-0.1049578264355659;0.2870481014251709;0.1801449954509735
1768416581975030800;1.43603076171875;-0.4054547778248786;0.695675156751275;-0.67494567245543;-0.1272061318159103;0.2814181745052337;0.228506401181221
1768416581985031700;1.44603173828125;-0.1897884123623371;0.6006155308753252;-0.6442579809859394;-0.158011794090271;0.2617816030979156;0.2654458880424499
1768416581995033600;1.45603369140625;0.0148235481876879;0.5847422544389963;-0.7146316400252282;-0.1892501413822174;0.2319867014884948;0.2931928038597107
1768416582005034500;1.466034423828125;0.1600246308047324;0.5370271480619907;-0.6836828134015203;-0.2040281444787979;0.210758239030838;0.3186952471733093
1768416582015035600;1.47603564453125;0.2915150949120521;0.5782844566017389;-0.7958356128975749;-0.2194747477769851;0.1728585362434387;0.3377917110919952
1768416582025037600;1.48603759765625;0.3626291970551014;0.5018617266565562;-0.7304496791429818;-0.2220238000154495;0.1264120787382125;0.3887917697429657
1768416582035038500;1.49603857421875;0.4328652742546051;-0.0460667546480894;-0.2667645384065806;-0.1761836111545562;0.0800246074795723;0.5010538697242737
1768416582045039600;1.50603955078125;0.496859972846508;-0.7318757664233446;-0.0655490153618156;-0.1636882424354553;-0.0285319276154041;0.6245602965354919
1768416582055041500;1.51604150390625;0.3624842356264591;-1.5672235977590083;0.4029451330915093;-0.1488912105560302;-0.0733276233077049;0.7285154461860657
1768416582065042400;1.52604248046875;0.6828385445971041;-2.339564645561576;0.9676399672146886;-0.094763845205307;-0.0074184238910675;0.7755810618400574
1768416582075043600;1.536043701171875;1.4836721849776804;-2.5867566146224736;0.9086856739427894;-0.024751741439104;0.1187328547239303;0.672283411026001
1768416582085044700;1.546044677734375;1.907125414699316;-2.127363325861096;0.4006093836203217;0.0444110222160816;0.2082409113645553;0.4074952900409698
1768416582095046400;1.55604638671875;1.3195733635365965;-0.9491150802910328;-0.1606131712824106;0.0859491378068924;0.2306247800588607;0.1252713352441787
1768416582105047600;1.566047607421875;0.1068739092450588;0.4423018687069416;-0.4056552688330411;0.1099891662597656;0.2335948497056961;-0.0127745773643255
1768416582115048700;1.576048583984375;-0.6759365831889211;1.507616978058219;-0.392321593876928;0.1327277719974517;0.2039221674203872;-0.0150462538003921
1768416582125050600;1.586050537109375;-0.902559226951748;2.0087387000024317;-0.2158189256757497;0.1534183323383331;0.1538662910461425;0.0471652410924434
1768416582135051500;1.596051513671875;-0.9674468557953834;1.857292000994086;0.0356250017412006;0.1737246662378311;0.091665506362915;0.1208631619811058
1768416582145052700;1.606052734375;-0.9751064306378364;1.2750363026738163;0.0607109276808798;0.1683560013771057;0.0235826298594474;0.1873477399349212
1768416582155054600;1.6160546875;-0.8550527218241244;0.6012818858295679;-0.0801961110040545;0.1505498439073562;-0.0403164587914943;0.2365986406803131
1768416582165055500;1.626055419921875;-0.6985773809988052;-0.0673345836043357;-0.2343086682207882;0.1304983645677566;-0.0815575271844863;0.2654813826084137
1768416582175056400;1.636056396484375;-0.5429483548045158;-0.6179384215980768;-0.4365544110961258;0.1054420173168182;-0.1015184521675109;0.2838236391544342
1768416582185057500;1.6460576171875;-0.3231048497878014;-1.0070616578251124;-0.6504138732671737;0.0761694237589836;-0.0967901498079299;0.284736692905426
1768416582195059500;1.6560595703125;-0.0244377642292529;-1.2323258727163076;-0.7969521958373487;0.0391512140631675;-0.058785505592823;0.264900654554367
1768416582205060600;1.666060546875;0.2618997088491916;-1.229493864160776;-0.7916098118960857;-0.0002828149590641;-0.0158696379512548;0.2300580590963363
1768416582215061800;1.676061767578125;0.4281238518811762;-1.0085960277855397;-0.6525760197371244;-0.0334162674844265;0.0236069317907094;0.1864581108093261
1768416582225063700;1.686063720703125;0.4048961210288107;-0.6142611943900584;-0.459373415017128;-0.0555714964866638;0.0616786479949951;0.143635481595993
1768416582235064600;1.696064697265625;0.2597849086523056;-0.1531827290207147;-0.2010731919646263;-0.0543938465416431;0.0874857455492019;0.1111387908458709
1768416582245065500;1.7060654296875;0.0993777813360095;0.240595055013895;0.0237505856826901;-0.0300799924880266;0.1145306974649429;0.0856574401259422
1768416582255067600;1.716067626953125;-0.028710692308098;0.480582207262516;0.1748436489477753;0.0098125608637928;0.1371611803770065;0.0583352707326412
1768416582265068500;1.726068603515625;-0.1325682494066655;0.47281624943614;0.3233876122519373;0.0544005408883094;0.1613765358924865;0.0260444898158311
1768416582275069400;1.7360693359375;-0.1893207948505878;0.38939445438385;0.3762717918299138;0.063966616988182;0.1660154908895492;-0.0011956528760492
1768416582285071600;1.746071533203125;-0.2438414895892143;0.316631415989995;0.3220741915658116;0.0596709325909614;0.1481017768383026;-0.0047151991166174
1768416582295072500;1.756072509765625;-0.2898996225394308;0.1337596511483192;0.2169569897949695;0.0535837449133396;0.1462175846099853;0.0262086279690265
1768416582305073000;1.766072998046875;-0.0879249516904354;-0.1176291850805282;0.2184951591476797;0.0450419895350933;0.1175994798541069;0.0503084063529968
1768416582315074000;1.776073974609375;0.150158997285366;-0.2679015796124935;0.2220915762044489;0.0145165724679827;0.0777458027005195;0.0548799857497215
1768416582325076000;1.786075927734375;0.3156595022179186;-0.2907312510579824;0.096436613317579;-0.0093707181513309;0.0352758914232254;0.0353493951261043
1768416582335076900;1.796076904296875;0.3790918176867067;-0.200087103536725;0.0327398016937077;-0.0374383069574832;-0.0003457502461969;0.0010380272287875
1768416582345078000;1.806078125;0.2925112663425505;-0.1243096857577562;0.1348378017738461;-0.051309909671545;-0.022477351129055;-0.0308292210102081
1768416582355080000;1.816079833984375;0.1663141594029963;-0.084188103249669;0.203894532995671;-0.0660537034273147;-0.032789908349514;-0.0523294545710086
1768416582365080800;1.826080810546875;0.0506546669602394;-0.0396048651576042;0.2636684720873832;-0.063731163740158;-0.0323144011199474;-0.0594893656671047
1768416582375082000;1.83608203125;0.0216167885243892;-0.0485568178981542;0.3124421476066112;-0.0575616881251335;-0.0278269760310649;-0.0702461376786232
1768416582385084000;1.846083984375;0.0168098266340792;-0.1222059914767742;0.4210363778382539;-0.0387049056589603;-0.0175914708524942;-0.0810262635350227
1768416582395084800;1.856084716796875;0.005714285993576;-0.177059863692522;0.4948747903786599;-0.0251049399375915;-0.0016439303290098;-0.0958821699023246
1768416582405085700;1.866085693359375;-0.0061820496357977;-0.1956704561382532;0.4936060856170952;-0.0182322561740875;0.0048542157746851;-0.1088940501213073
1768416582415087900;1.876087890625;-0.0380512059748172;-0.1815887392938137;0.4691721938453614;-0.0206570643931627;-0.0023728043306618;-0.1151543408632278
1768416582425088800;1.8860888671875;-0.0373041869997978;-0.1418061794817447;0.4551746481530368;-0.027390131726861;-0.0206976756453514;-0.1212034225463867
1768416582435090000;1.89608984375;0.0363606225393712;-0.0991208839654922;0.4832708618246019;-0.0357034541666507;-0.0467665642499923;-0.1324203908443451
1768416582445091000;1.906091064453125;0.0369604150634258;-0.0927776524186134;0.5184570337571204;-0.0372026152908802;-0.0639757066965103;-0.1386204957962036
1768416582455093000;1.916093017578125;0.0654500850319862;-0.1005383495479822;0.4786382335878908;-0.0392013192176818;-0.1001502200961113;-0.1529075503349304
1768416582465094000;1.926093994140625;0.0203949185792356;-0.0464104535192251;0.400364468948543;-0.0378698073327541;-0.1218434795737266;-0.1518508344888687
1768416582475094800;1.9360947265625;-0.0078160805784165;0.0172106625199317;0.2679670460641384;-0.0441620573401451;-0.1433940380811691;-0.1392373144626617
1768416582485097000;1.946096923828125;0.0197182614266872;0.0876116479575633;0.1677295791588723;-0.0479025989770889;-0.1557338535785675;-0.124499499797821
1768416582495097900;1.956097900390625;0.0606592705588787;0.0883954918116331;0.1334745505966246;-0.0436732321977615;-0.1594598889350891;-0.1134364604949951
1768416582505098800;1.9660986328125;0.176223924325034;0.0697580113589763;0.0811572111211717;-0.0411805137991905;-0.1608287990093231;-0.1141430810093879
1768416582515101000;1.976100830078125;0.2361187863826751;0.0985369465976953;0.0152485686667263;-0.0406191200017929;-0.1627878248691558;-0.1167945191264152
1768416582525101800;1.986101806640625;0.1953540106002241;0.1735813739269971;-0.0204063898213207;-0.0412656031548976;-0.1647984087467193;-0.1168861985206604
1768416582535102700;1.996102783203125;0.1120376486837863;0.1850865182816982;0.0172888423226773;-0.0412786528468132;-0.1603932678699493;-0.103802889585495
1768416582545105000;2.00610498046875;0.1016658192079514;0.1438829857558012;0.0337786432221531;-0.0359304882586002;-0.1505853682756424;-0.0923467278480529
1768416582555106000;2.01610595703125;0.1302338151097297;0.0956271966308355;0.0685340225219726;-0.0333677269518375;-0.1421133130788803;-0.0840222090482711
1768416582565107000;2.02610693359375;0.1714776796460151;0.0304804784595966;0.0979533014908432;-0.026816289871931;-0.1315202414989471;-0.0819957852363586
1768416582575107800;2.03610791015625;0.1750457473911345;-0.0024000468790531;0.0997489527359604;-0.0220313873142004;-0.1246210485696792;-0.0895019024610519
1768416582585110000;2.046110107421875;0.1852747343301773;-0.0228173964858055;0.0779084384582936;-0.0193870700895786;-0.1220353916287422;-0.0982673093676567
1768416582595111000;2.05611083984375;0.1485701206587255;-0.0086608608394861;0.074369742938131;-0.0173601377755403;-0.1248918995261192;-0.0967242792248725
1768416582605111800;2.06611181640625;0.0642949967127293;0.014380992051959;0.0729077075615525;-0.0149298002943396;-0.1256369799375534;-0.0897028371691703
1768416582615114000;2.076114013671875;0.030088994923979;0.0120446580588817;0.0701497871555388;-0.0133942207321524;-0.1266156882047653;-0.0865147709846496
1768416582625115000;2.086114990234375;0.0277004923522472;0.00518470916152;0.0320094415925443;-0.0145566910505294;-0.1292837560176849;-0.0845988467335701
1768416582635115800;2.09611572265625;0.0414088458396494;0.023448680126667;0.0349104237310588;-0.0151604302227497;-0.1308750063180923;-0.0825332999229431
1768416582645118000;2.106117919921875;0.0756078333657234;0.0119260001152753;0.0448915733888745;-0.0151460506021976;-0.1274239122867584;-0.0789635553956031
1768416582655118800;2.116118896484375;0.1069007972519844;0.0151724346905946;0.0415649131841957;-0.0144016966223716;-0.1313488781452179;-0.0734044760465622
1768416582665120000;2.1261201171875;0.0722517278708517;-0.0084176997333765;0.0496918132774531;-0.0197317488491535;-0.1386323571205139;-0.0685561895370483
1768416582675121000;2.136120849609375;0.0601810585878789;-0.0351554845333099;0.0686956428244709;-0.0234279483556747;-0.148483395576477;-0.0627688765525817
1768416582685123000;2.146123046875;0.0223544551491737;-0.0368920990675687;0.0716617991536855;-0.0321938768029212;-0.1566091328859329;-0.0563762858510017
1768416582695124000;2.1561240234375;-0.0003330313466489;-0.0401098920702934;0.101524291845411;-0.0347499772906303;-0.1601577997207641;-0.0523903332650661
1768416582705124900;2.166124755859375;0.0010439560949802;-0.0751134009122848;0.1304464349471032;-0.0332177318632602;-0.1611179262399673;-0.0455349348485469
1768416582715127000;2.176126953125;0.0598550415039062;-0.0638268677443265;0.1223046295456588;-0.0273060444742441;-0.1577942967414856;-0.0420392714440822
1768416582725128000;2.1861279296875;0.0983234499774873;-0.0772825616449117;0.0844883283052593;-0.0237046536058187;-0.1540027111768722;-0.0434783548116683
1768416582735128800;2.19612890625;0.0635152445118874;-0.0553396099060773;0.036112419931963;-0.0175911001861095;-0.147282212972641;-0.0458802580833435
1768416582745131000;2.206131103515625;0.044118543189764;-0.0434703084141016;0.0104980862040072;-0.0134357633069157;-0.1388095617294311;-0.0481906346976757
1768416582755132000;2.2161318359375;0.006820201408863;-0.0287684138447046;0.0187465668503195;-0.0063232593238353;-0.1280059069395065;-0.0520050823688507
1768416582765132800;2.2261328125;-0.0053425300717353;-0.04149637799263;0.0368717869319021;-0.0046615856699645;-0.1188215389847755;-0.0511482320725917
1768416582775134700;2.236134765625;-0.0170949271857738;-0.0090776249468326;0.0209058637760579;-0.0046352203935384;-0.1097790449857711;-0.0465564094483852
1768416582785135900;2.246135986328125;0.014262480238825;-0.0069423664838075;0.0083035718344151;-0.0024732649326324;-0.1056961938738823;-0.0422267317771911
1768416582795137000;2.256136962890625;0.0452209514737129;0.006221650993824;-0.0354083633158355;-0.0044503957033157;-0.1025856211781501;-0.0390783436596393
1768416582805138000;2.266137939453125;0.0420434904813766;0.0050531917363405;-0.0961436217203736;-0.011267889291048;-0.1021718308329582;-0.0392133556306362
1768416582815140000;2.27614013671875;0.0650874622646719;0.0011018237620592;-0.082703052323684;-0.0119629744440317;-0.0948318913578987;-0.0415036752820014
1768416582825141000;2.28614111328125;0.0171088095806539;-0.0265852245867252;-0.0682407386638224;-0.0149102285504341;-0.0870230868458747;-0.0435743853449821
1768416582835142000;2.296141845703125;-0.0161724055133759;-0.0270160172194242;-0.0317016908176243;-0.0136763863265514;-0.0759280920028686;-0.0456399321556091
1768416582845143800;2.306143798828125;-0.025633476819843;-0.0018622867405414;-0.0476731669314205;-0.0140285212546586;-0.0646014437079429;-0.0442499667406082
1768416582855145000;2.31614501953125;-0.0057530105687677;0.018489596414566;-0.0440844947896897;-0.0140980295836925;-0.0575693622231483;-0.0435969606041908
1768416582865145900;2.326145751953125;0.004627075278759;0.019672084197402;-0.0313183905884623;-0.0131026050075888;-0.0518703497946262;-0.0417752601206302
1768416582875147800;2.336147705078125;-0.00758577895388;-0.0007505261063575;-0.030340266271308;-0.010947841219604;-0.0445796810090541;-0.0401680432260036
1768416582885149000;2.34614892578125;0.0061807344615459;-0.0205938752174377;-0.0177616474661976;-0.0091622602194547;-0.0380236841738224;-0.0415581576526165
1768416582895149800;2.35614990234375;0.0417488914489746;-0.0374357044249773;-0.0561159280408173;-0.0059257210232317;-0.0316147841513156;-0.0463571734726429
1768416582905151000;2.36615087890625;0.03023629444018;-0.0653308425664901;-0.0745282945007085;-0.0040440624579787;-0.0232716221362352;-0.0529423505067825
1768416582915153000;2.37615283203125;0.0155738550983369;-0.0805190593481063;-0.1124256250880658;0.0041637998074293;-0.0073373969644308;-0.0560374744236469
1768416582925154000;2.386154052734375;0.0788004919271916;-0.0996603976696729;-0.1781770311541855;0.0127476323395967;0.015336163341999;-0.0630389153957367
1768416582935155000;2.396155029296875;0.1087948673702776;-0.0969569839298725;-0.2461421677470207;0.0190462749451398;0.0355444923043251;-0.0742130056023597
1768416582945156900;2.406156982421875;0.1210637626390904;-0.0527875873357057;-0.325971199004352;0.022889282554388;0.0529280081391334;-0.0807120651006698
1768416582955158000;2.416157958984375;0.1273391165815293;-0.0283867210507392;-0.3592207768511027;0.0278472900390625;0.0699607878923416;-0.0840013399720192
1768416582965159000;2.426158935546875;0.1577484295010566;-0.0119131406337022;-0.3578873362902551;0.0266156420111656;0.0801587849855423;-0.087387777864933
1768416582975160800;2.436160888671875;0.1959621325612068;-0.025572832673788;-0.3373654303304851;0.0205614790320396;0.0847703143954277;-0.0980342924594879
1768416582985161700;2.44616162109375;0.2143359936416149;-0.0429570981949567;-0.297842763563618;0.0135704157873988;0.0884747728705406;-0.1069862470030784
1768416582995163000;2.456162841796875;0.1970002434372901;-0.0351917248904705;-0.3328178500287234;-0.0009422143921256;0.0805097892880439;-0.1087868064641952
1768416583005164000;2.4661640625;0.1342225194197148;-0.0443313091576099;-0.3156106215748935;-0.0147588280960917;0.068280428647995;-0.1045531556010246
1768416583015165700;2.476165771484375;0.1063677863538265;-0.0714922878056764;-0.2468631024327129;-0.0260026957839727;0.0524053238332271;-0.0978366658091545
1768416583025167000;2.4861669921875;0.0991686686299741;-0.0735872142583131;-0.2224976727873086;-0.0367009416222572;0.0449357591569423;-0.0971498265862464
1768416583035168000;2.49616796875;0.1370060857236385;-0.039521278527379;-0.1691995055809617;-0.0445378273725509;0.0357451923191547;-0.0960704460740089
1768416583045170000;2.506169921875;0.1573953052144497;0.0315752879589796;-0.1789254383686929;-0.0471106432378292;0.0222397185862064;-0.1013019233942031
1768416583055171000;2.516171142578125;0.1744189207296818;0.1148398466229438;-0.1820947891198098;-0.0492371767759323;0.0064788665622472;-0.1060724407434463
1768416583065172000;2.526171875;0.2122842487435788;0.1846831981778144;-0.1777362285841256;-0.0499789305031299;-0.0080729061737656;-0.1106065958738327
1768416583075174000;2.536173828125;0.1890530107598751;0.2093219648718833;-0.174255766057223;-0.047734685242176;-0.0249695982784032;-0.1060746982693672
1768416583085174800;2.5461748046875;0.1977763423763215;0.1838981852799653;-0.173884229331091;-0.0484510771930217;-0.0411032512784004;-0.0960440784692764
1768416583095176000;2.556176025390625;0.2576957543533295;0.1374368783563375;-0.2222986430838704;-0.0530468933284282;-0.0552928373217582;-0.0791497826576232
1768416583105177900;2.566177734375;0.3068002692621201;0.0992021325081586;-0.2657491508189589;-0.0648183971643447;-0.0745857208967208;-0.073658250272274
1768416583115178800;2.5761787109375;0.3268891175668686;0.0727209528177976;-0.2397153495699167;-0.0742358714342117;-0.0919684395194053;-0.0696800202131271
1768416583125180000;2.586179931640625;0.2827040119469166;0.0989729999274015;-0.2084426247540861;-0.0807669311761856;-0.1081897467374801;-0.0631585642695427
1768416583135181000;2.59618115234375;0.2813992129586636;0.0903565627515316;-0.1888596801448613;-0.0867326781153678;-0.1194192320108413;-0.0568506009876728
1768416583145182700;2.6061826171875;0.3059575348276644;0.0947211877018213;-0.1869159256659448;-0.0843090713024139;-0.1277699768543243;-0.0491255968809127
1768416583155183900;2.616183837890625;0.3793243112683296;0.1231032325774431;-0.216319130282849;-0.0853833928704261;-0.1351184397935867;-0.0443614684045314
1768416583165185000;2.62618505859375;0.4217208529710769;0.146979198205471;-0.2276016448628157;-0.0867725685238838;-0.1469216793775558;-0.043577779084444
1768416583175187000;2.63618701171875;0.4146108017701655;0.2028437087684869;-0.2654541133951396;-0.0843067467212677;-0.1582081615924835;-0.0374746136367321
1768416583185187800;2.646187744140625;0.3812613437455147;0.2309521973997354;-0.2609859550051391;-0.0815256088972091;-0.1643955111503601;-0.0324644930660724
1768416583195189000;2.65618896484375;0.3501776386957615;0.2284317390114069;-0.2209051428988575;-0.076102077960968;-0.1651816815137863;-0.0273016933351755
1768416583205191000;2.66619091796875;0.334070553503558;0.1958843911498785;-0.2116226430296897;-0.0680285096168518;-0.1663193255662918;-0.0261049009859561
1768416583215191800;2.67619189453125;0.3228723562061786;0.1218009178072214;-0.1963083887156099;-0.0643751844763755;-0.1752915233373642;-0.0203727129846811
1768416583225192700;2.686192626953125;0.336868075267598;0.0427162751764059;-0.2010927003826945;-0.0639235749840736;-0.1863115280866623;-0.020464401692152
1768416583235193900;2.69619384765625;0.3895464300751686;0.0004828150808811;-0.2035551449734717;-0.0693998336791992;-0.1960839927196502;-0.0225304812192916
1768416583245195800;2.70619580078125;0.401665833870694;-0.0354436538249254;-0.1794311228685081;-0.0722562745213508;-0.2026124149560928;-0.0166872516274452
1768416583255197000;2.716197021484375;0.371218161702156;-0.0504565140396356;-0.1562587754651904;-0.071718044579029;-0.2132714390754699;-0.0080423634499311
1768416583265198000;2.726197998046875;0.3388239585757255;-0.0283119022488594;-0.0960914531417191;-0.0704833418130874;-0.2180119156837463;0.0056535084731876
1768416583275200000;2.736199951171875;0.3674725454330444;-0.0134539403349161;-0.0511263030599802;-0.0714727044105529;-0.2268181890249252;0.01649896427989
1768416583285201000;2.746200927734375;0.4261726447481662;0.0046323359757661;-0.0230725402906537;-0.0714117139577865;-0.2355220168828964;0.0226317849010229
1768416583295202000;2.7562021484375;0.4673849451024085;0.041802082940936;-0.0032816520191729;-0.0656574219465255;-0.2403135746717453;0.0266515593975782
1768416583305204000;2.766203857421875;0.4943652334213256;0.0667412938863039;0.0211433257937431;-0.0551349446177482;-0.2481601983308792;0.0285531729459762
1768416583315204900;2.776204833984375;0.538770192337036;0.1102642092704773;0.0266539789739996;-0.0507085062563419;-0.2575984597206116;0.0343913547694683
1768416583325205800;2.786205810546875;0.5549964469294995;0.1544470498681068;0.0208178932316601;-0.0498285926878452;-0.2700911462306976;0.042544450610876
1768416583335207000;2.79620703125;0.5070796805005521;0.1510872180461883;0.0504500842988491;-0.0428732149302959;-0.2809888124465942;0.0514561831951141
1768416583345208800;2.806208740234375;0.4689525597453117;0.1367898126244545;0.0918418328732252;-0.0375757925212383;-0.2958316802978515;0.0695621967315673
1768416583355209700;2.816209716796875;0.5844307773370295;0.0882119519382715;0.1412404353577643;-0.0361280962824821;-0.3133459687232971;0.0767833516001701
1768416583365211100;2.826211181640625;0.8352092265825718;0.0118336456567049;0.2021639828760176;-0.0414669923484325;-0.3367701470851898;0.0665362775325775
1768416583375212800;2.836212890625;1.0056792635560037;-0.0100397479772567;0.2245302015282213;-0.0531414933502674;-0.3662822246551513;0.0472179763019084
1768416583385214000;2.8462138671875;0.9440893610835076;0.0323433497220277;0.2356190201669931;-0.062021616846323;-0.3939651250839233;0.0429157800972461
1768416583395214800;2.85621484375;0.7417523597281426;0.1250350774228572;0.2196902872163802;-0.0654906406998634;-0.4071267247200012;0.0486642122268676
1768416583405217000;2.866217041015625;0.5522645377475768;0.2306651971518993;0.1878808982405811;-0.0609117336571216;-0.4072583019733429;0.060643583536148
1768416583415218000;2.876218017578125;0.3489818530399352;0.299025616672635;0.1045178476382047;-0.0608685910701751;-0.4029373228549957;0.0758949741721153
1768416583425218800;2.88621875;0.1650607252757996;0.3288718888819217;0.0177948921486735;-0.0632420107722282;-0.4033465385437011;0.1070206686854362
1768416583435221000;2.896220947265625;0.0928384426951408;0.3467670265346765;0.0150537767469882;-0.0693409144878387;-0.4050538837909698;0.1464996337890625
1768416583445222000;2.906221923828125;0.1010544093113392;0.2880518027156591;0.0557340891163796;-0.0772159472107887;-0.4070742726325989;0.1804079860448837
1768416583455222800;2.916222900390625;0.2043102741897106;0.1533756212443113;0.126424047563225;-0.0826258957386016;-0.4074689447879791;0.1997249573469162
1768416583465223700;2.9262236328125;0.2962345246493816;0.0151285955488681;0.1809836130075156;-0.091263048350811;-0.4094805121421814;0.2080522179603576
1768416583475225900;2.936225830078125;0.2386719779968261;-0.0872422301232814;0.1945180712327361;-0.098640538752079;-0.4060035049915313;0.2107281535863876
1768416583485226800;2.946226806640625;0.1381551826935261;-0.1441635562628507;0.2020158796422183;-0.1050049662590026;-0.3968390822410583;0.2184551954269409
1768416583495228000;2.956227783203125;0.0063023150146007;-0.2252624613255262;0.1923750678546726;-0.1093387305736541;-0.3768187761306762;0.2217202335596084
1768416583505229800;2.966229736328125;-0.0677390727519988;-0.2786123587191105;0.155332600530982;-0.1158933043479919;-0.3509895801544189;0.2277600169181823
1768416583515231000;2.97623095703125;-0.0803190067313611;-0.3262269273310899;0.1350002257939428;-0.1210672855377197;-0.3233520686626434;0.2362557649612426
1768416583525231900;2.98623193359375;-0.0408064960323274;-0.372734411484003;0.0864552444640547;-0.1285912543535232;-0.2971670925617218;0.2400092184543609
1768416583535234000;2.996234130859375;-0.0126233347296714;-0.3603103987187147;-0.0015825930163264;-0.1374641060829162;-0.2736100852489471;0.2363439202308654
1768416583545235000;3.00623486328125;0.0194072227161377;-0.3528822945445776;-0.0393076357766985;-0.1496240198612213;-0.2562663853168487;0.2239542156457901
1768416583555235800;3.01623583984375;0.0205258514825254;-0.3008972557634115;-0.0343324777126312;-0.1621978729963302;-0.2377427816390991;0.2170427739620208
1768416583565236700;3.02623681640625;0.0148972710110247;-0.2335463055461645;-0.0109061555482447;-0.1751615405082702;-0.224286749958992;0.2102236598730087
1768416583575239000;3.036239013671875;-0.0179296975094825;-0.1240963352680206;0.0423147086381912;-0.1809046566486358;-0.204838216304779;0.2081583738327026
1768416583585239800;3.04623974609375;-0.0156174019791185;-0.0741185446560382;0.0940614816840738;-0.180745929479599;-0.1865186393260955;0.2081873118877411
1768416583595240700;3.05624072265625;0.0015082126058638;-0.0624894816607236;0.1487961844995617;-0.1711351126432418;-0.1645630151033401;0.196982055902481
1768416583605243000;3.066242919921875;-0.0096330668725073;-0.1072381394475698;0.1842800242044031;-0.1557642072439193;-0.1387948095798492;0.1791086196899414
1768416583615244000;3.076244140625;-0.0155472593523561;-0.1556400590449571;0.2106168269880116;-0.1370144933462143;-0.1101951226592063;0.157095730304718
1768416583625245000;3.086244873046875;-0.0259269068084657;-0.1653179879724979;0.2042486071303486;-0.1197330504655838;-0.0840195044875145;0.135554239153862
1768416583635247000;3.0962470703125;-0.0196646315433084;-0.1191454348623752;0.1913856549585238;-0.10892353951931;-0.063903585076332;0.1118430346250534
1768416583645248000;3.106248046875;-0.0323627850748598;-0.0121399351269006;0.250354159418866;-0.1044185385107994;-0.0491859354078769;0.0919001325964927
1768416583655249000;3.116248779296875;-0.0804994778648018;0.0919856252580881;0.3375824340820312;-0.0993750393390655;-0.0445182137191295;0.0876124426722526
1768416583665249800;3.126249755859375;-0.0767594145536422;0.1751373711973428;0.4472175516687333;-0.0889771357178688;-0.0456592813134193;0.086193174123764
1768416583675252000;3.136251953125;-0.0550235296942293;0.2077899329990148;0.5421937735775485;-0.0754381567239761;-0.0498233996331691;0.0862584263086319
1768416583685252900;3.1462529296875;-0.021314152316004;0.221381820499897;0.6132732062660158;-0.055935688316822;-0.0564134903252124;0.0805319026112556
1768416583695253800;3.156253662109375;0.0037782033644616;0.183615276685357;0.661678559929505;-0.0387705489993095;-0.0609139651060104;0.0736742615699768
1768416583705256000;3.166255859375;0.036989568092674;0.1168359888762235;0.6859284003712236;-0.0229248683899641;-0.0670137032866478;0.0652122646570205
1768416583715256800;3.1762568359375;0.0373218687869608;-0.0079518357872962;0.7185140344165265;-0.0074548320844769;-0.0728833079338073;0.0534304417669773
1768416583725258000;3.186258056640625;0.0201050687871873;-0.1182376723676919;0.7188213468000292;0.0043701916001737;-0.075118601322174;0.0340500250458717
1768416583735260000;3.196260009765625;0.0134054250180721;-0.1817570815980434;0.6781043556820601;0.0159240495413541;-0.0729254856705665;0.0114818681031465
1768416583745261000;3.206260986328125;0.0525008793488144;-0.2041466080605983;0.6746591105990112;0.0279885716736316;-0.0764681622385978;-0.0141063369810581
1768416583755262000;3.216261962890625;0.0710778617858886;-0.1995575267046689;0.642066096964851;0.0312426872551441;-0.0882563814520835;-0.0429419800639152
1768416583765262800;3.226262939453125;0.0423800289593637;-0.1741173804998397;0.6487605531021953;0.0374854020774364;-0.1021072566509246;-0.0684258565306663
1768416583775265000;3.23626513671875;-0.0068532268956303;-0.1741390078097582;0.6367144337385893;0.0415760204195976;-0.1202881261706352;-0.0899876058101654
1768416583785266000;3.246265869140625;-0.0524281063735485;-0.1335094757795333;0.6291686945341527;0.0457736998796463;-0.130625382065773;-0.1058362126350402
1768416583795266800;3.256266845703125;-0.1485889714896678;-0.092716862142086;0.5939813170252367;0.0569762848317623;-0.1344390362501144;-0.1225992143154144
1768416583805269000;3.26626904296875;-0.2015643364824354;-0.0746849463671445;0.60137478827741;0.0674639567732811;-0.1335267275571823;-0.1345202475786209
1768416583815270000;3.276269775390625;-0.1793840688563883;-0.0413058238565921;0.5872815636582672;0.0799395367503166;-0.1235638484358787;-0.1484816074371338
1768416583825270800;3.286270751953125;-0.111571054085344;-0.076685180273652;0.5563190738353878;0.0935958176851272;-0.1103704050183296;-0.1603124141693115
1768416583835272700;3.296272705078125;-0.0165711955726146;-0.1091921961247921;0.5253785401159897;0.1058889701962471;-0.1065093576908111;-0.1687735319137573
1768416583845273900;3.30627392578125;0.0197005796395242;-0.1394686764448881;0.509757959799096;0.1187980398535728;-0.0975106358528137;-0.1739870309829712
1768416583855275000;3.31627490234375;0.0780007929168641;-0.1413596047580242;0.4919168538885191;0.1270426511764526;-0.0864068567752838;-0.1785088181495666
1768416583865276000;3.32627587890625;0.1692765163399279;-0.0964209773570299;0.4666928346524014;0.1318487972021103;-0.0764384418725967;-0.1881012320518493
1768416583875278000;3.336278076171875;0.2703961729072034;-0.0741477707505226;0.4907988827092572;0.1333675980567932;-0.069471076130867;-0.1986233741044998
1768416583885279000;3.346279052734375;0.3306559958197176;-0.1046077909439802;0.5268737836424261;0.1335028707981109;-0.0733732059597969;-0.2120735496282577
1768416583895279900;3.35627978515625;0.3470082879446446;-0.0890805514663457;0.6356736925140023;0.1359178274869918;-0.076315201818943;-0.2193375825881958
1768416583905281800;3.36628173828125;0.4171300180494785;-0.0811532655984163;0.7225522038914263;0.1397103071212768;-0.0861005559563636;-0.2303939014673233
1768416583915283000;3.376282958984375;0.437237571054697;-0.046328620454669;0.7617449811168014;0.1482611894607544;-0.0948189422488212;-0.2300018817186355
1768416583925283800;3.386283935546875;0.4341209003388881;0.0374789590448141;0.7743361671425402;0.1565759927034378;-0.0954646170139312;-0.2372389882802963
1768416583935285800;3.39628564453125;0.4271640669383108;0.1282774203449487;0.781855310600996;0.1674776375293731;-0.0975203067064285;-0.2430577427148819
1768416583945287000;3.406286865234375;0.4708090012669563;0.1801578297078609;0.8043746739882975;0.1844547390937805;-0.1012362390756607;-0.2404803782701492
1768416583955287800;3.416287841796875;0.5332101470571011;0.1770727231740951;0.7650896884348243;0.1982429921627044;-0.1074523255228996;-0.2453140169382095
1768416583965289000;3.4262890625;0.5593221281088888;0.1887280896544456;0.7207435470342636;0.2092609703540802;-0.1008890271186828;-0.2582345902919769
1768416583975291100;3.436291015625;0.5309798307217657;0.2212497185528278;0.7033532901637256;0.2267869561910629;-0.0889450162649154;-0.2694507837295532
1768416583985292000;3.4462919921875;0.5044928058125079;0.1992728645443916;0.6545959081921726;0.246819332242012;-0.0648934990167617;-0.2736081480979919
1768416583995293000;3.45629296875;0.526581595762819;0.1986000798493623;0.5940622367743402;0.2623884379863739;-0.0408544763922691;-0.2767040729522705
1768416584005294800;3.466294921875;0.5345078587174416;0.1731879906952381;0.5875960364349186;0.2736456096172333;-0.0178253911435604;-0.282868891954422
1768416584015296000;3.4762958984375;0.5001392137128859;0.1420417418032884;0.5896208933260292;0.2841126322746277;0.0051771304570138;-0.286681979894638
1768416584025297000;3.486296875;0.5316506426554173;0.1081809732556343;0.595769698279351;0.2885390222072601;0.027732778340578;-0.2900632619857788
1768416584035298800;3.496298828125;0.6492226176559924;0.103625209647417;0.6226815975371748;0.2901630103588104;0.0455067120492458;-0.2948460280895233
1768416584045300000;3.506300048828125;0.7955951552052051;0.0958189198106527;0.7035612338259816;0.2870423793792724;0.0465442091226577;-0.3020198047161102
1768416584055300900;3.51630078125;0.9192413355529307;0.1066284831166267;0.7904075964994728;0.2853462100028991;0.0422778241336345;-0.3053844571113586
1768416584065302000;3.526302001953125;0.977352090672776;0.1525882702589035;0.8426125616416335;0.2833801507949829;0.0323359481990337;-0.2985082268714905
1768416584075303700;3.5363037109375;1.07541374790892;0.1608960798770189;0.8568029264923185;0.2752524316310882;0.010947567410767;-0.2719932794570923
1768416584085305000;3.54630517578125;1.257701575382799;0.1321796884804964;0.8819916552193462;0.2556281685829162;-0.0167761668562889;-0.246745765209198
1768416584095306000;3.556305908203125;1.4629787949085236;0.0902852510809898;0.9388516796257348;0.2216348052024841;-0.0556660406291484;-0.2229077965021133
1768416584105308000;3.566307861328125;1.526094153382629;0.0300987856656312;0.9765350752014668;0.1885900497436523;-0.097223162651062;-0.2019971013069152
1768416584115309000;3.57630908203125;1.3919663995742797;-0.073897010859847;0.872095918822661;0.1528674662113189;-0.1170999333262443;-0.1839840114116668
1768416584125310000;3.58631005859375;1.2245021202880888;-0.1990606830984354;0.6873133519235998;0.1189497038722038;-0.1333952993154525;-0.1733692288398742
1768416584135312000;3.596311767578125;1.1244411789935085;-0.2065817262530326;0.5136269832521677;0.0796403810381889;-0.14604052901268;-0.1689289510250091
1768416584145312800;3.606312744140625;1.0676257243812084;-0.1306809743553399;0.4396817493364214;0.040574874728918;-0.1554631441831588;-0.1635026931762695
1768416584155314000;3.61631396484375;0.9640974723022432;-0.033377953466773;0.3584826718349009;0.0144750960171222;-0.1635461002588272;-0.1543105244636535
1768416584165314800;3.626314697265625;0.7942810769319534;0.0474304442167282;0.1823687106903642;0.0052294628694653;-0.1573874056339264;-0.1345206797122955
1768416584175316700;3.636316650390625;0.6264484757900237;0.0842044698625802;-0.073630834204331;0.0241951644420623;-0.1236190497875213;-0.1179198622703552
1768416584185318000;3.64631787109375;0.4007634051382541;0.1452221254050731;-0.4159519141808152;0.0514273196458816;-0.0614735446870327;-0.1249964609742164
1768416584195319000;3.656319091796875;0.1517840412039309;0.2201478947907686;-0.707278354652971;0.0808320790529251;0.0224088374525308;-0.1347375065088272
1768416584205321000;3.666321044921875;-0.0549977376658469;0.3045505175739527;-0.9448161409880964;0.0990969687700271;0.1037777885794639;-0.1466092318296432
1768416584215322000;3.676322021484375;-0.2120726518195122;0.3595318155616521;-1.140113452965021;0.1042613685131073;0.1891302317380905;-0.1620627492666244
1768416584225323000;3.686322998046875;-0.2825064435482025;0.3132756758213043;-1.3276368430048229;0.0993128791451454;0.267909288406372;-0.1861094534397125
1768416584235324000;3.696323974609375;-0.3356757236778735;0.2049626006186008;-1.4657901990674436;0.0841696187853813;0.3491815328598022;-0.21304652094841
1768416584245325800;3.706325927734375;-0.3695101887404918;0.1038332994401454;-1.5697463942348957;0.055578988045454;0.3991884589195251;-0.2291978746652603
1768416584255327000;3.716326904296875;-0.4463373713007196;-0.0299754515469074;-1.597050142354518;0.0128786619752645;0.4037078320980072;-0.2290527373552322
1768416584265327900;3.726327880859375;-0.6013409225404263;-0.1940478233724832;-1.5054308661907911;-0.0487116575241088;0.3666207790374756;-0.2199336886405944
1768416584275329800;3.736329833984375;-0.78850600066185;-0.2685579976946115;-1.3256643738880751;-0.1207038238644599;0.3195137083530426;-0.2016007453203201
1768416584285331000;3.7463310546875;-0.8151298036932945;-0.2983838116377592;-1.0002612570952625;-0.1832758635282516;0.2814110815525055;-0.1928125470876693
1768416584295331800;3.756331787109375;-0.8159715882796794;-0.2971633299320936;-0.4649488039966672;-0.1931940019130706;0.26294606924057;-0.1943934112787246
1768416584305334000;3.766333984375;-0.8381436725992709;-0.3364356021344661;-0.0807457807760685;-0.1537032574415207;0.2635621726512909;-0.2100915312767028
1768416584315335000;3.7763349609375;-0.8006932820618152;-0.3789829504847526;0.0941185456335544;-0.0919368341565132;0.2795198261737823;-0.2413493245840072
1768416584325336300;3.78633642578125;-0.7878057434380054;-0.4423334328889846;0.0682785133909434;-0.0199958533048629;0.3129025101661682;-0.2676693201065063
1768416584335337200;3.796337158203125;-0.7406500245094298;-0.5649485896885394;-0.30921098366566;0.0371646359562873;0.3337806463241577;-0.2978807091712951
1768416584345339100;3.806339111328125;-0.6837970874309539;-0.7156856791228056;-0.7972669608749449;0.0737968161702156;0.3443928956985473;-0.3222316801548004
1768416584355340300;3.81634033203125;-0.5370142885804176;-0.886038154131174;-1.243498424115777;0.0840664952993393;0.358502596616745;-0.3610645532608032
1768416584365341200;3.826341064453125;-0.4513046748518943;-1.087237018302083;-1.4110700362339614;0.0907594785094261;0.3691166937351227;-0.4169073104858398
1768416584375343000;3.836343017578125;-0.5404314035475254;-1.2784399736374616;-1.5302908744201065;0.087029717862606;0.3726808130741119;-0.4644937217235565
1768416584385344300;3.84634423828125;-0.8624269769191741;-1.3916197780936956;-1.4731579513564703;0.0718767344951629;0.3629592955112457;-0.4635130167007446
1768416584395345200;3.85634521484375;-1.118777819469571;-1.4008008634150029;-1.2290868907950818;0.0476805865764617;0.3277411162853241;-0.4151255190372467
1768416584405347000;3.86634716796875;-1.0437333921402692;-1.1517518683105707;-0.8459523735888301;0.0303515326231718;0.2787651121616363;-0.3618147671222687
1768416584415348000;3.876347900390625;-0.8689999255686998;-0.7538841846138239;-0.4212016514025628;0.0409437231719493;0.2244555205106735;-0.3421182930469513
1768416584425349000;3.88634912109375;-0.9079179775059224;-0.4195715659826993;-0.0728632108327001;0.0794828534126281;0.1782201677560806;-0.3304383754730224
1768416584435350300;3.896350341796875;-1.0065776737004517;-0.1606710389494896;0.0643017917796969;0.1264437139034271;0.1390479952096939;-0.3038728237152099
1768416584445352200;3.906352294921875;-0.8852455424487591;0.0190577516913414;-0.0241314747590571;0.1679470837116241;0.1161564961075782;-0.2773259580135345
1768416584455353300;3.916353271484375;-0.6168062026977539;0.1762012010365724;-0.2277353542450815;0.1887873858213424;0.1092972531914711;-0.262605607509613
1768416584465354200;3.926354248046875;-0.3947410761088132;0.3351654360681772;-0.3333281376384198;0.2039873003959655;0.1222117021679878;-0.2551688849925995
1768416584475356200;3.936356201171875;-0.3404091819405555;0.4127969572812318;-0.4900904787115752;0.2090995013713836;0.1310203820466995;-0.2478800863027572
1768416584485357000;3.946357177734375;-0.382535090008378;0.490483423551917;-0.657501347310096;0.2090864479541778;0.1476654112339019;-0.2308630049228668
1768416584495358200;3.956358154296875;-0.3850303774228319;0.5789467199027538;-0.7805841216214001;0.2026756852865219;0.1645908653736114;-0.2127537727355957
1768416584505359000;3.966359130859375;-0.3570657177090645;0.6484907962501049;-0.8517438164718448;0.1933066993951797;0.1734638810157776;-0.1951720416545868
1768416584515361000;3.976361083984375;-0.360815462164022;0.6624848348110914;-0.8671106046907603;0.1816359311342239;0.1900987774133682;-0.1813949793577194
1768416584525362200;3.986362060546875;-0.2818038482367992;0.6602887860715388;-0.8269947212710976;0.1718755811452865;0.2054885029792785;-0.1763390153646469
1768416584535363000;3.996363037109375;-0.2283861828366294;0.6552239038974046;-0.8297146477542817;0.1571158021688461;0.2180120199918747;-0.169153019785881
1768416584545365000;4.006364990234375;-0.1560199982732534;0.6062129124909639;-0.8204277639709413;0.1431458741426468;0.235370934009552;-0.1545057147741317
1768416584555366100;4.0163662109375;-0.1286767218608409;0.5547931063771248;-0.8356139349259436;0.1213321760296821;0.2495120465755462;-0.1229147538542747
1768416584565367300;4.0263671875;-0.0971780062694102;0.5469160893917083;-0.8554442784249782;0.0999638438224792;0.2710779905319214;-0.083522580564022
1768416584575369200;4.036369140625;0.0284574847320094;0.5433540129959583;-0.7793724077440798;0.0845579877495765;0.2983375787734985;-0.0509635731577873
1768416584585370000;4.0463701171875;0.1944750358086079;0.5554390030652284;-0.7039379581838846;0.0824656635522842;0.3287703692913055;-0.0389396026730537
1768416584595371300;4.056371337890625;0.2483328827243298;0.5314437949717045;-0.6462411176271736;0.0891597792506218;0.3727993369102478;-0.0336327254772186
1768416584605372200;4.0663720703125;0.2146113034516572;0.4610340417057275;-0.6557638559930026;0.0875784754753112;0.4026748239994049;-0.0259845294058322
1768416584615374000;4.0763740234375;0.1974427265077829;0.4033879084229469;-0.6814027396403253;0.0691731050610542;0.4277117252349853;-0.0124471494928002
1768416584625375000;4.086375;0.3053337769061326;0.3803460555315017;-0.6124541449680924;0.0546796545386314;0.4547294378280639;0.0065887719392776
1768416584635376000;4.096376220703125;0.4093839339673519;0.3862842134088277;-0.5170912983618676;0.0478574335575103;0.4679634869098663;0.0216526761651039
1768416584645378000;4.1063779296875;0.4216057386914268;0.4005424558639526;-0.4612842170745134;0.0515990294516086;0.4707801043987274;0.0361825004220008
1768416584655379000;4.11637890625;0.3080196549892425;0.4306429950952529;-0.4629280387587845;0.0597901120781898;0.4785589277744293;0.0506189651787281
1768416584665380400;4.12638037109375;0.2080686768751591;0.4324479986906051;-0.4803390461564064;0.0681168884038925;0.4861921072006225;0.0738673135638237
1768416584675382000;4.136382080078125;0.228555182727985;0.3835252700895071;-0.5617895411357283;0.080355979502201;0.5001547932624817;0.1012454107403755
1768416584685383200;4.146383056640625;0.2635878080666065;0.2295890923529863;-0.6705243488818406;0.0793174803256988;0.5015775561332703;0.128398135304451
1768416584695384300;4.15638427734375;0.2485345427762716;0.0960948141425847;-0.692774320743233;0.0668994262814521;0.4810022413730621;0.1570833027362823
1768416584705385200;4.16638525390625;0.3147270802060142;0.0738292063206434;-0.5856028167910874;0.0504237115383148;0.4666374325752258;0.1797312349081039
1768416584715387100;4.17638720703125;0.4520278014946728;0.1044400331616401;-0.4713808098055422;0.0278656724840402;0.4451164305210113;0.1861316114664077
1768416584725388000;4.186387939453125;0.5161223437318578;0.1893885993897914;-0.4527496129631996;0.0062311524525284;0.4170600175857544;0.1914394348859787
1768416584735389200;4.19638916015625;0.5237702646691352;0.33060967245996;-0.4118988393977284;-0.0107145411893725;0.3990890085697174;0.2047198265790939
1768416584745391000;4.20639111328125;0.4953443441191688;0.4248106356799602;-0.3841714590385556;-0.0217171218246221;0.3713690936565399;0.2309455424547195
1768416584755392000;4.21639208984375;0.3934077816784381;0.4890010760396718;-0.4081831798754632;-0.026184307411313;0.3535256385803222;0.2626744210720062
1768416584765393200;4.22639306640625;0.3971013389667496;0.5073322670221329;-0.392283453823626;-0.0218506101518869;0.3394143581390381;0.2883658111095428
1768416584775394300;4.236394287109375;0.4490004895627498;0.4747638763725757;-0.3728456167735159;-0.0208002589643001;0.3206755518913269;0.3013633787631988
1768416584785396200;4.246396240234375;0.4954319858700036;0.3792839792579412;-0.3447434117525815;-0.0174735803157091;0.3151109218597412;0.305665522813797
1768416584795397000;4.256397216796875;0.5753396718541159;0.233550981721282;-0.3173506701752543;-0.0159089732915163;0.3025157749652862;0.3050463199615478
1768416584805398300;4.266398193359375;0.5935849015861749;0.0914659852981567;-0.3029435207687318;-0.0170021373778581;0.2771681547164917;0.2983890473842621
1768416584815400200;4.276400146484375;0.6028618119647726;-0.0059475102275609;-0.2363536180518567;-0.0169864241033792;0.2492348104715347;0.2916240990161896
1768416584825401000;4.286401123046875;0.6945265712380408;-0.0180628954350948;-0.207483643528819;-0.0123985223472118;0.2329253405332565;0.2804954349994659
1768416584835402200;4.29640234375;0.8030775468498468;0.0855763427376747;-0.2244546520739793;-0.0003903282340615;0.2021056413650512;0.2628922164440155
1768416584845404200;4.306404052734375;0.8238304120212793;0.1874269439280033;-0.2486157182537019;0.0138665679842233;0.1675571948289871;0.2407592087984085
1768416584855405000;4.316405029296875;0.7328618548512459;0.2916512885123491;-0.3178936910107731;0.0284471083432436;0.1465224921703338;0.2190685719251632
1768416584865406000;4.326406005859375;0.6182090552330016;0.3783762167632579;-0.3515354099802673;0.0407225489616394;0.12132079154253;0.2108517587184906
1768416584875407000;4.336406982421875;0.5112497327268123;0.4217681992441415;-0.3803850723676383;0.0529973246157169;0.0921141654253006;0.2132057249546051
1768416584885409000;4.346408935546875;0.4846317749142646;0.4429425046980381;-0.3866314194113016;0.0482313297688961;0.0605864822864532;0.2190338224172592
1768416584895410200;4.35641015625;0.4588391620099544;0.366951151907444;-0.4066360965639352;0.0325714126229286;0.0301180612295866;0.2133005708456039
1768416584905411300;4.366411376953125;0.3291501213014126;0.2859393406063318;-0.4050692856386303;0.0101025886833667;0.0030715293250977;0.2009373903274536
1768416584915413200;4.376413330078125;0.1496510386300738;0.1823597236663102;-0.3960075889132917;-0.0189658161252737;-0.0134832123294472;0.1844590753316879
1768416584925414100;4.3864140625;-0.0121095399886369;0.1104080016553401;-0.3737361358724534;-0.0427592881023883;-0.0122849904000759;0.1786809563636779
1768416584935415300;4.396415283203125;-0.0507312484609428;0.0833130739808082;-0.4269524700142443;-0.060980100184679;-0.0022992012090981;0.1777307391166687
1768416584945416200;4.406416259765625;0.0697761269709793;0.1391810916751623;-0.5228356872327625;-0.0763468816876411;0.0126159274950623;0.1780607551336288
1768416584955418000;4.416418212890625;0.2388590250015258;0.2966752541542053;-0.5798588663116098;-0.092102937400341;0.0138084897771477;0.1834102421998977
1768416584965419000;4.4264189453125;0.3658832304149866;0.4780477203488349;-0.6158423261016607;-0.1142084449529647;0.0023371404968202;0.1920732706785202
1768416584975420200;4.436420166015625;0.3368354151070117;0.7219558454334736;-0.6304514278210699;-0.1385164409875869;-0.0272942539304494;0.2022619992494583
1768416584985422000;4.446422119140625;0.2037432879567146;0.9289923297166824;-0.5874116197787225;-0.1551792621612548;-0.0547142773866653;0.2121118605136871
1768416584995423000;4.456423095703125;0.0916693989157676;0.9922194780021906;-0.504276240452379;-0.1677869260311126;-0.0546461008489131;0.2238063365221023
1768416585005424400;4.46642431640625;0.0522854921656195;0.9044412413060664;-0.4450878461636602;-0.1658150404691696;-0.0418913178145885;0.2400037497282028
1768416585015426000;4.476426025390625;0.1322282037973403;0.6786942113339901;-0.4558494786746799;-0.1632400304079055;-0.0241914168000221;0.2651626467704773
1768416585025427200;4.48642724609375;0.3500502859890461;0.3758522512435913;-0.4187336538538336;-0.1781243681907653;-0.0185556635260581;0.2771669328212738
1768416585035428000;4.496427978515625;0.5259995580911636;0.0625841742068529;-0.3034380262874067;-0.2057304233312606;0.0022899631876498;0.2625405788421631
1768416585045429200;4.50642919921875;0.7423276023328303;-0.0695610274821519;-0.1676027379088103;-0.2198339998722076;0.0107757486402988;0.2278913110494613
1768416585055431200;4.51643115234375;0.8848200105130672;-0.0597363835602998;-0.0624171470768749;-0.2261259853839874;-0.0095383115112781;0.1812087595462799
1768416585065432000;4.52643212890625;0.8111223216176032;0.1289887834846973;0.1540608270294964;-0.2364580631256103;-0.0504036881029605;0.1291342824697494
1768416585075433200;4.53643310546875;0.5351601851463318;0.4139490499258041;0.4778055821560323;-0.2703015208244324;-0.1071995943784713;0.0788580551743507
1768416585085435100;4.54643505859375;0.1878886796882376;0.7053437333285808;0.8005916483182459;-0.3046981692314148;-0.1277796328067779;0.0739077925682067
1768416585095436000;4.55643603515625;0.0546598109483718;0.7779109568893909;1.0916238550841808;-0.3079546689987182;-0.1471722275018692;0.1036201491951942
1768416585105437000;4.56643701171875;-0.1221031156241893;0.5643921248495578;1.5122833624340593;-0.288654625415802;-0.1913261413574218;0.1363458484411239
1768416585115438300;4.576438232421875;-0.1234603754520416;-0.0087391867727041;1.800343786847591;-0.2598956823348999;-0.3771625757217407;0.1595643460750579
1768416585125440000;4.58643994140625;0.097964663135074;-0.992608185058832;1.650340564645827;-0.2035288661718368;-0.5511640310287476;0.1822131276130676
1768416585135441200;4.596441162109375;0.7366635852217673;-2.184855145365;0.55752033938393;-0.1536132395267486;-0.8552277684211731;0.2005846798419952
1768416585145442300;4.6064423828125;1.596307068902254;-2.6113784301817415;-0.3979261358857154;-0.1758220046758651;-0.947175145149231;0.1481952965259552
1768416585155444200;4.6164443359375;2.80901580247879;-2.2374334738641974;-0.4995662361305206;-0.1563537567853927;-1.0699833631515503;-0.0465552769601345
1768416585165445000;4.626445068359375;2.8155180239796636;-1.6513362976849078;-1.0663538778144863;-0.1787417531013488;-1.184829831123352;-0.345689445734024
1768416585175446000;4.636446044921875;2.194414416348934;-0.3202250565677881;-1.2833812294319271;-0.2307114750146865;-1.213426947593689;-0.6161798238754272
1768416585185448200;4.6464482421875;1.5919944664001464;1.070453641283512;-0.3353883581038564;-0.2460052967071533;-1.3108793497085571;-0.7927727103233337
1768416585195449000;4.656448974609375;0.8242015834212303;1.9876959119737148;0.9057521777741612;-0.191276803612709;-1.4111324548721311;-0.8723133206367493
1768416585205450000;4.666449951171875;0.6169301213383674;2.5957874778181314;1.356900054629147;-0.1166907101869583;-1.385321021080017;-0.8772710561752319
1768416585215451100;4.676451171875;0.938314284813404;2.69019653083086;1.4703035848386583;-0.0427845269441604;-1.344310998916626;-0.8945096731185913
1768416585225453000;4.686453125;1.2067068628132342;2.533970780852437;1.5254866890087724;0.0301585290580987;-1.3089853525161743;-0.9620308876037598
1768416585235454200;4.6964541015625;1.1809265248686074;2.081239872589707;1.4879586301252246;0.1260975748300552;-1.293611764907837;-1.00640070438385
1768416585245455400;4.706455322265625;1.1839835743516682;1.4618635271430014;1.2702955378875136;0.2155656814575195;-1.2551190853118896;-0.991815745830536
1768416585255457300;4.716457275390625;1.3936200120002031;0.748175159317255;0.9079973263524472;0.2644250988960266;-1.2195183038711548;-0.9971846342086792
1768416585265458200;4.726458251953125;1.3928092801392078;0.0236228676497936;0.4846382046550512;0.2863712012767792;-1.1934350728988647;-1.0127370357513428
1768416585275459000;4.736458984375;1.2427303623527288;-0.5615712222099304;0.0848244283918291;0.2966001331806183;-1.1684530973434448;-1.0222262144088743
1768416585285460200;4.746460205078125;1.134033840790391;-0.1628331854194402;-0.676391925740987;0.3509142994880676;-1.0804170370101929;-1.0099661350250244
1768416585295462100;4.756462158203125;0.8220587992388755;0.522882302853465;-1.4972969518348571;0.3973342776298523;-0.9365421533584596;-0.9362730979919434
1768416585305463000;4.766463134765625;0.5605423906188458;0.9711287591785192;-1.8795374428108331;0.5121366381645203;-0.7637395262718201;-0.7918221354484558
1768416585315464000;4.7764638671875;0.7873428021013736;1.2651496994316578;-2.539267718216777;0.5876420140266418;-0.6137524247169495;-0.7027537822723389
1768416585325466000;4.786466064453125;1.305854634785652;1.2938462170839309;-2.8611422955572605;0.6124765872955322;-0.4986098110675812;-0.6556302309036255
1768416585335467000;4.796467041015625;1.7346511252313852;0.9004699995875358;-2.57163795594573;0.5792906880378723;-0.3701945841312408;-0.6380717754364014
1768416585345468200;4.80646826171875;2.0742864001899957;0.5010901577621698;-1.769559795396775;0.5035209059715271;-0.2335052192211151;-0.6601682305335999
1768416585355469000;4.816468994140625;2.4715198776364327;0.403781291654706;-0.8606336637616157;0.3844139277935028;-0.1023171097040176;-0.6981329321861267
1768416585365471200;4.82647119140625;2.690787482461333;0.7221709494888782;0.0937220936618745;0.2512052059173584;0.0248576309531927;-0.72834312915802
1768416585375472000;4.83647216796875;2.628267021140456;1.5737492001354694;1.004051662354171;0.1624702960252761;0.0841545090079307;-0.7278187870979309
1768416585385473000;4.84647314453125;1.9983271961033344;2.5354227332264183;1.5902220499001445;0.1279729753732681;0.0876448079943656;-0.6911453604698181
1768416585395475200;4.85647509765625;1.1728205214329064;3.599519698959589;1.969687230943888;0.1544368118047714;0.1382328867912292;-0.5999709963798523
1768416585405476000;4.86647607421875;0.7305838269166648;4.581825101190805;2.0199960070759055;0.249342069029808;0.2177353650331497;-0.4849855899810791
1768416585415477000;4.87647705078125;0.3461262444131076;5.112271117296815;1.6227034929186104;0.3653022348880768;0.3292842507362366;-0.3597184717655182
1768416585425479200;4.886479248046875;0.3970177888691425;4.9162867729038;0.7104439790770412;0.4305537343025207;0.4079034626483917;-0.2579969465732574
1768416585435480000;4.89647998046875;0.480623123794794;4.196798778888583;-0.2436475744523107;0.4376752972602844;0.446090817451477;-0.1888530403375625
1768416585445481000;4.90648095703125;0.269207986035943;3.4975831730514764;-1.2641484134346246;0.363432765007019;0.4575745761394501;-0.1138593181967735
1768416585455482000;4.916482177734375;0.0841208832323551;2.5746903292536736;-0.897752265061438;0.3890744745731354;0.3957394361495971;0.0173652824014425
1768416585465484000;4.926484130859375;0.0091107965640723;1.4933336011618374;-0.9293798677295446;0.3583495914936065;0.2598642110824585;0.1688380390405655
1768416585475485200;4.936485107421875;-0.0084323127806186;1.3491560163736342;-0.4452741625159979;0.3293275237083435;0.1283925026655197;0.2817331552505493
1768416585485486000;4.946486083984375;0.542591796451807;1.1793892322987318;0.614435381913185;0.3543052971363067;0.012354526668787;0.3333533704280853
1768416585495488300;4.95648828125;0.5498075730495154;1.2099515438228845;2.2668509992673993;0.5055792331695557;-0.1029667407274246;0.3692748844623565
1768416585505489200;4.9664892578125;1.7778642440140249;1.936506407484412;4.147783695828914;0.7093756198883057;-0.0859304592013359;0.1543434858322143
1768416585515490000;4.976489990234375;2.399944149331003;2.5668852084606884;3.9980537376105785;0.8166171312332153;-0.1900060027837753;-0.0878379940986633
1768416585525491000;4.986490966796875;3.1107839958578345;3.3705928699076173;3.913018662142753;0.8858970999717712;-0.2542243897914886;-0.3403408825397491
1768416585535493000;4.9964931640625;3.912693667972088;4.60492423722744;4.601564697666466;1.0298430919647217;-0.2507798373699188;-0.5983165502548218
1768416585545494000;5.006493896484375;3.8874697948664423;5.679871098276973;5.06244647141993;1.2268030643463137;-0.2107172012329101;-0.7865646481513977
1768416585555495000;5.016494873046875;3.597686053791642;6.282768602609634;4.669251455709338;1.3424949645996094;-0.3558898568153381;-0.8728997707366943
1768416585565497000;5.0264970703125;3.5759880167245863;6.753822518548369;4.0394814342811705;1.382653832435608;-0.518491268157959;-0.8879950642585754
1768416585575498000;5.036498046875;3.775757724875211;6.872713686388731;3.5442338650673624;1.4809253215789795;-0.5682271718978882;-0.7903105616569519
1768416585585499100;5.0464990234375;3.5915959202229977;6.343972720634937;2.6787892938926814;1.6210423707962036;-0.4960061013698578;-0.7039141654968262
1768416585595501300;5.056501220703125;3.1999457958668467;5.170026556172966;1.1144243004351857;1.7307512760162354;-0.4286361038684845;-0.6893424391746521
1768416585605502200;5.066502197265625;3.571387537191808;3.734421505880355;-0.6302239026755094;1.697522759437561;-0.3537923395633697;-0.8917123675346375
1768416585615503000;5.076503173828125;3.2677807302087545;2.6351573651760813;-1.8191516554310916;1.5007870197296145;-0.1977196484804153;-1.1910895109176636
1768416585625504000;5.08650390625;1.9149151917926963;1.729548833656311;-2.168407576172054;1.2472527027130127;-0.0739163011312484;-1.433593511581421
1768416585635506200;5.096506103515625;0.418406613856554;1.25518652382195;-1.3814111032903194;1.056759238243103;-0.1232604160904884;-1.6099259853363037
1768416585645507000;5.106507080078125;-1.2586999387703834;1.6434212867766618;-0.0352580681249499;0.9957518577575684;-0.0032127371523529;-1.6236114501953125
1768416585655508000;5.116508056640625;-1.2550886164054271;2.4540000030368567;1.1449088705480095;1.145499587059021;0.4321097135543823;-1.5709607601165771
1768416585665510100;5.12651025390625;0.5957476325780153;2.8684271918684243;1.799127981317043;1.419130802154541;0.8485478758811951;-1.552638053894043
1768416585675511000;5.136510986328125;1.666166494809091;2.869320925837755;1.730294683587551;1.6345291137695312;1.076531171798706;-1.6478255987167358
1768416585685512200;5.14651220703125;0.8391460545748471;2.437557402279973;1.247076867124438;1.6270345449447632;1.06927227973938;-1.727853298187256
1768416585695513900;5.156513916015625;0.9345119699209928;1.0108850155055522;0.7206912323251367;1.325087547302246;0.8708785772323608;-1.7504661083221436
1768416585705515300;5.166515380859375;2.6862767270386216;-0.8152607365965843;1.1068220087379217;0.899418830871582;0.6443443298339844;-1.9171773195266724
1768416585715516200;5.17651611328125;4.193704904526472;-2.709572262430191;2.888778782762587;0.5570337772369385;0.3878616690635681;-2.346565961837769
1768416585725517000;5.18651708984375;4.289733667695522;-2.4985733042567966;6.0677808670610185;0.6180300712585449;0.4072581231594085;-2.7549099922180176
1768416585735519200;5.196519287109375;3.6373610615760086;-1.0802052199691534;7.925116707196831;0.9256896376609802;0.5146186351776123;-3.017760753631592
1768416585745520000;5.20652001953125;2.1879086877167224;-0.4493780907034874;6.87717183484137;1.1434118747711182;0.5797839164733887;-3.101308107376098
1768416585755521000;5.21652099609375;1.5224197026535868;-0.6922656405687332;5.25485938706696;1.1990898847579956;0.6770625114440918;-3.26029634475708
1768416585765523000;5.22652294921875;1.8199901520818471;-1.016603393152356;5.227203902900219;1.1941020488739014;0.8637142181396484;-3.5916123390197754
1768416585775524000;5.236524169921875;0.4672556926995515;-0.8029343389868736;5.210644397765398;1.185454249382019;1.1168100833892822;-3.8009846210479736
1768416585785525000;5.24652490234375;-1.866570701470971;0.0019850363373756;4.120426902347803;1.1340759992599487;1.224912166595459;-3.699828624725342
1768416585795526100;5.256526123046875;-3.351160439684987;0.511132828348875;2.0170888874575494;0.9737064838409424;1.0229324102401731;-3.3704943656921387
1768416585805528000;5.266528076171875;-4.860417586165666;-0.1708119092136621;1.3577607631117106;0.8467822074890137;0.8502180576324463;-3.208246946334839
1768416585815529200;5.276529296875;-12.730861038410662;-1.3589806602954864;2.525325117582083;1.0241559743881226;1.0717356204986572;-1.971193790435791
1768416585825530000;5.286530029296875;-10.066907202339172;-4.692309090691805;-1.9071043719112872;1.0635679960250854;1.8979368209838867;-1.0900051593780518
1768416585835532000;5.296531982421875;4.880224110397696;-7.761099280428886;-6.013046821832656;1.0638734102249146;1.9725090265274048;-2.117734909057617
1768416585845533200;5.306533203125;8.3579861461699;-10.376577547144889;-6.01843143748045;1.1597179174423218;1.5187205076217651;-3.3241443634033203
1768416585855534000;5.3165341796875;8.013367237579821;-10.927045191538332;-8.692522052162886;0.8576624393463135;1.7688558101654053;-4.0449419021606445
1768416585865536000;5.326535888671875;8.811921754047274;-9.086071872660517;-9.693539169126748;0.2319466322660446;2.657121181488037;-4.149295330047607
1768416585875537200;5.336537109375;10.231596244758366;-6.389033513110876;-7.396801857900619;-0.328333169221878;3.191169500350952;-3.992726802825928
1768416585885538000;5.3465380859375;11.560731217366456;-4.280856533756852;-5.460927903100848;-0.6144729256629944;3.386260747909546;-4.0611395835876465
1768416585895539000;5.3565390625;12.81003452836871;-2.3760209835603834;-5.954145720052718;-0.7071200609207153;3.078800678253174;-4.5156354904174805
1768416585905541000;5.366541015625;10.991854640579223;0.0550526096582412;-9.028815615478155;-0.7228697538375854;2.7003822326660156;-5.137185096740723
1768416585915542000;5.3765419921875;0.7541834598213434;3.5322236937999723;-14.107487245512008;-1.096339464187622;2.035587787628174;-5.017871856689453
1768416585925543200;5.386543212890625;-12.703196786415576;7.082334926468134;-16.210821461009978;-1.6583843231201172;1.476760745048523;-4.299569606781006
1768416585935545000;5.396545166015625;-24.10186697177887;7.242418520918488;-15.9716877107203;-1.6081056594848633;2.33626389503479;-4.429269313812256
1768416585945546200;5.406546142578125;-46.445590299057955;4.507150676217675;-23.52713231661319;-0.7902004718780518;3.102969169616699;-4.869424343109131
1768416585955547100;5.416547119140625;-44.01929137289524;-1.419118318133056;-28.89518962831497;0.0976800993084907;4.546976089477539;-3.7218916416168217
1768416585965548000;5.426548095703125;-17.068782690691947;-5.1025703920155765;-20.521661045098305;-0.8493069410324097;6.341460227966309;-2.2902560234069824
1768416585975550200;5.43655029296875;3.14509017008543;-2.0819972668282687;-7.0684905255109065;-2.1375889778137207;4.622329235076904;-2.1031949520111084
1768416585985551000;5.446551025390625;13.971663063049316;3.7038632860094305;4.424446966306865;-2.4911904335021973;2.27497935295105;-2.4968478679656982
1768416585995552000;5.456552001953125;14.262462703168392;9.124480221509932;8.709744405120611;-1.9024171829223633;2.458343982696533;-2.9869508743286133
1768416586005554000;5.466553955078125;-0.0961737245976924;13.542597108012435;6.419675904133915;-1.031844139099121;4.5812225341796875;-2.6329891681671143
1768416586015555000;5.47655517578125;-11.82387712688446;17.83464314430356;1.708499469756335;-0.8694190382957458;4.101457595825195;-0.8525466322898865
1768416586025556000;5.486555908203125;-7.451243642184138;21.77214041414261;-1.5495118538491428;-1.513178825378418;2.434570789337158;0.0550797581672668
1768416586035558000;5.496557861328125;-5.047480372956395;22.557424530148506;2.398630436383933;-2.2835347652435303;1.9620901346206665;0.0497361272573471
1768416586045559000;5.50655908203125;-7.420297884300351;20.152311015355583;10.1848707339406;-2.502868175506592;2.4174537658691406;0.2742549479007721
1768416586055560200;5.516560302734375;-4.911360422417522;15.07976926637888;16.187903526759147;-2.335207939147949;2.213801860809326;0.5670625567436218
1768416586065561000;5.52656103515625;0.4706652088820934;8.928425149968266;16.691815171682833;-1.9601305723190308;1.3047574758529663;0.4739759564399719
1768416586075563000;5.53656298828125;2.9125580100178716;3.0083976803556083;12.86107848690748;-1.455093264579773;0.6924815773963928;0.23586967587471
1768416586085564200;5.546564208984375;3.799405142444372;-1.805991729606688;7.848478288674354;-1.0243698358535769;0.6890044212341309;0.077858917415142
1768416586095565000;5.55656494140625;4.416941412982345;-4.269442574816942;4.438813345311582;-0.7082455158233643;1.099771499633789;-0.0129359662532806
1768416586105567000;5.56656689453125;3.4705554653942583;-3.992608331686258;1.8005621057733892;-0.523455023765564;1.4340137243270874;-0.0216521620750427
1768416586115568000;5.576568115234375;2.2477865255743263;-1.2183867061477154;-0.4821441958822309;-0.5370624661445618;1.322280764579773;-0.081628680229187
1768416586125569000;5.586569091796875;0.7797633067578077;1.0182392507258802;-1.1448400430954992;-0.7314600348472595;0.9021517634391784;-0.0047352504916489
1768416586135571000;5.596571044921875;0.2933165913760662;2.711084712819755;0.0440197589904069;-0.9891853332519532;0.4829659461975097;0.0778941139578819
1768416586145571800;5.60657177734375;1.138309033891559;3.915913799062371;2.270470066547394;-1.0832889080047607;0.1534389108419418;0.037254013121128
1768416586155573200;5.6165732421875;1.2954782021999358;4.575268226893246;3.8525098329052327;-0.9886454939842224;0.0974219888448715;0.0507011115550994
1768416586165574100;5.62657421875;1.4549240832686423;4.637336852793395;4.267871964499354;-0.8046917915344238;0.1805724799633026;0.0940265133976936
1768416586175576000;5.636576171875;2.1637655955851076;3.930908246837556;3.696444534185528;-0.6441740393638611;0.2091202288866043;0.1105314567685127
1768416586185577200;5.6465771484375;2.384287584385276;2.7156884072229266;2.6938921704784033;-0.551074206829071;0.1869220435619354;0.0997542589902877
1768416586195578000;5.656578125;1.8730694158405063;1.5487486143916844;1.8495923864021897;-0.5072617530822754;0.1510708332061767;0.0590624921023845
1768416586205580000;5.666580078125;1.0715700780928137;0.7038416582025587;1.1711726080954077;-0.4666548669338226;0.0336984992027282;0.0571810454130172
1768416586215581200;5.676581298828125;-0.1273959613353014;0.0895994973065331;0.4933309219375252;-0.4547574520111084;-0.0121848387643694;0.1136038452386856
1768416586225582000;5.68658203125;-0.9646680387318134;-0.5271668848374859;0.2530558926582336;-0.4983939528465271;0.120957463979721;0.1892613768577575
1768416586235584000;5.696583984375;-0.3343962052613496;-0.97736590000242;0.8060515942245722;-0.533071756362915;0.1128776967525482;0.2416345775127411
1768416586245585000;5.7065849609375;0.0840454799085855;-1.1139214654795824;1.4864683915674686;-0.5174157619476318;-0.0188484210520982;0.2411219477653503
1768416586255586000;5.7165859375;0.1012350996404886;-0.8557740218359976;1.6250313513442871;-0.4722975492477417;-0.1685042232275009;0.2507149279117584
1768416586265587200;5.726587158203125;-0.0050999534875154;0.1096071701338514;1.153082824653387;-0.4312701523303985;-0.1908554583787918;0.2826269268989563
1768416586275588900;5.7365888671875;-0.1792377922534942;1.4543990364812314;0.4479404591158032;-0.3858177065849304;-0.1170898899435997;0.3130159974098205
1768416586285590300;5.74659033203125;-0.8952151477992534;2.397715513496101;-0.5389096008077263;-0.3938843011856079;0.0484803356230258;0.341203510761261
1768416586295591200;5.756591064453125;-1.3343851482212543;2.52832459165901;-1.4555445532545446;-0.4672099351882934;0.2418186366558075;0.3557749986648559
1768416586305593000;5.766593017578125;-0.9127104724794626;2.0428810619704425;-1.6246689477726817;-0.5554128885269165;0.2852745056152344;0.3106218576431274
1768416586315593700;5.77659375;-0.2321311780512333;1.3371040517911317;-0.6359902111172676;-0.626442551612854;0.1380085945129394;0.2283770740032196
1768416586325594600;5.7865947265625;0.0021060323685407;0.7367728908151387;0.93201839953959;-0.6477680802345276;-0.0654583200812339;0.1425663828849792
1768416586335596500;5.796596435546875;-0.1830535511493682;0.6408879200309514;2.0727058530002833;-0.6282897591590881;-0.2506433427333832;0.1020820662379264
1768416586345597700;5.80659765625;-0.3029302228957414;0.7410051215574145;2.6682573784843084;-0.5964831113815308;-0.4101828038692474;0.1029047667980194
1768416586355598600;5.8165986328125;-0.4121802866876125;0.5694066285433247;2.910114416258037;-0.573078453540802;-0.4977166354656219;0.1306471675634384
1768416586365599700;5.826599853515625;-0.2576134098321199;0.3013656952590681;2.826129434365034;-0.5519798398017883;-0.4708617329597473;0.1372600644826889
1768416586375601700;5.8366015625;0.4994102418512106;0.0665461914393119;2.26279295604825;-0.5259564518928528;-0.3790833353996277;0.0836325287818908
1768416586385602800;5.846602783203125;1.1201251424252987;0.0240125062881968;1.3253788349449631;-0.5146317481994629;-0.3600680828094482;-0.0126143582165241
1768416586395603700;5.856603759765625;0.8621148422300815;0.1999958633230067;0.5133223012171685;-0.5492368936538696;-0.4313603639602661;-0.0947616919875145
1768416586405605600;5.866605712890625;0.3605769407004118;0.404814068768546;0.5588973268255591;-0.5851455330848694;-0.5244735479354858;-0.123478963971138
1768416586415606800;5.876606689453125;0.0315635975211858;0.6108942752402275;1.3133376840174198;-0.5681095719337463;-0.5706474184989929;-0.096028171479702
1768416586425607700;5.886607666015625;0.0378460387915372;0.6956580594860017;2.053599293731153;-0.4999832510948181;-0.57368403673172;-0.0560313910245895
1768416586435609600;5.896609619140625;0.4030605761647224;0.682175477578491;2.1694180683888495;-0.4114168882369995;-0.5829529166221619;-0.0205487683415412
1768416586445610800;5.90661083984375;0.7082984914809465;0.6543567656740545;1.651270831233263;-0.3207020461559295;-0.5780521631240845;-0.0025170119479298
1768416586455611600;5.916611572265625;0.7279524554997682;0.6336502238623798;0.7145946690157056;-0.2446394860744476;-0.5332833528518677;-0.0153558449819684
1768416586465613600;5.926613525390625;0.5558937610954046;0.6414583403300493;-0.2555123458996415;-0.201342761516571;-0.4679242074489593;-0.0411669611930847
1768416586475614500;5.936614501953125;0.1478372763395309;0.8036056623771787;-0.9095179600484667;-0.184274822473526;-0.4354386925697326;-0.0502648502588272
1768416586485615600;5.94661572265625;-0.0573135403275489;1.0696930321745577;-1.0785944237716496;-0.1766862124204635;-0.4105393588542938;-0.0269889924675226
1768416586495616800;5.95661669921875;-0.0221837747573852;1.2314958516329526;-0.8437335284955799;-0.1465019434690475;-0.3914761841297149;0.0001424942165613
1768416586505618700;5.96661865234375;0.0330260712891817;1.253079760801047;-0.6375169822931289;-0.1124375164508819;-0.3829098641872406;0.0215485952794551
1768416586515619800;5.976619873046875;0.0287853649795055;1.176951191496849;-0.5706428558073937;-0.0782574415206909;-0.3854124248027801;0.0500894263386726
1768416586525620700;5.986620849609375;-0.1612421168357133;1.0303430916260927;-0.4564068202964961;-0.0435489304363727;-0.3838780224323272;0.0771337300539016
1768416586535622700;5.99662255859375;-0.2232201418429613;0.9138778357584028;-0.4265077949866652;-0.0115537140518426;-0.3524301052093506;0.0954592078924179
1768416586545623600;6.00662353515625;-0.1530465354204177;0.7879889179851859;-0.4980529820233583;0.0258465893566608;-0.3222935497760772;0.0934189707040786
1768416586555624700;6.016624755859375;-0.0147410575360059;0.7183397738281637;-0.6194140471085906;0.0612045787274837;-0.3017017245292663;0.0861463993787765
1768416586565626600;6.026626708984375;-0.1166705691814422;0.8508249480612575;-0.8247565869554877;0.0799972489476203;-0.2732403874397278;0.101367563009262
1768416586575627500;6.03662744140625;-0.2890262007057667;1.0701830807138233;-0.9646142627179622;0.0926720276474952;-0.2520118057727813;0.1346429586410522
1768416586585628700;6.046628662109375;-0.3409147933751345;1.148299462834373;-1.0569437329776583;0.1011004671454429;-0.2318224310874939;0.1656597703695297
1768416586595629600;6.056629638671875;-0.3079278850525617;1.0482610986977814;-0.9828474001534284;0.1159121692180633;-0.1942984908819198;0.1820707023143768
1768416586605631500;6.066631591796875;-0.2369932311296463;0.8637479233246296;-0.8963258855201304;0.139211967587471;-0.1466722190380096;0.1931217014789581
1768416586615632600;6.076632568359375;-0.1689051988095045;0.6810811064705252;-0.9552788636177778;0.1643996089696884;-0.1125752255320549;0.2038193494081497
1768416586625633800;6.0866337890625;-0.0768003310859203;0.5004172269366681;-0.943131621967256;0.1938520520925521;-0.0875791758298873;0.2010228037834167
1768416586635635700;6.0966357421875;0.0424643462419509;0.3980701839989051;-0.8551065709032117;0.2186812311410904;-0.0524760521948337;0.1884249895811081
1768416586645636600;6.10663671875;0.1325654729276895;0.4244670829392969;-0.798639418271929;0.2370034456253051;-0.0194875355809927;0.1836824417114257
1768416586655637800;6.1166376953125;0.0077969374865293;0.4581928999956697;-0.7409057528361678;0.2445183545351028;0.0167769938707351;0.1902660429477691
1768416586665639700;6.1266396484375;-0.1743845070034265;0.4570778514258563;-0.6517413224786519;0.246372640132904;0.0567761920392513;0.2070754766464233
1768416586675640600;6.136640625;-0.2316723283678293;0.5187915994737297;-0.5264075543701648;0.2481524348258972;0.0847971737384796;0.23558010160923
1768416586685641700;6.146641845703125;-0.1766752482891082;0.5232231887130067;-0.4867908526442944;0.253288209438324;0.1067918986082077;0.2659685313701629
1768416586695642600;6.156642578125;-0.1378992351710796;0.4369820253910496;-0.5983271276772022;0.2535281479358673;0.1254055351018905;0.2856010794639587
1768416586705644500;6.16664453125;-0.1077349830538034;0.3071202219314873;-0.7189898352347314;0.2442632764577865;0.1338767111301422;0.3015125393867492
1768416586715645400;6.1766455078125;-0.043766076490283;0.17950667232275;-0.7345122524067759;0.2295767366886139;0.147245243191719;0.3021058738231659
1768416586725646800;6.186646728515625;-0.0675853434950113;0.0550141408113762;-0.5916581713072955;0.2140969932079315;0.1665774583816528;0.294780433177948
1768416586735648500;6.1966484375;-0.1018593690186738;-0.087996555621922;-0.3451512619011104;0.1924396306276321;0.168917566537857;0.2903449535369873
1768416586745649700;6.206649658203125;-0.112312373971939;-0.1965259039238095;-0.0225946936458349;0.1830212920904159;0.1725593358278274;0.2875746488571167
1768416586755650800;6.21665087890625;-0.058089200875163;-0.2559167619820684;0.2394968845136463;0.1850777864456176;0.1898094266653061;0.2750812172889709
1768416586765652700;6.22665283203125;-0.0453150594979524;-0.2788146763581782;0.2496735567435622;0.1884929686784744;0.1989825516939163;0.2668646872043609
1768416586775653600;6.236653564453125;0.0028267478585243;-0.3244666396602988;0.093814448120445;0.1850028932094574;0.181310087442398;0.243624061346054
1768416586785654500;6.246654541015625;-0.0548129556834697;-0.3719188573174178;-0.0931058614596724;0.1733454316854477;0.1762984693050384;0.2128146141767501
1768416586795655700;6.25665576171875;-0.155039755064249;-0.4002474915053695;-0.1450081903934478;0.1410274356603622;0.1750140190124511;0.2065780311822891
1768416586805657600;6.26665771484375;-0.1248106210172176;-0.376949764156714;0.0278019069001078;0.0861433520913124;0.1546560823917389;0.2025494277477264
1768416586815658500;6.276658447265625;0.0175005853772163;-0.4589276440110057;0.3225292418569326;0.0313386917114257;0.1188141852617263;0.1744482815265655
1768416586825659600;6.28665966796875;0.1631201856672763;-0.5720129751168191;0.4555687620371579;-0.0090402225032448;0.1113133803009986;0.1332519352436065
1768416586835661600;6.29666162109375;0.1075052659511566;-0.7683800352171063;0.2219512909509241;-0.0401342250406742;0.1594582796096801;0.0968020558357238
1768416586845662700;6.306662841796875;-0.0751350282222032;-0.9474410095989704;-0.349994464148581;-0.0692870467901229;0.2451431453227996;0.0597688071429729
1768416586855663600;6.31666357421875;-0.2580371882021427;-1.0449264013171196;-0.9729192958571016;-0.0956957563757896;0.3388363420963287;0.018047459423542
1768416586865665800;6.326665771484375;-0.3206020731866359;-0.9859273921206592;-1.3689337529025971;-0.1107818260788917;0.3790346980094909;-0.0149009376764297
1768416586875666700;6.336666748046875;-0.1414706639170646;-0.7324585347473621;-1.2859855667114255;-0.1336562633514404;0.2962937355041504;-0.004984657280147
1768416586885667600;6.34666748046875;0.1196563069939613;-0.3381989585451782;-0.5268091209083795;-0.1622914224863052;0.1589850634336471;0.0718110278248786
1768416586895669800;6.356669677734375;0.6034037002891302;0.2213512792311608;0.6197858030304312;-0.1486861258745193;0.0719399079680442;0.144438624382019
1768416586905670700;6.366670654296875;1.0252303517222403;0.599967369164899;1.5390267001919449;-0.0705828070640564;0.0334153100848197;0.1420599222183227
1768416586915671600;6.376671630859375;0.8623767080366611;0.5464825933452695;1.5680733464561405;0.0322168059647083;0.028207765892148;0.0698874667286872
1768416586925672400;6.38667236328125;0.3104407446563244;0.113958241482824;0.7519356808945536;0.1005258858203888;0.0411253571510314;0.0140047464519739
1768416586935674600;6.396674560546875;-0.2435714404761791;-0.3687006989885121;-0.1093839193046092;0.1170334890484809;0.0556028336286544;-0.0139951966702938
1768416586945675500;6.406675537109375;-0.5036363351136446;-0.7172232639536261;-0.724608990290761;0.1017103269696235;0.0854742974042892;-0.0264779850840568
1768416586955676700;6.4166767578125;-0.6745394297420978;-0.8929930147703736;-1.1229381540194152;0.0691172331571579;0.1464444398880005;-0.0389322564005851
1768416586965678600;6.4266787109375;-0.73518532936275;-0.7246638622831553;-0.912265212929994;0.0260360725224018;0.1137090697884559;-0.0048005217686295
1768416586975679700;6.4366796875;-0.2740449046730995;-0.1806068155843764;0.0815934105813503;-0.0065538277849555;0.0099789425730705;0.0758285447955131
1768416586985680600;6.4466806640625;0.5162479794055224;0.5308412259686738;1.3244184654802085;-0.0047483313828706;-0.0832249596714973;0.1064806282520294
1768416586995682800;6.456682861328125;0.9640770871013402;0.9832291660126298;2.0779604125276205;0.0494355447590351;-0.1267370134592056;0.084413930773735
1768416587005683700;6.46668359375;0.5967401507467031;1.0721188710819929;1.9177106677301228;0.122735321521759;-0.1050152704119682;0.0594336166977882
1768416587015684600;6.4766845703125;-0.1137432835578918;1.0359345549575985;1.172485005868226;0.1930627524852752;-0.0716743618249893;0.0518324226140975
1768416587025685500;6.486685546875;-0.7736515458792448;0.9977239206373693;0.3160251206599175;0.2467264384031295;-0.0244338084012269;0.0888431817293167
1768416587035687700;6.496687744140625;-1.0075333669900894;0.980150343089178;-0.5139404331155121;0.2808122336864471;0.0199757330119609;0.1483097076416015
1768416587045688600;6.5066884765625;-0.9610884266793728;0.9789954009003936;-1.2566992664724588;0.2824406325817108;0.0451495200395584;0.2006277441978454
1768416587055689500;6.516689453125;-0.7253741294443606;0.9573585925012826;-1.410822345083207;0.2430961579084396;-0.0551893338561058;0.2222947031259536
1768416587065691600;6.526691650390625;-0.1321861182212829;0.9497117310099304;-0.7438483821593225;0.2088001817464828;-0.2148205488920211;0.1769191026687622
1768416587075692500;6.536692626953125;0.4839262569934129;0.6725257518321275;0.1120464165121316;0.2026703804731369;-0.2543287873268127;0.0723088085651397
1768416587085693700;6.546693603515625;0.6726169372469186;0.1423893861971795;0.7313504273749888;0.212041825056076;-0.1546892076730728;-0.0315906666219234
1768416587095695600;6.556695556640625;0.3828612532228231;-0.2667013369772583;1.0974855867244302;0.2286738008260727;-0.0185859631747007;-0.0745738223195076
1768416587105696800;6.56669677734375;0.281455473190546;-0.377413801471889;1.1952435117736455;0.2165706604719162;0.0513882301747798;-0.0246567949652671
1768416587115697700;6.57669775390625;0.6569120031148195;-0.3153991707812995;1.1610898977592587;0.150303766131401;0.0307354144752025;0.0113491434603929
1768416587125698600;6.586698486328125;0.8605430628687143;-0.1618818760439753;1.0372928376987576;0.0622019991278648;-0.0818712338805198;0.0126073323190212
1768416587135700700;6.59670068359375;0.5128367096573114;0.068918857121095;0.8375750058658421;-0.0319359488785266;-0.2306306213140487;0.0091457553207874
1768416587145701600;6.60670166015625;-0.1263169339269399;0.3611119974251836;0.6412238739870488;-0.107476569712162;-0.366856187582016;0.0289473924785852
1768416587155702500;6.61670263671875;-0.5955301904350518;0.6254109494358301;0.5799297395907342;-0.1463536620140075;-0.4693932235240936;0.0666529610753059
1768416587165704700;6.62670458984375;-0.6330027197390794;0.8737765653859824;0.6558962502010166;-0.1336893290281295;-0.4872669279575348;0.1293632686138153
1768416587175705600;6.63670556640625;-0.0666162062019109;1.1361666150353849;0.5301175148040056;-0.0388477779924869;-0.4027267396450043;0.1749331504106521
1768416587185706500;6.64670654296875;0.134153618901968;0.9554764320164918;-0.6263768718585372;0.1065215319395065;-0.2308915555477142;0.1056327521800994
1768416587195708700;6.656708740234375;0.4199491671234369;0.2352670649241656;-0.6115967974863946;0.1252337098121643;-0.3771464824676513;0.0678185224533081
1768416587205709600;6.66670947265625;-0.2884673977792263;0.6315380540139973;-0.766232940185815;0.1532556861639022;-0.3986097276210785;0.2113302499055862
1768416587215710700;6.676710693359375;-0.8516711896270514;0.4905667179211974;-0.603267798949778;0.1739319264888763;-0.3231037855148315;0.1490631401538849
1768416587225711600;6.686711669921875;-1.1511702690303325;-0.4032833520699292;-0.4961243520483374;0.1561598479747772;-0.1824337840080261;0.0193253010511398
1768416587235713800;6.6967138671875;-1.7992916474461556;-0.6601105799604207;-0.566665330478549;0.1658953130245208;-0.0937470644712448;0.0780834257602691
1768416587245714700;6.706714599609375;-1.2149585583299398;-0.9965165906742216;-0.5264300584629178;0.1694204062223434;-0.1074417755007743;0.1595176756381988
1768416587255715600;6.716715576171875;0.1136743099749088;-1.5103645232006906;-0.992510423772782;0.0896952077746391;-0.131983608007431;0.1847950667142868
1768416587265717800;6.7267177734375;1.3916180245280263;-1.8623375939458608;-1.2414420761078595;-0.0351864621043205;-0.176811471581459;0.1218424588441848
1768416587275718700;6.73671875;1.8057763332903385;-1.879726243381202;-0.9088279319576918;-0.1341854780912399;-0.2263377457857132;0.0132701732218265
1768416587285719600;6.746719482421875;1.4485305828392503;-1.62493315166682;-0.4895287531755864;-0.2001418024301529;-0.2083657383918762;-0.0393605604767799
1768416587295720700;6.756720703125;1.431595230129361;-1.3559537136897444;-0.1122270337760448;-0.2192736864089965;-0.251564621925354;-0.1054431721568107
1768416587305722600;6.76672265625;0.4712205046772956;-1.495192088510096;-0.047900692076981;-0.239246591925621;-0.0894344449043273;-0.0209139548242092
1768416587315724000;6.77672412109375;1.1947627425193783;-1.079394488108158;-0.5582840172328054;-0.1007177382707595;0.0016746849287301;-0.0882730260491371
1768416587325725200;6.78672509765625;1.558557476222515;-0.7877133889794349;-1.8442263293243943;-0.0184858534485101;0.0040500578470528;-0.2624049186706543
1768416587335727000;6.79672705078125;-0.1380348442494869;-0.6393162868000567;-2.37627846545279;-0.0734399184584617;0.1679210215806961;-0.3360743522644043
1768416587345728000;6.80672802734375;-0.6066735157400369;-0.7446424551464617;-1.624976114025712;-0.1550728529691696;0.273812472820282;-0.3973152935504913
1768416587355729200;6.816729248046875;0.2903694320082664;-1.0943846250344067;-0.7023636946044862;-0.1807949990034103;0.1859323978424072;-0.450350821018219
1768416587365731000;6.82673095703125;0.3184557088077068;-1.5073159492850303;-0.2271123269759118;-0.1625279784202575;0.0894585475325584;-0.5303109884262085
1768416587375732000;6.83673193359375;-0.0002016600519418;-1.8059768242985008;0.026974370034784;-0.1098882034420967;0.0786024332046508;-0.5865985155105591
1768416587385733000;6.846733154296875;-0.0314934548944234;-1.7859306460916995;0.1408949098557233;-0.051723439246416;0.0963528677821159;-0.5799468755722046
1768416587395735000;6.856735107421875;0.201536133301258;-1.4292933829277752;0.1930069360174238;-0.0180352497845888;0.0977315902709961;-0.5513455867767334
1768416587405736000;6.86673583984375;0.5141162280738354;-0.8944030276987701;0.111268125616014;-0.0285557955503463;0.0870139896869659;-0.5566912889480591
1768416587415736800;6.87673681640625;0.6115706401318312;-0.4115765486408024;-0.0242122118450701;-0.0572201982140541;0.0459781326353549;-0.5709309577941895
1768416587425738000;6.886738037109375;0.4227922815948725;0.0167428988777101;-0.0368352543137967;-0.0834406241774559;0.0165093913674354;-0.5689936280250549
1768416587435740000;6.896739990234375;0.1649573379665613;0.3557513471748679;-0.0344886911876499;-0.0866619795560836;0.043378822505474;-0.5373121500015259
1768416587445741000;6.906740966796875;-0.1625993766635656;0.5519064815575256;-0.1506353826254606;-0.0873016715049743;0.0982356294989585;-0.4782291948795318
1768416587455742200;6.9167421875;-0.4764110590577125;0.6343992886640131;-0.2587194713778794;-0.0969135463237762;0.1293046027421951;-0.4053347408771515
1768416587465744100;6.926744140625;-0.6908703868180514;0.6058535045940429;-0.2264690606363117;-0.1178937330842018;0.1576902121305465;-0.3350020349025726
1768416587475745000;6.9367451171875;-0.7333861709862947;0.4569394293358549;-0.0709929599814117;-0.1499352902173996;0.1923134475946426;-0.2969148159027099
1768416587485746000;6.946745849609375;-0.5108756387174129;0.2008518042989075;0.1185100595682859;-0.1861193925142288;0.206539511680603;-0.291862815618515
1768416587495748000;6.956748046875;-0.2689700856268405;-0.0123094830075278;0.2688039352796971;-0.2091408222913742;0.2001471370458603;-0.2921722829341888
1768416587505749000;6.9667490234375;-0.2200461879819631;-0.0917303901216946;0.3922999665670096;-0.205275297164917;0.1851842403411865;-0.2746816873550415
1768416587515750000;6.97675;-0.3012064678430557;-0.006362374638766;0.4751297870755195;-0.1630617976188659;0.1663154661655426;-0.2131048738956451
1768416587525751000;6.9867509765625;-0.3084218060493469;0.2158343059079721;0.4426268628776073;-0.0958020761609077;0.1160343959927558;-0.136599063873291
1768416587535753000;6.9967529296875;-0.134332482600212;0.4944487104536965;0.2473122344397008;-0.0417098179459571;0.0535225495696067;-0.0584496557712554
1768416587545753900;7.00675390625;0.0701835432946682;0.7489793153069912;0.0389830799974501;-0.0079483892768621;0.010239521972835;-0.0007794345729053
1768416587555755300;7.01675537109375;0.1345581080496311;0.7911620681285858;0.0098886490687727;-0.0138590084388852;-0.025762153789401;0.0287283901125192
1768416587565757000;7.0267568359375;-0.1421785199254751;0.6948031962223351;0.2384922375157475;-0.0469125695526599;-0.0180023033171892;0.1100486814975738
1768416587575758000;7.036758056640625;0.1423854406744241;0.8435678165398538;0.3992942093685269;-0.0329525470733642;-0.0404245220124721;0.1762769669294357
1768416587585759000;7.046759033203125;0.055780339410901;0.8588168235979974;0.2466664838820695;-0.0245304256677627;-0.0106770452111959;0.2246372401714325
1768416587595760000;7.056760009765625;-0.2572773097455501;0.8273055407859384;0.1060433767050504;-0.0401091203093528;0.0924338921904563;0.2571618854999542
1768416587605762000;7.066761962890625;-0.2801829690366983;0.8199085624024272;0.0563448414258658;-0.0553646385669708;0.1558437496423721;0.2680746912956238
1768416587615763000;7.076762939453125;-0.0524824669092893;0.6723574095278978;0.0591316956654191;-0.0608851052820682;0.1278547197580337;0.2634139060974121
1768416587625764000;7.08676416015625;-0.2358078207373619;0.4694239035841077;0.0128209031283855;-0.059533417224884;0.1032322123646736;0.2223778218030929
1768416587635766000;7.09676611328125;-0.8144353916883468;0.2725887145154178;-0.0299660991966724;-0.045143824070692;0.0597233548760414;0.1926793158054351
1768416587645767000;7.106766845703125;-1.0874334176570175;0.0465242891572415;-0.1022597665131092;-0.0203207042068243;0.0159854982048273;0.1699638217687606
1768416587655767800;7.116767822265625;-0.8330915768414735;-0.113581845918484;-0.2343792492389678;0.01207185536623;-0.0129358991980552;0.1405060738325119
1768416587665770000;7.12677001953125;-0.3759767544060945;-0.1221671573037281;-0.3430573583617806;0.0548865720629692;0.0035375826992094;0.1228071600198745
1768416587675771000;7.13677099609375;0.0736976888954639;-0.0165605645807459;-0.4356456256881356;0.0907673463225364;0.0704457759857177;0.1015612632036209
1768416587685772000;7.14677197265625;0.4657406119614839;0.0957452700525522;-0.5553197605997323;0.1000397354364395;0.1319030076265335;0.0593169927597045
1768416587695773200;7.156773193359375;0.7721884875893592;0.197717232600227;-0.6584275222443043;0.0865518897771835;0.1683811247348785;0.0173743367195129
1768416587705775000;7.166775146484375;0.9880372238814832;0.2356094486210495;-0.6649088470876217;0.0547381676733493;0.1878847926855087;-0.0220374930649995
1768416587715776000;7.17677587890625;0.9167974495321513;0.2229145830251276;-0.5685043824739754;0.018200397491455;0.2099730521440506;-0.0643687099218368
1768416587725777000;7.18677685546875;0.5814893901228905;0.133537423232384;-0.3610305296868085;-0.0124197658151388;0.2493015527725219;-0.1144852861762046
1768416587735779000;7.196779052734375;0.1803922229856252;-0.0126356827545911;-0.1287156656317412;-0.0394303426146507;0.2775611281394958;-0.1672121435403823
1768416587745780000;7.206780029296875;-0.1489239025324583;-0.1445643921487033;0.1655680172108113;-0.0621995814144611;0.2717589437961578;-0.1957350820302963
1768416587755780900;7.21678076171875;-0.3759580497056246;-0.2363023627886548;0.4213086189083754;-0.0695746690034866;0.2365668565034866;-0.1989995837211609
1768416587765782000;7.226781982421875;-0.4166927956759929;-0.3470918745748698;0.6120578391268849;-0.0736752748489379;0.2017273604869842;-0.1879960149526596
1768416587775784000;7.236783935546875;-0.14319500349164;-0.4405289042176678;0.8317560904540121;-0.0601852945983409;0.1650098264217376;-0.1949175596237182
1768416587785784800;7.246784912109375;0.0843693050354719;-0.4687597405869513;0.9312491687327624;-0.0269685536623001;0.1202075108885765;-0.1938169151544571
1768416587795786200;7.2567861328125;0.0894628287822008;-0.4775575622117146;0.7713464838072657;0.0031254333443939;0.0800041630864143;-0.1815261542797088
1768416587805788200;7.2667880859375;0.1766939529895782;-0.4717309384174644;0.4771741523846983;-0.0004826835356652;0.0510962456464767;-0.1868858337402343
1768416587815789000;7.2767890625;0.1560650064587593;-0.3256831027779728;0.323768720524013;-0.0093235792592167;0.0194821264594793;-0.1878927797079086
1768416587825790000;7.2867900390625;-0.1791600508421659;-0.1250567047327757;0.1531719153657555;-0.0201679617166519;0.0059010931290686;-0.1687318235635757
1768416587835792100;7.296792236328125;-0.3944248497664928;0.0347899208902381;-0.054423517974466;-0.0361485257744789;0.0007255063392221;-0.1307285130023956
1768416587845793000;7.30679296875;-0.4243570466935634;0.0901992532979697;-0.1725938241943717;-0.055677693337202;0.0038810139521956;-0.0824384987354278
1768416587855794000;7.3167939453125;-0.2191507004469633;0.0617478695131838;-0.1841213265113532;-0.0711605176329612;0.0193318761885166;-0.0482291281223297
1768416587865795000;7.326795166015625;0.0792933169454336;-0.042161280775303;-0.1173977144122123;-0.0834465324878692;0.0223936736583709;-0.0383199825882911
1768416587875797000;7.336796875;0.155675714880228;-0.1695489218068309;0.1021373091772198;-0.0827692970633506;0.0221776906400918;-0.0404257476329803
1768416587885798000;7.3467978515625;0.2113958485364913;-0.3319756635835394;0.2605233059294521;-0.0734496265649795;0.0052861087024211;-0.046548917889595
1768416587895799000;7.356799072265625;0.1582984645992517;-0.3705366457113996;0.2415007716819643;-0.0628270730376243;-0.0343012474477291;-0.0349990539252758
1768416587905801000;7.366801025390625;-0.0868342338442802;-0.3180717509914189;0.1008579368911683;-0.04502385109663;-0.0608112663030624;-0.0137224849313497
1768416587915802000;7.376802001953125;-0.1304395668148994;-0.3086168171647936;-0.1297849022984504;-0.0404152497649192;-0.0675157681107521;0.0041246889159083
1768416587925803000;7.386802978515625;-0.0435778604418039;-0.2737344139518216;-0.3559666704259812;-0.0504392459988594;-0.0739365294575691;0.0089210234582424
1768416587935805200;7.39680517578125;-0.0945990226268768;-0.1902197895169258;-0.3382207319855689;-0.0546286664903163;-0.0630247592926025;0.0180178489536046
1768416587945806000;7.40680615234375;-0.1527431685596704;-0.0711426797835621;-0.1743953206583857;-0.0449772477149963;-0.0527446158230304;0.045493833720684
1768416587955807000;7.416806884765625;-0.1144803656607866;0.0153506316685583;-0.112806587229669;-0.0282113179564476;-0.0580927766859531;0.060402475297451
1768416587965807900;7.426807861328125;-0.1142407116860151;0.0207487826513592;-0.1052216850586235;-0.0247100610285997;-0.0667781382799148;0.0681908875703811
1768416587975810000;7.43681005859375;0.113720487204194;-0.0296369311743881;-0.018148235630989;-0.026454696431756;-0.0698021575808525;0.0560948103666305
1768416587985811000;7.44681103515625;0.2511941904395818;-0.0805508061932399;0.082183193168044;-0.0290835630148649;-0.0874937325716018;0.0316230356693267
1768416587995811800;7.456811767578125;0.0844008692175149;-0.1781201681341044;0.1458769360519945;-0.0255050733685493;-0.0871137008070945;0.0105393240228295
1768416588005814000;7.46681396484375;-0.1115010575890541;-0.1872256309359334;0.139699124199897;-0.0192967802286148;-0.0995689928531646;0.0117640774697065
1768416588015815000;7.47681494140625;-0.211903798058629;-0.0692566194417886;0.0785704094983637;-0.0087602501735091;-0.1155657991766929;0.0232015568763017
1768416588025816000;7.486816162109375;-0.3190636115729808;0.0661311078323982;0.0293232712484896;-0.0001051796134561;-0.1023161560297012;0.0342138931155204
1768416588035817000;7.49681689453125;-0.3271650849640369;0.2150427719377912;0.0044768531531095;0.0108398804441094;-0.0921519324183464;0.052958820015192
1768416588045819100;7.506819091796875;-0.2366284894704818;0.315126966243796;-0.0032579788826406;0.0189098604023456;-0.0932299196720123;0.0673502683639526
1768416588055820000;7.516820068359375;-0.0151543145120143;0.3684042733252048;-0.0504739035658538;0.0208100266754627;-0.0917915478348732;0.0686714649200439
1768416588065821000;7.526821044921875;0.1574275269836187;0.3769371969360858;-0.1558385042265057;0.0197805855423212;-0.0828539729118347;0.0596558824181556
1768416588075823000;7.536822998046875;0.269071792435646;0.3296709303051233;-0.2659954537302255;0.0117231914773583;-0.0554622933268547;0.0385074540972709
1768416588085824000;7.546823974609375;0.1894961514174938;0.3144108903963118;-0.2772518840208649;0.0076424302533268;-0.0344398319721221;0.0231276992708444
1768416588095825000;7.556824951171875;-0.0667009618759155;0.3390690924432128;-0.2777810224615037;0.0036831086035817;-0.0191828478127717;0.0244102776050567
1768416588105827000;7.5668271484375;-0.2369517300754785;0.3087975805591791;-0.2092256648905575;-0.0026463628746569;-0.0072375116869807;0.0256556924432516
1768416588115828000;7.576827880859375;-0.2902835072904825;0.2565003340236843;-0.0956501391150057;-0.0114353261888027;-0.0096002677455544;0.0344097688794136
1768416588125828900;7.586828857421875;-0.2409948679864406;0.2016305153201334;0.0940685690119862;-0.0098311705514788;-0.0199101082980632;0.0476378016173839
1768416588135830000;7.596830078125;-0.1176741932660341;0.1291103457714431;0.1867334087058901;-0.0044782171025872;-0.0072323959320783;0.0531268417835235
1768416588145832000;7.60683203125;0.0775286453604698;0.0717872704305686;0.1262825932659208;0.001347774756141;0.0002548538614064;0.0473756901919841
1768416588155833000;7.6168330078125;0.2561836692899465;0.0620658676874823;0.0198078394062817;0.0081638693809509;-0.0089061539620161;0.0278683006763458
1768416588165834000;7.626833984375;0.2460503978103399;0.0640025531047955;-0.1648464249379932;0.0097043151035904;-0.0127062015235424;0.0072446838021278
1768416588175836200;7.636836181640625;0.1392395438641309;0.0862920532589778;-0.2531001701913773;0.0014301403425633;-0.0054541481658816;-0.0069851181469857
1768416588185837000;7.646837158203125;-0.1321089613318443;0.1422781991739757;-0.2039424637906253;-0.0080916592851281;0.0126245599240064;-0.0054497285746037
1768416588195838000;7.656837890625;-0.3623170623660087;0.1640780161150731;-0.1293311671815812;-0.0133937466889619;0.0219131335616111;0.0179826263338327
1768416588205840100;7.666840087890625;-0.2893400889605284;0.1011942379071377;-0.0425612307451665;-0.015275802463293;0.0237171575427055;0.0378181189298629
1768416588215841000;7.676841064453125;-0.0908148279130458;0.0104628139612264;0.0419401762373745;-0.0107087483629584;0.0192086938768625;0.0381989516317844
1768416588225842000;7.686842041015625;0.0268792390972375;-0.0662585884032771;0.034559418336302;-0.0051324302330613;0.0118206907063722;0.0276287384331226
1768416588235842800;7.6968427734375;0.1363905841737985;-0.1437294574282132;0.0362869727812707;0.0015529030933976;-0.0003736575599759;0.0134260989725589
1768416588245845000;7.706844970703125;0.1902057609915733;-0.1413518598429858;0.0030462358281016;0.0040643298998475;-0.009142542257905;0.0022848420776426
1768416588255846100;7.71684619140625;0.1094318500995635;-0.1572804283968173;-0.062770344428718;0.0020246151834726;-0.0090631805360317;-0.0045155393891036
1768416588265847000;7.726846923828125;-0.0267342776685953;-0.1745722846604883;-0.0524453497692942;-0.0056044673547148;-0.0227690115571022;-0.0026860889047384
1768416588275849200;7.73684912109375;-0.0999871454060077;-0.1542471251155249;-0.0574073560908436;-0.0093235718086361;-0.0320157743990421;0.0071737323887646
1768416588285850000;7.74685009765625;-0.0625105244487524;-0.2143635027030482;-0.0772733554251492;-0.0173243768513202;-0.0232884939759969;0.0086629036813974
1768416588295851000;7.75685107421875;0.0305851078778505;-0.2591666123571805;-0.0642534225933253;-0.0233910586684942;-0.0132539700716733;-0.0024946755729615
1768416588305852000;7.766851806640625;0.0321855288118124;-0.2362077433077618;0.032542379425466;-0.0231446474790573;-0.0144311366602778;-0.0099797220900654
1768416588315854000;7.77685400390625;-0.0666974547445774;-0.1839197577909566;0.0995069606736302;-0.0199754852801561;-0.0185965858399868;-0.0023284605704247
1768416588325855200;7.786855224609375;0.0216331551373004;-0.1814113186339847;0.0883221343144774;-0.0177867040038108;-0.0183582957834005;-0.0082015190273523
1768416588335856000;7.796856201171875;0.2538537650376558;-0.1588160587325692;0.0098610304094851;-0.0140191297978162;-0.0253152698278427;-0.020751666277647
1768416588345858000;7.806858154296875;0.2695376563817263;-0.136975763650611;-0.1194584463343024;-0.015425662510097;-0.0270227007567882;-0.0291176028549671
1768416588355859000;7.81685888671875;0.0577098461687564;-0.1035861745449714;-0.1489233180105686;-0.020124277099967;-0.0214566942304372;-0.0312049873173236
1768416588365860000;7.826860107421875;-0.1746720917731523;-0.0869608741649426;-0.0515671056300401;-0.0237611588090658;-0.0242918450385332;-0.0203323997557163
1768416588375861200;7.836861328125;-0.2508580903530121;-0.1367288214185275;0.0736690473228693;-0.0241731498390436;-0.034889630973339;-0.0089047774672508
1768416588385863200;7.84686328125;-0.1850543695777654;-0.1905096575752831;0.15133110980466;-0.0219072066247463;-0.0403190292418003;-0.007423551287502
1768416588395864300;7.8568642578125;-0.0514642297774553;-0.1882459869596175;0.1536683205805719;-0.0162322763353586;-0.0520635694265365;0.0008450306486338
1768416588405865200;7.866865234375;0.0836240396261215;-0.117548374929279;0.0794080293662846;-0.0097736492753028;-0.0589244663715362;0.0050749387592077
1768416588415867100;7.8768671875;0.1177460894584655;-0.0316551117295399;-0.04747822888121;-0.0095406211912631;-0.0568053871393203;-0.0027715326286852
