timestamp;seconds_elapsed;acc_z;acc_y;acc_x;gyro_z;gyro_y;gyro_x
1768416543824580600;0.07458056640625;0.0483376587221398;0.0257382523685693;-0.0047428654118441;0.0138852708041667;0.0593342520296573;-0.0170965902507305
1768416543834582500;0.08458251953125;0.0630249037116766;0.0158919811367988;-0.0038973910310305;0.0158177223056554;0.0590233281254768;-0.0160322375595569
1768416543844583400;0.09458349609375;0.0659825844734907;-0.0033779520004987;-0.0080881937843747;0.014468565583229;0.0577671155333519;-0.0155062638223171
1768416543854585600;0.104585693359375;0.0344581499189138;-0.0232324070274829;-0.0056964032770134;0.0119438813999295;0.0540331676602363;-0.0125401504337787
1768416543864587500;0.11458740234375;0.0181586839597672;-0.0264613059461116;0.0203564862649887;0.0101395901292562;0.0493627823889255;-0.0113390646874904
1768416543874588400;0.12458837890625;0.0058796326231211;-0.0329763869285583;0.021593480714038;0.0054361261427402;0.0461436100304126;-0.0109958201646804
1768416543884590600;0.134590576171875;0.0071469491451978;-0.033055297383666;0.0217439585680142;0.0027434036601334;0.0405299328267574;-0.0111790467053651
1768416543894591500;0.144591552734375;0.0107651396423578;-0.0256353765159845;0.0331194486610591;-0.0024362641852349;0.0343780256807804;-0.0100867329165339
1768416543904593400;0.154593505859375;0.0114408834794536;-0.0207487735182046;0.0266763917352072;-0.0027321414090692;0.0262117087841033;-0.0095245391130447
1768416543914595600;0.164595703125;0.0123855073858052;-0.0047930794954299;0.0277032688312232;-0.0075011039152741;0.0150871109217405;-0.0109847504645586
1768416543924596500;0.174596435546875;0.0310206862835213;-0.0274520705491304;0.0400469463692978;-0.0086499908939003;0.007055283524096;-0.0146210305392742
1768416543934598700;0.1845986328125;0.0308722177235409;-0.0389005162805318;0.0535142576424404;-0.0106970453634858;0.0007878770120441;-0.015681842342019
1768416543944599600;0.194599609375;0.001146831947565;-0.0250619605422019;0.0594198832233436;-0.0106243416666984;-0.0083787236362695;-0.0163470990955829
1768416543954601500;0.2046015625;-0.0155301620870828;-0.008981763356924;0.0690908344208262;-0.0103053022176027;-0.0140314772725105;-0.0180582962930202
1768416543964603600;0.214603759765625;-0.0132604635894298;-0.0137163906633853;0.0561620504711754;-0.011146861128509;-0.0202462300658226;-0.0180889219045639
1768416543974604500;0.2246044921875;-0.0249625918209552;-0.0010801964521408;0.0556496257033199;-0.0112669700756669;-0.0259856078773736;-0.0166979543864727
1768416543984606500;0.2346064453125;-0.047019013871625;-0.0080313307642936;0.0659760634011589;-0.007660187780857;-0.0270177125930786;-0.011902779340744
1768416543994607600;0.244607666015625;-0.0708727676678449;-0.0118318920910358;0.0506986522324383;-0.0069880532100796;-0.0255092680454254;-0.0124064963310956
1768416544004609500;0.254609619140625;-0.0644932226985692;-0.0279155964076519;0.0390249281114898;-0.0063286544755101;-0.0249707754701375;-0.0153160002082586
1768416544014611500;0.264611572265625;-0.0371884516656398;-0.0353460386693477;0.0033538404725491;-0.0075537245720624;-0.024216204881668;-0.0190561823546886
1768416544024612600;0.274612548828125;-0.0206033006329089;-0.0040238486886024;-0.0095000698762945;-0.0053305174224078;-0.0213557034730911;-0.0171003565192222
1768416544034614500;0.284614501953125;-0.0449351933348923;0.0340618440777063;-0.0208425344825722;-0.004882417153567;-0.0188570078462362;-0.0106894057244062
1768416544044615400;0.294615478515625;-0.0649532414257526;0.0569137273550033;-0.0111372974229976;-0.0024616038426756;-0.014772517606616;-0.0066432650201022
1768416544054617600;0.30461767578125;-0.0639140345711261;0.0212672444343566;0.0101289788969792;-0.0040770377963781;-0.0108408518135547;-0.0058456482365727
1768416544064619500;0.31461962890625;-0.0457557159375399;-0.0266518600821495;0.0060297999498434;-0.0041334968991577;-0.0099857104942202;-0.008206807076931
1768416544074620400;0.324620361328125;-0.0257651403754949;-0.0445130954653024;0.001825060002692;-0.0060345162637531;-0.0100224036723375;-0.0122460611164569
1768416544084622600;0.33462255859375;-0.0194318457007408;-0.052990416431427;0.0288048733975738;-0.0065162819810211;-0.0112224239856004;-0.0225178729742765
1768416544094623500;0.34462353515625;0.0095937577754259;-0.0562847818017005;0.0415597986176609;-0.006443060003221;-0.0100103197619318;-0.0296045839786529
1768416544104625400;0.35462548828125;-0.0121505295861512;-0.0392553210675716;0.0186072131785564;-0.0056294649839401;-0.0125318001955747;-0.0301776975393295
1768416544114627600;0.364627685546875;-0.0092774583678692;-0.0394324312001466;0.018212332109455;-0.0045350859872996;-0.0128079615533351;-0.0279589034616947
1768416544124628500;0.37462841796875;-0.0202817405283451;0.0024456395864486;0.0296156417911872;-0.005983845796436;-0.0139384735375642;-0.0271610207855701
1768416544134630700;0.384630615234375;0.0047328737407922;0.0217214179426431;0.035670868443232;-0.006245563738048;-0.0147639457136392;-0.0312369093298912
1768416544144631600;0.394631591796875;-0.0018014233987778;0.0308212547212839;0.056799599456042;-0.0061385044828057;-0.0168779622763395;-0.0295854844152927
1768416544154633500;0.404633544921875;-0.0048725014071911;-0.0078173957526683;0.040279220755212;-0.0059351958334445;-0.0159470383077859;-0.031631514430046
1768416544164635600;0.4146357421875;-0.0019213234513998;-0.0080021046698093;0.0397970997940748;-0.0067032510414719;-0.0157315880060195;-0.02997263148427
1768416544174636500;0.424636474609375;-0.0227612823843956;-0.0378133055657148;0.0304243826244957;-0.0074668815359473;-0.0136851239949464;-0.0306319184601306
1768416544184638500;0.434638427734375;-0.0141448452085256;-0.0293061739832162;0.028084760695789;-0.0078620938584208;-0.0136177465319633;-0.0271833911538124
1768416544194639600;0.4446396484375;0.0042249972838908;-0.0324520707935094;0.0131716162621974;-0.0093460781499743;-0.0116649577394127;-0.0257661342620849
1768416544204641500;0.4546416015625;0.0181797998130321;-0.004617722928524;-0.0001196808569133;-0.0099213207140564;-0.0113618904724717;-0.0239362753927707
1768416544214643500;0.4646435546875;0.024381650127843;-0.0071399348825216;0.0034674203822389;-0.0110139539465308;-0.0123908035457134;-0.021160839125514
1768416544224644600;0.47464453125;0.0169073687244206;0.0072620999574661;-0.0175817973872646;-0.0125311566516757;-0.0119175594300031;-0.0197693388909101
1768416544234646500;0.484646484375;0.0264653245341032;-0.006008885025978;-0.0126986558550503;-0.0107907019555568;-0.0129891317337751;-0.017024952918291
1768416544244647400;0.4946474609375;0.0344664062906056;0.0081079031318426;-0.0107736700086854;-0.0115571599453687;-0.0125779397785663;-0.0177445411682128
1768416544254649600;0.504649658203125;0.042398879790306;0.0234258837729692;-0.0099020291401538;-0.0124443843960762;-0.0101859383285045;-0.0164684671908617
1768416544264651800;0.51465185546875;0.049823476833105;-0.0119797761291265;-0.0134830476983916;-0.0091327428817749;-0.0099803423509001;-0.0172865912318229
1768416544274652700;0.524652587890625;0.0518681344032287;-0.0219523040890693;-0.009079488110356;-0.0083059258759021;-0.0090868351981043;-0.0167452041059732
1768416544284654600;0.534654541015625;0.031626725885272;-0.0220393978506326;-0.0095958492678124;-0.0088095292448997;-0.0087313028052449;-0.015334527939558
1768416544294655700;0.54465576171875;-0.0041512744605541;-0.0029646950244903;-0.0099069336441345;-0.0083665214478969;-0.0078348331153392;-0.0139562282711267
1768416544304657700;0.55465771484375;-0.0029318887334316;-0.0030360066950321;-0.0107055366759188;-0.0088517488911747;-0.0052158809266984;-0.0132845807820558
1768416544314659600;0.56465966796875;-0.001384220900014;0.0106745387494564;-0.0322953184623736;-0.0065353158861398;-0.0057323677465319;-0.0114110074937343
1768416544324660700;0.57466064453125;0.0048234746336936;-0.0116775783121585;-0.0426798795556183;-0.0075718183070421;-0.0070607522502541;-0.0125835966318845
1768416544334662700;0.58466259765625;0.0043014235209673;-0.0012725041538476;-0.0290155844056513;-0.005258094985038;-0.0074469773098826;-0.0129573158919811
1768416544344663600;0.59466357421875;0.003030088410899;-0.0004477437674999;-0.0336450160382781;-0.002461242955178;-0.0075172847136855;-0.0123652964830398
1768416544354665700;0.604665771484375;0.0041636224854737;-0.0005225625693798;-0.0338507677434477;-0.0029762517660856;-0.0056586973369121;-0.0131572037935256
1768416544364667600;0.614667724609375;0.0040168344259262;-0.0097311204195022;-0.0417594676419161;-0.0011461275862529;-0.0072025321424007;-0.0143324565142393
1768416544374668500;0.62466845703125;0.0003086275577545;-0.0219441207826137;-0.0566071730233263;-0.0039573055692017;-0.00800446793437;-0.0151148559525609
1768416544384670700;0.634670654296875;-0.0353694195449352;-0.0325140301138162;-0.032926547304308;-0.0035322648473083;-0.0086508179083466;-0.0145899476483464
1768416544394671600;0.644671630859375;-0.0388957670401781;-0.025876784056425;-0.0367713861641939;-0.0025459313765168;-0.0071154139004647;-0.0155405830591917
1768416544404673800;0.654673828125;-0.0393266327381134;-0.0324263518303632;-0.0458095832829363;0.0003148360410705;-0.0074794678948819;-0.0173653811216354
1768416544414675700;0.66467578125;-0.0422298798989504;-0.0308919818699359;-0.0526068604739382;-0.0001273584784939;-0.0041786292567849;-0.0154796708375215
1768416544424676600;0.674676513671875;-0.0480138701278716;-0.0262029472708702;-0.0643206700101029;-6.53069000691e-05;-0.0016462295316159;-0.0120484549552202
1768416544434678800;0.6846787109375;-0.0399403807222843;-0.0184966106772422;-0.0690725133128464;0.0019343593157827;-0.000681540928781;-0.0110941305756568
1768416544444679700;0.6946796875;-0.014082958953455;-0.0028606501281261;-0.0505056869436055;0.0026624675374478;0.0019917401950806;-0.0098653482273221
1768416544454681600;0.704681640625;0.0115425537556409;0.0172685301870107;-0.0334679881040938;0.0034779976122081;0.0039950781501829;-0.0093070734292268
1768416544464683800;0.714683837890625;0.0238355605524033;0.0291799172550439;-0.0232234565360471;0.0033110175281763;0.0037207724526524;-0.0056556137278676
1768416544474684700;0.7246845703125;0.0190846396982669;0.013118424770236;-0.0190772509762551;0.003434588201344;0.0028251511976122;-0.0067397858947515
1768416544484686600;0.7346865234375;0.0127262836474925;0.0120177700519561;-0.007906681471318;0.0042734839953482;0.0022539035417139;-0.0066511025652289
1768416544494687700;0.744687744140625;0.0036374797195196;-0.0015127426505088;-0.0081179770012851;0.0043663186952471;0.0022668023593723;-0.0078043271787464
1768416544504689700;0.754689697265625;-0.0075204586327075;-0.0045808980494737;-0.0124249534802045;0.0039306255057454;2.36220657825e-05;-0.0088986195623874
1768416544514691600;0.764691650390625;-0.0287882145237177;-0.0012181436181068;0.0164387282993644;0.0025182962417602;-0.001091384794563;-0.0098014697432518
1768416544524692700;0.774692626953125;-0.019639862428233;-0.0131178402483463;0.0098987320713698;0.000388033571653;-0.0035457541234791;-0.0122774103656411
1768416544534694700;0.784694580078125;-0.032647374169901;-0.0284679695934057;0.0481244634960312;-0.0005737042520195;-0.0042257672175765;-0.0122761540114879
1768416544544695600;0.794695556640625;-0.0326928938120603;-0.0215174198031425;0.0592841097481548;0.0010676018428057;-0.0060689412057399;-0.0121003855019807
1768416544554697700;0.80469775390625;-0.0211117616117;-0.0233943195909261;0.0539425569239538;0.0016169963637366;-0.0094425342977046;-0.010739017277956
1768416544564699600;0.81469970703125;-0.0262369226057082;-0.0095545948088169;0.061524399488233;0.0026606891769915;-0.0102310962975025;-0.0092207491397857
1768416544574700500;0.824700439453125;-0.0416103597611188;0.0158235920757055;0.0229532064936123;0.0020878210198134;-0.0104226656258106;-0.007908234372735
1768416544584702700;0.83470263671875;-0.0373052829783409;0.0169645788043737;0.0200120384751819;0.002879312261939;-0.0120117738842964;-0.0070783928968012
1768416544594703600;0.84470361328125;-0.0420487511783838;-0.0003051204264163;0.012575020342227;0.0017345040105283;-0.0132941287010908;-0.0077939396724104
1768416544604705800;0.854705810546875;-0.040412674409151;-0.0299988324224948;0.0193715760140214;0.0009661820949986;-0.0136866783723235;-0.0088480189442634
1768416544614707700;0.864707763671875;-0.0346136327415704;-0.0303588979065418;0.0169546693317126;-0.001437931205146;-0.0143154859542846;-0.0071645602583885
1768416544624708600;0.87470849609375;-0.0430045175332576;-0.0350485170274972;0.0122834352508187;-0.0014954555081203;-0.0132664665579795;-0.0082620494067668
1768416544634710800;0.884710693359375;-0.0275415023982524;-0.0487181459397077;0.0098157573624979;-0.0014283208874985;-0.0132895428687334;-0.0095993345603346
1768416544644711700;0.894711669921875;-0.0367599971204996;-0.0407160412698984;0.0043066294190473;0.0009200546192005;-0.0093981316313147;-0.0110297184437513
1768416544654713600;0.904713623046875;-0.0315676891744136;-0.0014548749834299;0.0044388318308163;0.0016688731266185;-0.0085567086935043;-0.0120575856417417
1768416544664715800;0.9147158203125;-0.0303396086841821;-0.0015454758763313;0.0045693263426888;-0.0007748436182737;-0.008884809911251;-0.0139329824596643
1768416544674716700;0.924716552734375;-0.0143359838664531;-1.51975691318e-05;0.0236775661122519;-0.0013919993070885;-0.0099864676594734;-0.015208525583148
1768416544684718600;0.934718505859375;-0.0308861366510391;0.0007744915038347;0.0226172890701331;-0.0044754073023796;-0.0136270094662904;-0.0126292537897825
1768416544694719700;0.9447197265625;-0.0672714552402496;0.0134247142404317;3.5253976471e-06;-0.0035881209187209;-0.0154929030686616;-0.0065580434165894
1768416544704721700;0.9547216796875;-0.04248480450809;-0.0095142627984285;0.0115675785990431;-0.0052653797902166;-0.0163661520928144;-0.0050384434871375
1768416544714723600;0.9647236328125;-0.0003765051621943;-0.0289981309473514;0.0432742835185024;-0.0050023295916616;-0.0116535313427448;-0.0060763536021113
1768416544724724700;0.974724853515625;0.0293728825438767;-0.0279980139940977;0.0047741464660968;-0.0026933690533041;-0.0101011749356985;-0.0074825026094913
1768416544734726700;0.9847265625;0.0089081135988235;-0.0163888247430324;-0.0082986855967435;-0.00524114491418;-0.0132686309516429;-0.0095064286142587
1768416544744727600;0.9947275390625;-0.027278979004547;0.0230552968949079;-0.0099772132682148;-0.0053202407434582;-0.0140872858464717;-0.0084361042827367
1768416544754729700;1.004729736328125;-0.05645370862782;0.0358972428113222;-0.0285096533106639;-0.0049457843415439;-0.0120410118252038;-0.0019355560652911
1768416544764730600;1.014730712890625;-0.0369622416943311;0.0204892457991838;-0.0165630944645497;-0.0049108969978988;-0.0099411103874444;0.0007728785276412
1768416544774732500;1.024732666015625;-0.01886668609865;-0.0158668466955423;-0.0018506602348294;-0.0050531174056231;-0.0093737822026014;0.0017693168483674
1768416544784734700;1.034734619140625;0.0055891252439469;-0.0199041393876075;0.0076126030287239;-0.0065966853871941;-0.0078115719370543;-0.0006586872041225
1768416544794735600;1.044735595703125;-0.000751037563011;-0.0338163448840379;0.0264873263033572;-0.0069587035104632;-0.0086232870817184;-0.0024481010623276
1768416544804737800;1.05473779296875;0.0280862767994403;-0.054946811196208;0.0085006287764757;-0.0077307540923357;-0.0116688786074519;-0.0103294597938656
1768416544814739700;1.06473974609375;0.0214970346022397;-0.0572591797918081;0.0081943484394345;-0.0068883807398378;-0.0118359578773379;-0.0112625937908887
1768416544824740600;1.07474072265625;0.0224223327536135;-0.0573211391121149;0.0078081803997512;-0.0047397422604262;-0.0116031980141997;-0.0065176393836736
1768416544834742800;1.08474267578125;-0.0157617058206349;-0.0310234992951154;-0.0131089262895286;-0.0029261843301355;-0.0104939322918653;-0.0051703839562833
1768416544844743700;1.09474365234375;-0.0178097974568605;0.0121878659218549;-0.0121797282811719;-0.001270497101359;-0.0095892567187547;-0.0063099502585828
1768416544854745600;1.10474560546875;-0.0208043030977249;0.0148263977319002;-0.0265505825316067;-0.0020871548913419;-0.0092510106042027;-0.009115288965404
1768416544864746800;1.114746826171875;-0.0310539674986153;0.0003910451442003;-0.0340089265803806;-0.0020251031965017;-0.0063388440757989;-0.0099469935521483
1768416544874748700;1.124748779296875;-0.0352630365610122;0.0025724808365106;-0.0247385281409602;-0.0017868840368464;-0.004316197708249;-0.0084149129688739
1768416544884750600;1.13475048828125;-0.0209234724979847;-0.0154354695409536;-0.0231808777696453;-0.0014537227107211;-0.0027995277196168;-0.0062963687814772
1768416544894751700;1.144751708984375;-0.0239512958865612;-0.0258019652545452;-0.0220015043925028;-0.0004909898852929;-0.0035830296110361;-0.0071110292337834
1768416544904753700;1.154753662109375;-0.0058136547148227;-0.0348258141875267;-0.0182995263357181;5.1569659262e-06;-0.001756101148203;-0.0057320441119372
1768416544914754600;1.164754638671875;0.0100484427403658;-0.0484960276216268;-0.0250366891036275;-0.0015867708716541;-0.000520511297509;-0.0095482785254716
1768416544924756700;1.1747568359375;0.0087707509547471;-0.0385503876686096;-0.0326103757609147;-0.0026171477511525;0.0015285245608538;-0.0121278166770935
1768416544934758700;1.184758544921875;-0.0126256728172302;-0.0241208802998065;-0.026988234163355;-0.0028400153387337;-0.0004456350579857;-0.0117461867630481
1768416544944759600;1.194759521484375;-0.0155102883428335;-0.0155360073059797;-0.0123554227747954;-0.0038600058760493;-0.00040302448906;-0.012993611395359
1768416544954761700;1.20476171875;0.0108066406965255;-0.0038104981988668;-0.0185360750379506;-0.0025484380312263;-0.0011716543231159;-0.0133781712502241
1768416544964762600;1.2147626953125;-0.0026408698976039;0.0025222119539976;-0.0121190476024989;0.0004004799993708;-0.0005402187816798;-0.0136844348162412
1768416544974764800;1.224764892578125;-0.0176011231422424;0.0116851770967245;-0.0161758852452505;0.0006853438680991;0.0029394847806543;-0.0155484173446893
1768416544984766700;1.2347666015625;-0.0021867694545537;0.0072317048192024;-0.0392370273590553;0.0012267645215615;0.003882243996486;-0.0152743775397539
1768416544994767600;1.244767578125;-0.0026864626049995;-0.0033422961652278;-0.0430165824303869;-0.0007893810980021;0.0040306062437593;-0.0130439456552267
1768416545004769800;1.254769775390625;-0.0235865542273968;0.003308393895626;-0.027672709296178;-0.000344899483025;0.0043435273692011;-0.0105616133660078
1768416545014770700;1.264770751953125;-0.0193534467022866;-0.0031990883022546;-0.0162971735373605;0.0011679793242365;0.0039665084332227;-0.0074201081879436
1768416545024772600;1.274772705078125;-0.0209468533735722;0.0072124155968427;-0.0012816099089104;0.0016750451177358;0.0044120550155639;-0.0076201115734875
1768416545034774800;1.28477490234375;-0.0195948542427271;-0.0079494976997375;-0.0010380652103107;0.0013961738441139;0.0067543126642704;-0.0065068379044532
1768416545044775700;1.294775634765625;-0.0117534930925816;-0.0103968908518552;0.005927262023976;0.0028297533281147;0.0069745564833283;-0.0081215128302574
1768416545054777600;1.304777587890625;0.0187807613808661;-0.0002986906856298;-0.0090396949560847;0.0021756656933575;0.0046182922087609;-0.0096142534166574
1768416545064778800;1.31477880859375;0.0070272682882845;-0.0099473935186862;-0.0118803343426436;0.0035852768924087;0.0048731570132076;-0.0074704079888761
1768416545074780700;1.32478076171875;0.0129641840565949;-0.0100321491926908;-0.0051247500020544;0.0029196420218795;0.0037927811499685;-0.009300148114562
1768416545084782600;1.334782470703125;-0.0001893120270222;-0.0175882636606693;-0.0071631787607911;0.0016943216323852;0.0021895582322031;-0.006806097459048
1768416545094783700;1.34478369140625;-0.0156697897534817;-0.0122650228112936;0.0069494629448745;0.0006179742049425;0.0014723234344273;-0.0056314170360565
1768416545104785700;1.35478564453125;-0.0222732066065073;-0.0024327801048755;0.0073725380619987;0.0004954687901772;0.0035032501909881;-0.0041405791416764
1768416545114786600;1.36478662109375;-0.0199433023542165;0.0023281506866216;0.0038297874212265;0.0003704484552145;0.0047345729544758;-0.0033722557127475
1768416545124788700;1.374788818359375;-0.0213402366053313;0.0171352591961622;-0.0107279951028991;0.0013496928149834;0.0031270894687622;-0.0039972993545234
1768416545134790700;1.384790771484375;0.0048282238740473;-0.0086041622161865;0.0032308534136973;0.0013793015386909;0.0018666293472051;-0.0017203744500875
1768416545144791600;1.39479150390625;0.0028531974740326;-0.0298538709938526;-0.0038437154818791;0.0016911576967686;-0.0008679043967276;-0.0008284817449748
1768416545154793700;1.404793701171875;0.0107418318320065;-0.0279056595355272;0.0138223535222001;-0.0008233990520238;-0.0036314665339887;-0.0023906920105218
1768416545164794600;1.414794677734375;0.0110492172807455;-0.0279261178016662;0.013653536293935;-0.0035595307126641;-0.0061303107067942;-0.0042687528766691
1768416545174796800;1.424796875;0.022487653074786;-0.0225748199015855;0.0036219442236702;-0.0036006378941237;-0.0082645509392023;-0.0047225928865373
1768416545184798700;1.434798828125;-2.27232884615e-05;-0.0265086522191762;-0.0107299769974313;-0.0050576534122228;-0.0087990472093224;-0.0057814656756818
1768416545194799600;1.444799560546875;-0.0172532595526427;-0.0204103353440761;-0.0085387505634687;-0.0048050913028419;-0.0100406296551227;-0.0038373214192688
1768416545204801800;1.4548017578125;-0.0356576619017869;-0.0089180504709482;-0.0046493236431851;-0.0043401033617556;-0.0093029346317052;-0.0034756637178361
1768416545214802700;1.464802734375;-0.02992160246782;-0.0053372693747282;0.0068339924721978;-0.004249304998666;-0.0072615211829543;-0.002055705524981
1768416545224804600;1.4748046875;-0.0217067318301647;-0.0014531214177608;-0.0160306224225088;-0.004135055001825;-0.0081028137356042;0.0012122595217078
1768416545234806800;1.484806884765625;-0.0134638772070407;0.0015565817922353;-0.0230866601475514;-0.0055037084966897;-0.0059168329462409;-1.3630837202e-05
1768416545244807700;1.4948076171875;-0.0116249713420867;-0.0038169279396533;-0.0221367390115745;-0.0037348370533436;-0.0026533955242484;-0.002514605410397
1768416545254809600;1.5048095703125;-0.0137128835320472;-0.0053103813678026;-0.0060412437924649;-0.0013730836799368;-0.0022471293341368;-0.0023192418739199
1768416545264810500;1.514810546875;0.0045475803017616;-0.0056195934474468;-0.0076378927336074;-0.0018165000947192;-0.0040194629691541;-0.0011122971773147
1768416545274812400;1.5248125;-0.0108446346193552;0.0018488427370786;-0.0036284378965385;-0.0014733594143763;-0.0063363634981215;-0.0015862258151173
1768416545284814300;1.534814453125;-0.0167108232390135;-0.0014630582898855;0.0210458019697107;-0.0030054762028157;-0.0058258352801203;-0.0008285562507808
1768416545294815500;1.5448154296875;-0.0032053719125688;-0.016288871499896;-0.0065425991770345;-0.0015631942078471;-0.0033104890026152;0.0004397931043058
1768416545304817400;1.5548173828125;-0.0032048604559153;-0.0162882869780063;-0.0066029693284537;0.0011023638071492;-0.0010862168855965;-0.0008161538280546
1768416545314818300;1.564818359375;-0.0057843555551022;-0.0227566062092781;-0.0013467019012197;-0.0009729982120916;0.0006121227052062;-0.0043030316010117
1768416545324820500;1.574820556640625;0.002541428111121;-0.0341734877586364;-0.0165575506397522;0.0019831105601042;0.0010038737673312;-0.0049632294103503
1768416545334821400;1.5848212890625;-0.0147633424330502;-0.0318324775904417;-0.0066146232336293;0.0004159191157668;0.0021706891711801;-0.006353935226798
1768416545344823300;1.5948232421875;-0.008078603972122;-0.0267979905545711;-0.0176575021051336;-0.0012557471636682;0.0022239519748836;-0.0057424735277891
1768416545354825500;1.604825439453125;-0.0100911859035491;-0.0063274494558572;-0.0149327807158231;0.0002900530816987;0.0030321287922561;-0.004402216989547
1768416545364826400;1.614826416015625;-0.0137619833707809;0.010850479838252;-0.011938886996312;0.002416320843622;0.0035778107121586;-0.0038152555935084
1768416545374828300;1.624828369140625;-0.0015775515150278;0.0163607676923275;-0.0268760424931533;0.0008346384856849;0.0034139603376388;-0.0019955951720476
1768416545384829400;1.634829345703125;0.0032424159873276;0.0136520932555198;-0.0215526646464597;0.0010809808736667;0.0013819686137139;-0.0015130303800106
1768416545394831400;1.644831298828125;-0.0028488866250962;-0.0135971481978893;-0.004891534901224;0.0001121850218623;0.0013192500919103;-0.000717123504728
1768416545404833500;1.65483349609375;-9.23544585704e-05;-0.0097153383284807;-0.0031473124492447;0.0020392483565956;0.0008494681678712;-0.0006619957275688
1768416545414834400;1.66483447265625;-0.0058878889948129;-0.0175257198184728;0.0135294623896945;0.001420329674147;0.0003977960441261;-0.0029866690747439
1768416545424836400;1.67483642578125;-0.0015530746608972;-0.0096241529136896;0.0177309144012164;0.0040121180936694;0.0007400121539831;-0.0037073208950459
1768416545434837200;1.684837158203125;0.0136743050873279;0.0003641571372747;0.0211508697793819;0.0037861014716327;0.0004827596712857;-0.0038225203752517
1768416545444839400;1.69483935546875;0.0280810891676694;-0.0073135378837585;-0.0011767247623298;0.0041131377220153;0.0014452261384576;-0.0043402388691902
1768416545454841300;1.70484130859375;0.0135130501110106;0.0095569328963756;-0.0079250482450705;0.0043566296808421;0.0004186609294265;-0.0053136264905333
1768416545464842500;1.714842529296875;-0.0087882135462015;-0.01712064614892;-0.016940412477497;0.0047174878418445;0.0005480903200805;-0.0037439595907926
1768416545474844400;1.724844482421875;-0.0269932939309626;-0.0101093060821294;-0.0286468606911133;0.0037740948610007;0.0014224993064999;-0.0002473830245435
1768416545484845300;1.73484521484375;-0.0323275676310062;-0.0014274024546146;-0.0123111452416516;0.0026736767031252;0.0026139975525438;0.0018852765206247
1768416545494847500;1.744847412109375;-0.0167342771798372;-0.0115963297694921;-0.0034168501056265;0.0049228798598051;0.0041413609869778;0.0016863804776221
1768416545504849400;1.754849365234375;0.0083667732637375;-0.0108498953163623;0.0154052114000078;0.0054541807621717;0.0058290059678256;-0.0014774547889828
1768416545514850300;1.764850341796875;0.0499802017647773;-0.0295838218808174;0.0036650344467256;0.0048224478960037;0.0050126807764172;-0.0039516082033514
1768416545524852500;1.7748525390625;-0.0169190591622144;0.0167857151061296;-0.0196642022850457;0.0065188813023269;0.0068148411810398;-0.0005616704002022
1768416545534853400;1.784853271484375;-0.0370680401563644;0.027872341787815;-0.0023114735464565;0.0048053795471787;0.0092251282185316;0.005842471960932
1768416545544855300;1.794855224609375;-0.049740986181423;-0.0003612345278263;0.0148082410207018;0.0057462747208774;0.0131791234016418;0.0082558281719684
1768416545554857500;1.804857421875;-0.00614748977907;-0.0333697701603174;0.0144774746963754;0.0035310494713485;0.0145030543208122;0.0101367030292749
1768416545564858400;1.8148583984375;0.0201835408508777;-0.0367453840732574;0.018936162005132;0.0025925515219569;0.0123301818966865;0.008820834569633
1768416545574860500;1.824860595703125;0.009707812609151;-0.0281610956013202;0.0131074193190317;0.0026119532994925;0.0103596672415733;0.00476217828691
1768416545584861400;1.834861328125;0.0349929143827408;-0.0163180975943803;0.020411668784637;0.0024825236760079;0.0061782370321452;0.0002846056595444
1768416545594863400;1.84486328125;0.004787891863659;-0.0137906249433755;0.0266071898233611;0.0026768175885081;0.0031059409957379;-0.0018549039959907
1768416545604865500;1.854865478515625;-0.050655251482129;0.0119482119470834;0.0401248704437166;0.0036203754134476;0.0012116346042603;0.0051979455165565
1768416545614866400;1.864866455078125;-0.0466337408810853;0.0096054482132196;0.0376331084269098;0.0056007569655776;0.0004360643215477;0.0101424073800444
1768416545624868400;1.874868408203125;-0.0343517669349908;-0.0133791215330362;0.0395114969188813;0.006355763413012;0.000115686096251;0.0096457283943891
1768416545634869200;1.884869140625;0.0032942923050373;-0.0124257663309574;0.0312371511789504;0.0037954002618789;-0.0015719591174274;0.0070619289763271
1768416545644871400;1.894871337890625;0.014425342650339;0.0052799862295389;0.0258339312953874;0.0010874980362132;-0.0048590986989438;0.0061287572607398
1768416545654872300;1.904872314453125;-0.0190010530680418;-0.0008078092515468;0.0065740263617597;0.0021259898785501;-0.0031612836755812;0.0064934571273624
1768416545664874500;1.91487451171875;-0.0199299314159899;-0.0007405892342329;0.0067760882725007;0.0028559623751789;-0.0020840349607169;0.0111254937946796
1768416545674876400;1.92487646484375;-0.0020552520293742;-0.0023158757269382;0.0019568879551254;0.0046308492310345;-0.0018578170565888;0.0088721178472042
1768416545684877300;1.934877197265625;-0.0046937107741832;-0.0104874917447566;-0.0108231625730637;0.0048660063184797;-0.0032586397137492;0.0103546995669603
1768416545694879500;1.94487939453125;-0.0214892896872013;-0.013853168785572;-0.0117189423690084;0.0057057561352849;-0.0023921048268675;0.0122503750026226
1768416545704880400;1.95488037109375;-0.0134035983871668;-0.0202051681607961;-0.0148038114407565;0.0048444895073771;-0.004740746691823;0.013732424005866
1768416545714882300;1.96488232421875;0.0068932666450738;-0.0085942253440618;-0.0010933664609678;0.003010150976479;-0.0040110750123858;0.0124520938843488
1768416545724884500;1.974884521484375;-0.0106230277579277;-0.0105903675973415;-0.0048857079486362;0.0031294603832066;-0.0032454160973429;0.0146737024188041
1768416545734885400;1.984885498046875;-0.0061714551765471;-0.0083954879015684;-0.0041639604121912;0.0038969286251813;-0.0004074934404343;0.0140837747603654
1768416545744887300;1.99488720703125;-0.0029653526116162;0.0020224457383155;-0.0134758507726248;0.0028780030552297;0.0009701596572995;0.0138728525489568
1768416545754888400;2.004888427734375;-0.0055653059769421;-0.0013309563428163;0.0144328501033596;0.0049166530370712;0.0032500918023288;0.0130480714142322
1768416545764890400;2.014890380859375;0.0043202743519097;-0.0308884747385978;0.0346512887376826;0.0056322440505027;0.0056570568121969;0.0086754271760582
1768416545774892500;2.024892578125;0.0034341391671448;-0.0308306070715188;0.0352147039072588;0.0078833047300577;0.0071133901365101;0.0091983973979949
1768416545784893400;2.0348935546875;0.0237165372826159;-0.0375251362740993;0.0528309606865514;0.0069972705096006;0.0056406618095934;0.0064619993790984
1768416545794895400;2.044895263671875;0.0390945775479078;-0.0249193372011184;0.05160846968689;0.0073563903570175;0.0045818388462066;0.0065262950956821
1768416545804896300;2.054896240234375;0.0141478408832103;-0.0163479082107543;0.0560220209459774;0.0075808949768543;0.0074716350063681;0.0079108728095889
1768416545814898400;2.0648984375;-0.0138723849426954;-0.0109118546366691;0.0114487927912734;0.0048555410467088;0.0081292185932397;0.0080622537061572
1768416545824900400;2.074900390625;-0.0130482090782374;-0.0186480018466711;-0.0082874244172126;0.0036866799928247;0.0075510465539991;0.0064366599544882
1768416545834901500;2.084901611328125;-0.0326150793354958;-0.0115671036750078;-0.0164872253498993;0.0031777736730873;0.0068712844513356;0.0078283883631229
1768416545844903400;2.0949033203125;-0.0232324800927191;0.0106353757828474;-0.002674169379007;0.0026648486964404;0.0051325061358511;0.0093868700787425
1768416545854904300;2.104904296875;-0.0197989985127002;0.0322702844858169;0.0126017622186802;0.0028389333747327;0.0030368566513061;0.0145418364554643
1768416545864906500;2.114906494140625;-0.0350690483588725;0.0458557422459125;0.0315708127132616;0.0040256381034851;0.0001965954434126;0.0177778434008359
1768416545874907400;2.124907470703125;-0.0320253698140382;0.015016951867938;0.0324521438587456;0.0026622251607477;-0.0010686216410249;0.0196914374828338
1768416545884909300;2.134909423828125;-0.0229219528388231;-0.0042851299732923;0.0356240153605118;0.003144257236272;-0.0024699768982827;0.023745035752654
1768416545894911500;2.144911376953125;0.0019173048634082;-0.0015711948394775;0.0500765565450303;0.0035072769969701;-0.0042869863100349;0.02363246306777
1768416545904912400;2.154912353515625;0.0022843115448951;-0.0108335287034511;0.0381761657950468;0.0030156574212014;-0.003757816273719;0.0230646766722202
1768416545914914300;2.164914306640625;-0.0185158998996019;-0.0202530989557504;0.0291759899985976;0.0058072684332728;-0.0026677765417844;0.0242150090634822
1768416545924915500;2.17491552734375;-0.0120271224021911;-0.0293815773069858;0.0394188227999024;0.0060269795358181;-0.005398049019277;0.0206056274473667
1768416545934917400;2.18491748046875;-0.0008469722181558;-0.0174368724912405;0.0148062682593241;0.0056745111942291;-0.0060827210545539;0.017573919147253
1768416545944919300;2.194919189453125;-0.0053740942537784;-0.0131464818209409;-0.002077354263328;0.0062779835425317;-0.0072326734662055;0.0163059886544942
1768416545954920400;2.20492041015625;-0.0063893357109278;-0.0048082770645618;-0.0171010281329974;0.0056139784865081;-0.0076354290358722;0.0189220141619443
1768416545964922400;2.21492236328125;-0.0321422011267393;0.00594926379323;-0.0113522553479298;0.004622483626008;-0.0079422257840633;0.0220988988876342
1768416545974923300;2.22492333984375;-0.0510918162684887;0.0019184008419513;-0.0117023656935431;0.0057890270836651;-0.0094289826229214;0.0243972055613994
1768416545984925400;2.234925537109375;-0.0564442832123488;-0.0049415480554103;0.0042759602861478;0.0045152371749281;-0.0068286722525954;0.0277948658913373
1768416545994927400;2.24492724609375;-0.0383194284569472;0.0046796822488307;0.0116299763107672;0.0062382081523537;-0.0065980274230241;0.0312449559569358
1768416546004928300;2.25492822265625;-0.006435512940213;0.0146130472421646;-0.0031483079630881;0.0024695685133337;-0.0056928191334009;0.032141376286745
1768416546014930400;2.264930419921875;-0.0201647630851715;0.0080927055627107;-0.0044166291321627;0.0053311041556298;-0.0034877872094511;0.0331418439745903
1768416546024931300;2.274931396484375;-0.0311556012421846;-0.0106926589280366;-0.0138439625658094;0.0053111305460333;1.29381660372e-05;0.0321908295154571
1768416546034933500;2.28493359375;-0.0201123022455722;-0.0338449864566326;-0.0168023191810585;0.0086283180862665;0.0049014734104275;0.0276468284428119
1768416546044934400;2.294934326171875;-0.0057831865113228;-0.0288999312698841;-0.008799794386141;0.0090922405943274;0.0048290351405739;0.0255557149648666
1768416546054936300;2.304936279296875;-0.0021147271316498;-0.0369949749201536;-0.006521108864434;0.0120305214077234;0.0071865520440042;0.0228016301989555
1768416546064938500;2.3149384765625;0.0150778152097016;-0.0374760364353656;-0.0033264410089701;0.0121548911556601;0.0047316499985754;0.0189496353268623
1768416546074939400;2.324939453125;0.0067419485408812;-0.0131324532955884;-0.0069886533109471;0.0123880133032798;0.0002170442603528;0.0174689535051584
1768416546084941300;2.33494140625;-0.0154909260552376;-0.0232072725862264;-0.01035418422129;0.0103059532120823;-0.0026383970398455;0.0194607321172952
1768416546094942500;2.3449423828125;-0.0299637611091136;-0.0007797522008419;-0.0090284337765537;0.012253750115633;-0.0010879475157707;0.0265210382640361
1768416546104944400;2.3549443359375;-0.0328689079660922;0.0095721304655075;-0.0158431552927009;0.0141525836661458;-0.0036831977777183;0.0339808203279972
1768416546114946300;2.3649462890625;-0.0422598366457968;0.0210293440252542;-0.0149092902423813;0.0186338312923908;-0.00638038944453;0.045233704149723
1768416546124947500;2.374947509765625;-0.0160900609921663;0.0657546209365129;-0.0127639122441411;0.0190317071974277;-0.0058578774333;0.0522125177085399
1768416546134949400;2.384949462890625;0.0178857853025198;0.108289694327116;-0.0202385041748173;0.0199309326708316;-0.0115527724847197;0.0601433664560318
1768416546144950300;2.3949501953125;-0.009127309307456;0.1616483595490455;-0.0725202791465446;0.0191913731396198;-0.0118744820356369;0.0705834850668907
1768416546154952400;2.404952392578125;-0.0720627811700105;0.2348252394407987;-0.0579192328694276;0.021443473175168;-0.0108454674482345;0.0814930945634841
1768416546164954400;2.414954345703125;-0.0806465581852942;0.2353378651380538;-0.0554284389670006;0.0286433286964893;-0.0184013880789279;0.0942760035395622
1768416546174955300;2.424955322265625;-0.208069334462285;0.2760276029229164;0.0225622161483392;0.0365668684244155;-0.0297982115298509;0.1116655319929122
1768416546184957400;2.43495751953125;-0.1747375582247972;0.2645680512756109;0.1223813845762982;0.0399480164051055;-0.0438794083893299;0.1262455433607101
1768416546194958300;2.444958251953125;-0.1453080135902389;0.1814940467476844;0.3126620739676058;0.0335330069065094;-0.0570677518844604;0.1352284103631973
1768416546204960300;2.454960205078125;-0.2215928329020738;0.0429758028954267;0.4240288376525044;0.0253387298434972;-0.0698591768741607;0.1511000543832779
1768416546214961400;2.46496142578125;-0.2598497905820608;-0.0193044199287891;0.4555116250224411;0.0243029408156871;-0.0800343304872512;0.1647350639104843
1768416546224963300;2.47496337890625;-0.1440986743330955;0.0125315647929906;0.4399857007190585;0.0337417162954807;-0.0922449231147766;0.1616916060447693
1768416546234965500;2.484965576171875;-0.037087329378724;0.0611731383651494;0.4495572466626763;0.0433815717697143;-0.1118818446993827;0.1448511332273483
1768416546244966400;2.49496630859375;-0.0513894109755754;0.0909510215133428;0.4668045879311859;0.0580516010522842;-0.1358662694692611;0.1207074597477912
1768416546254968300;2.50496826171875;-0.0621743878295645;0.0913555106610059;0.4743192013449966;0.0812161117792129;-0.1383887231349945;0.0920726135373115
1768416546264969200;2.51496923828125;-0.1145568649630993;0.0590378799021244;0.4639271327987313;0.1149618253111839;-0.1102524250745773;0.0539246946573257
1768416546274971100;2.52497119140625;-0.2520675392080098;-0.0432072735637426;0.4384413573538884;0.1530016362667083;-0.0671462416648864;-0.0058446270413696
1768416546284973000;2.53497314453125;-0.4774930821407586;-0.1885170772522687;0.387262666519545;0.1870775669813156;-0.0257649775594472;-0.062352642416954
1768416546294974200;2.54497412109375;-0.7601444140523672;-0.3542307865440845;0.4166670767128467;0.2086302191019058;0.0042880326509475;-0.0996351540088653
1768416546304976000;2.554975830078125;-0.90777301607728;-0.4760463173985481;0.5429856546076014;0.2146098166704177;0.0334669575095176;-0.1249069571495056
1768416546314977300;2.564977294921875;-0.8617547767460346;-0.5267974304705858;0.6674531247429549;0.2102391719818115;0.0679637342691421;-0.1396514326333999
1768416546324979000;2.57497900390625;-0.7101075867295265;-0.5338432573288678;0.7118488774389028;0.2064849138259887;0.103434644639492;-0.1590048819780349
1768416546334980000;2.58497998046875;-0.4891641576468944;-0.4960054018437862;0.6403546899370849;0.2009468078613281;0.1431485563516616;-0.1795797049999237
1768416546344982300;2.594982177734375;-0.3336901758838445;-0.4533920025199651;0.5143635173657909;0.1920920610427856;0.1774743050336837;-0.1986985504627227
1768416546354984000;2.60498388671875;-0.3247287977278232;-0.4737421321094036;0.4075760442951694;0.1817725598812103;0.2116180211305618;-0.2069971710443496
1768416546364985000;2.614985107421875;-0.3935715208727866;-0.5236462729632854;0.3718248954236507;0.1703840792179107;0.2494122833013534;-0.2138452231884002
1768416546374987000;2.624987060546875;-0.3974018197506666;-0.5023620773941279;0.4120428509782999;0.1571575254201889;0.2863120138645172;-0.2136882841587066
1768416546384988200;2.63498828125;-0.3606477409143001;-0.4510235198229551;0.4616711340328678;0.1450995355844497;0.3062441647052765;-0.216984212398529
1768416546394990000;2.644989990234375;-0.2642150000542402;-0.3736941964268684;0.4912698977544903;0.1332116425037384;0.3107679486274719;-0.2213703244924545
1768416546404992000;2.654991943359375;-0.2066424434643238;-0.2788987744450569;0.5159155325807631;0.1192465648055076;0.3121112585067749;-0.2257930338382721
1768416546414993200;2.6649931640625;-0.2338496724069118;-0.1691091969490051;0.5202394601944834;0.1021385565400123;0.314992755651474;-0.216028943657875
1768416546424995000;2.6749951171875;-0.2905143934369087;-0.0808773712664842;0.4765213510317728;0.0907157287001609;0.3219308257102966;-0.1922727525234222
1768416546434996200;2.684996337890625;-0.3474947562873363;0.020876783812046;0.4247220075484365;0.0826819464564323;0.3201928436756134;-0.1620089709758758
1768416546444998100;2.694998046875;-0.3696060503304004;0.0704874946773052;0.4176460778128355;0.0824851393699646;0.3182788491249084;-0.1332950443029403
1768416546454999000;2.7049990234375;-0.2673907074809074;0.1126122337013483;0.4538373716672882;0.0825097858905792;0.3082548379898071;-0.1183512285351753
1768416546465001200;2.715001220703125;-0.0793278037369251;0.1747282058745622;0.5038382143612951;0.0808064267039299;0.2930569648742676;-0.1068351864814758
1768416546475003000;2.7250029296875;0.1631266884732991;0.2472539283812045;0.6032129269573837;0.0762583389878273;0.2745985388755798;-0.097706638276577
1768416546485004300;2.73500439453125;0.2404208674907684;0.2573170572340488;0.6485516595918684;0.0764674022793769;0.2468941956758499;-0.0832408815622329
1768416546495006200;2.745006103515625;0.2363894200176;0.2614993113547563;0.6918706499017775;0.0811408758163452;0.2273528128862381;-0.0705902203917503
1768416546505007000;2.755007080078125;0.2603589091479778;0.1862754358053207;0.6379534740142524;0.0892491340637207;0.2094124257564544;-0.0627586618065834
1768416546515009300;2.76500927734375;0.3376747885406017;0.1092243448287248;0.5685877499084919;0.0977756828069686;0.2025406956672668;-0.0628604292869567
1768416546525011000;2.775010986328125;0.3646656713187694;0.0467477226495742;0.4286910573098808;0.100255087018013;0.1882435232400894;-0.0740702077746391
1768416546535012000;2.78501220703125;0.3146235832989216;0.0556605124235153;0.2998005831005051;0.0987742915749549;0.181966945528984;-0.0876581221818924
1768416546545014000;2.795013916015625;0.261470085260272;0.1551256797820329;0.1485575534380972;0.0900298058986663;0.1754398047924041;-0.1053676083683967
1768416546555015200;2.80501513671875;0.1719260079354047;0.2893792519271373;0.0795571555133908;0.0792596489191055;0.1747049391269683;-0.1153113916516304
1768416546565017000;2.81501708984375;0.0919721812546253;0.410590387147665;0.0430115683285519;0.0688160583376884;0.1790099442005157;-0.1193335652351379
1768416546575018200;2.825018310546875;0.0318920988231897;0.4955979900866746;0.0173316585510969;0.0525772981345653;0.1826488524675369;-0.1245677769184112
1768416546585020200;2.835020263671875;-0.0618592939984053;0.543248214533925;-0.0124030430424958;0.0283910036087036;0.1821527034044265;-0.1270301342010498
1768416546595022000;2.84502197265625;-0.1642856492500752;0.5280027146071196;-0.029935119536519;0.0072045703418552;0.1791103929281234;-0.1281819641590118
1768416546605023200;2.855023193359375;-0.2695395560778677;0.478745054963231;-0.0421856754310429;-0.0089573552832007;0.1802403628826141;-0.1262005716562271
1768416546615025200;2.865025146484375;-0.2970727290391922;0.402941918221116;-0.0695252255164086;-0.0153929144144058;0.1845333129167556;-0.118826612830162
1768416546625026000;2.875026123046875;-0.3563369650430977;0.2798456999063491;-0.1250775283250957;-0.01762624271214;0.1817769408226013;-0.0972323715686798
1768416546635028200;2.8850283203125;-0.3393441830575466;0.1679348924726247;-0.137035384883359;-0.0176975522190332;0.1883633434772491;-0.0676426291465759
1768416546645029000;2.895029052734375;-0.2323468666285276;0.0465144984155893;-0.1120073266107588;-0.0192187502980232;0.2020370662212371;-0.0566142201423645
1768416546655031000;2.905031005859375;-0.2381090834170579;-0.0735422060728073;-0.0935569296954199;-0.009914981201291;0.2113668173551559;-0.0559694282710552
1768416546665033200;2.915033203125;-0.2317144139438867;-0.0740565853357315;-0.0964112962132319;-0.0022280337288975;0.2104485630989074;-0.0516969189047813
1768416546675034000;2.9250341796875;-0.4249035746604204;-0.1838075843870639;-0.0133947574935853;0.0096529396250844;0.2062903940677642;-0.0437537766993045
1768416546685036300;2.935036376953125;-0.487083186654374;-0.2101788739621639;0.0073690309306606;0.0241762232035398;0.2121898382902145;-0.031004961580038
1768416546695037200;2.945037109375;-0.4663526063799857;-0.2273854448288679;-0.0017027853298932;0.0423761643469333;0.2073168754577636;-0.0223421193659305
1768416546705039000;2.9550390625;-0.3806571673072874;-0.2535118197321891;-0.0393249887702986;0.0582760348916053;0.199483186006546;-0.0291491597890853
1768416546715041300;2.965041259765625;-0.3963539181329309;-0.237053436884284;-0.1213102116808295;0.0738591998815536;0.1899480521678924;-0.0435196124017238
1768416546725042200;2.975042236328125;-0.3904121069937944;-0.2380377717465162;-0.1153928043305873;0.0885491967201232;0.1855849921703338;-0.0546750612556934
1768416546735044000;2.985044189453125;-0.4655179091215133;-0.1583861428827047;-0.1887444562673568;0.1046721637248992;0.1842189878225326;-0.0583283826708793
1768416546745045200;2.995045166015625;-0.5693441942989826;-0.0474327823042869;-0.2606873739173636;0.1266179382801056;0.1841209828853607;-0.056122750043869
1768416546755047200;3.005047119140625;-0.6200561444044113;0.1092255138725042;-0.328541012959741;0.152649849653244;0.1883085668087005;-0.0436168126761913
1768416546765048000;3.015048095703125;-0.7037060491241515;0.2162462111771106;-0.408640933580324;0.1800567060708999;0.1835479140281677;-0.0146022085100412
1768416546775050200;3.02505029296875;-0.8377385258644818;0.3295873436748981;-0.4420367149647325;0.2009512186050415;0.1740109771490097;0.0197080224752426
1768416546785052200;3.03505224609375;-0.946449660474062;0.3749094174355268;-0.4387397192459553;0.2164263129234314;0.1674545407295227;0.0501721873879432
1768416546795053000;3.045052978515625;-1.0527106254525482;0.3470464279979467;-0.3654369479522109;0.2195408195257187;0.1550235748291015;0.0651262104511261
1768416546805055200;3.05505517578125;-1.1217179645746946;0.2346931374937295;-0.2621361479535699;0.2127958238124847;0.140212669968605;0.0694461241364479
1768416546815056100;3.06505615234375;-1.1876403432935476;0.0951847135603427;-0.1436736538540571;0.2005028277635574;0.1236160695552825;0.0760655626654625
1768416546825058000;3.07505810546875;-1.246990504015237;-0.0290852247089147;-0.0531296057064086;0.178980216383934;0.1049049645662307;0.0777191221714019
1768416546835059200;3.08505908203125;-1.2435096761621534;-0.0205418527692556;0.0026264029808342;0.1645005345344543;0.0969838351011276;0.0743683353066444
1768416546845061000;3.09506103515625;-1.188051846703887;0.065717211535573;0.0643457039866596;0.1503554284572601;0.0858837813138961;0.0757475867867469
1768416546855063000;3.10506298828125;-1.1333020193845034;0.2009177091419696;0.049704234367609;0.1470212489366531;0.0793424993753433;0.09393772482872
1768416546865064200;3.115064208984375;-1.1197113009274005;0.3983826474815606;0.0028550241049379;0.1439892351627349;0.073796734213829;0.1080940291285514
1768416546875066000;3.125066162109375;-1.027604606572911;0.524898318850994;-0.0379147201135754;0.131924033164978;0.0692420452833175;0.1163232401013374
1768416546885067000;3.13506689453125;-0.9676343411915004;0.5792489177197218;-0.1515273630291223;0.1200876086950302;0.0663402676582336;0.1181815937161445
1768416546895069200;3.145069091796875;-0.9505079228889196;0.6362713661462068;-0.191040896641463;0.101266823709011;0.0690598636865615;0.1209962218999862
1768416546905070000;3.155070068359375;-0.9774750594653188;0.6848135709971189;-0.2710302330270409;0.0737782046198844;0.0723334178328514;0.126471146941185
1768416546915072000;3.165072021484375;-1.0036037724561988;0.759191643372178;-0.3288932239308953;0.0505591109395027;0.0746329352259635;0.1287125796079635
1768416546925074200;3.17507421875;-1.044321421161294;0.8729366804957389;-0.2700121420256793;0.0261086262762546;0.0840474739670753;0.1275453120470047
1768416546935075000;3.185074951171875;-1.1325358573175963;0.958124316176772;-0.2372955020118504;0.0004864342627115;0.09598358720541;0.1229811757802963
1768416546945077200;3.1950771484375;-1.2404969042122362;0.983928619518876;-0.2358644462954252;-0.0242005363106727;0.0995823144912719;0.1252382099628448
1768416546955078100;3.205078125;-1.3528114701412617;0.8890694846510887;-0.1892380119379609;-0.0522711873054504;0.1032515838742256;0.1316670477390289
1768416546965080000;3.215080078125;-1.3553724066704511;0.8400608313322067;-0.1583762790758162;-0.0684312507510185;0.1025021746754646;0.1360609978437423
1768416546975082200;3.225082275390625;-1.3679355356454848;0.8419359775543213;-0.1668857487458735;-0.0869099870324134;0.0902419909834861;0.1362936347723007
1768416546985083100;3.235083251953125;-1.3612760777562856;0.7216571547478438;-0.1135906502794474;-0.1116371676325798;0.0749482586979866;0.132771611213684
1768416546995085000;3.2450849609375;-1.326472475400567;0.7465484348982572;-0.0098144147887825;-0.1363581120967865;0.0531413815915584;0.1336462646722793
1768416547005086200;3.255086181640625;-1.293767306628823;0.7224889293968677;0.1183896480590105;-0.1567158550024032;0.0306091774255037;0.1293263435363769
1768416547015088000;3.265088134765625;-1.2871084332615137;0.6592559358924627;0.2364879850212484;-0.1707745492458343;0.0036087499465793;0.1208202466368675
1768416547025089000;3.275089111328125;-1.29962947666049;0.593888852968812;0.3524794858973473;-0.1863955855369568;-0.0213408078998327;0.1053821668028831
1768416547035091200;3.28509130859375;-1.35395669465363;0.5287433038413525;0.3967131798993796;-0.2066256701946258;-0.0384773425757885;0.0824420452117919
1768416547045093000;3.295093017578125;-1.4577011467665433;0.4900210667371749;0.3818895586464554;-0.2336615622043609;-0.0586076416075229;0.0636156275868415
1768416547055094000;3.305093994140625;-1.5598095221102235;0.4247235419183969;0.3595086538817733;-0.2679247260093689;-0.0883057191967964;0.0572416558861732
1768416547065096200;3.31509619140625;-1.625406906658411;0.3393108653098344;0.4132574143998325;-0.3029354214668274;-0.1431095749139785;0.0457160249352455
1768416547075097000;3.32509716796875;-1.7066951968133448;0.2453910571187734;0.5470733623126521;-0.3357380032539367;-0.214650884270668;0.031954176723957
1768416547085099000;3.33509912109375;-1.7485358581990005;0.1205851122766733;0.7820905806615949;-0.3619941174983978;-0.2889142036437988;0.0108459610491991
1768416547095100200;3.34510009765625;-1.8046920451849695;-0.004080547311902;1.0095378386802971;-0.3788082897663116;-0.3596557676792145;-0.0093380501493811
1768416547105102000;3.35510205078125;-1.838645752713084;-0.066714990401268;1.1682402079053222;-0.3857293128967285;-0.4257961809635162;-0.024629920721054
1768416547115104300;3.365104248046875;-1.8899755424559117;-0.0485831213831901;1.1181928591884671;-0.3881312012672424;-0.5018260478973389;-0.029432363808155
1768416547125105200;3.375105224609375;-2.0247931782245634;0.05425298371315;0.9316055809549988;-0.4003700017929077;-0.5774387717247009;-0.0336795710027217
1768416547135107000;3.385107177734375;-2.2145153934828934;0.2476917352765798;0.7661329869426786;-0.4089612066745758;-0.6574801802635193;-0.0262775123119354
1768416547145108000;3.39510791015625;-2.3491385295927523;0.4390659555256366;0.6284429375428706;-0.4156793057918548;-0.7322624921798706;0.0004102918319404
1768416547155110100;3.405110107421875;-2.3528286162823435;0.6084329266279935;0.5750010510168969;-0.4176783561706543;-0.7842714786529541;0.0404841303825378
1768416547165111000;3.415111083984375;-2.361080896320939;0.6102233171761036;0.540604202831164;-0.4172330796718597;-0.818515419960022;0.0741962864995002
1768416547175113000;3.425113037109375;-2.366874092769623;0.6382569870054722;0.4480447232078761;-0.4098513424396515;-0.8459256291389465;0.0984928831458091
1768416547185115100;3.435115234375;-2.5968103911250826;0.4974684601336717;0.3707488636899739;-0.3952763974666595;-0.8742268085479736;0.1104502081871032
1768416547195116000;3.445115966796875;-2.610025262007117;0.4992056591898202;0.3389781262241303;-0.3955919742584228;-0.9156693816184998;0.1214194223284721
1768416547205118200;3.4551181640625;-2.661380186191201;0.3462415413558483;0.2605087659474462;-0.3569383025169372;-0.8870419859886169;0.1633785963058471
1768416547215119000;3.465119140625;-1.518547537395358;0.1471808582574129;0.1542459743380546;-0.2452741414308548;-0.8464237451553345;0.2888081669807434
1768416547225121000;3.47512109375;-0.3818617938566953;-0.7191939795047044;0.1546658802505582;-0.1144138574600219;-0.8287185430526733;0.4988463521003723
1768416547235122000;3.485121826171875;0.4769932428598403;-2.7700807994067667;-0.3496690681191161;0.0195461846888065;-0.6599879264831543;0.5337581038475037
1768416547245124000;3.4951240234375;2.2708552664726973;-5.381545738828182;-1.0808207945842294;0.3195331692695617;-0.3964625298976898;0.4962226450443268
1768416547255126000;3.5051259765625;3.547301435944438;-7.739141715642809;-1.1463544662464409;0.5849716067314148;-0.2198928296566009;0.3016961812973022
1768416547265127200;3.515127197265625;2.306234038367867;-10.308245769196748;-2.03023770736605;0.5089367628097534;-0.0050404490903019;-0.015102544799447
1768416547275129300;3.52512939453125;-1.0007038132309911;-9.029522302442787;-3.4131323272123932;0.3572165369987488;0.2115996181964874;-0.1667262613773346
1768416547285130200;3.535130126953125;-3.106867114675045;-3.202366301012039;-3.373210358929634;0.2776857614517212;0.3655455112457275;-0.2485138028860092
1768416547295132400;3.54513232421875;-3.999837113896012;1.0855892510950564;-2.733183147381246;0.1952649354934692;0.3649943172931671;-0.270178735256195
1768416547305133300;3.55513330078125;-3.7003240059673783;3.192365716001391;-2.477192078053951;0.0903270617127418;0.1769639700651168;-0.1961194276809692
1768416547315135200;3.56513525390625;-2.915245057144761;4.361098529729247;-1.84788529022336;-0.0484267249703407;-0.0646045506000518;-0.0405669696629047
1768416547325137400;3.575137451171875;-2.507664957728982;4.669069669401646;-0.5859227694604545;-0.1515283286571502;-0.2910321056842804;0.2358241379261016
1768416547335138300;3.58513818359375;-2.3157623296916485;3.873578047636151;0.649049526111409;-0.2437973320484161;-0.4168120622634887;0.5449795722961426
1768416547345140200;3.59514013671875;-1.3413678467154502;2.5061574757754803;1.1378683774519711;-0.2868151068687439;-0.5267143249511719;0.7903017401695251
1768416547355141400;3.605141357421875;0.046048597936891;0.9134662592828272;1.4412249360010028;-0.3060526549816131;-0.5919411182403564;0.8525140881538391
1768416547365143300;3.615143310546875;1.4682552740067245;-0.6719926678687334;1.4057774827837943;-0.2774630784988403;-0.5600593686103821;0.7622462511062622
1768416547375144200;3.625144287109375;2.370432077512145;-2.106128814652562;1.1638694454751908;-0.1670105755329132;-0.4729204773902893;0.6834126114845276
1768416547385146400;3.635146484375;1.8795470874220133;-3.415191890090704;1.0152335661038756;-0.0842083692550659;-0.3873051702976227;0.6037185788154602
1768416547395148300;3.645148193359375;0.9569190320402384;-3.843141408318281;0.686360362047702;-0.0395934954285621;-0.3558063507080078;0.4948141872882843
1768416547405149200;3.655149169921875;0.6144084939062595;-2.230482339552045;0.3645079965390265;-0.0614085122942924;-0.4008747637271881;0.3548312485218048
1768416547415151400;3.6651513671875;0.6722603788942099;-0.484974304741621;0.1053648381226696;-0.1227744072675705;-0.5324455499649048;0.2094805389642715
1768416547425152300;3.67515234375;0.9112953449845314;1.621906205061078;-0.0185524507840164;-0.198944553732872;-0.6398612260818481;0.142326533794403
1768416547435154400;3.685154541015625;1.0657757126003504;1.749285799783468;0.1224421931191347;-0.251140832901001;-0.7054951786994934;0.1557922214269638
1768416547445155300;3.6951552734375;1.0128133532196282;1.167080954867601;0.3856614784006029;-0.2864026725292206;-0.7190107107162476;0.1905571222305297
1768416547455157200;3.7051572265625;0.8237000636398791;0.2367360414981842;0.5295029631022363;-0.2782678306102752;-0.6587066650390625;0.1945121884346008
1768416547465159400;3.715159423828125;0.5545324096143245;-0.7488193024396896;0.3440784450378268;-0.2344830781221389;-0.526340663433075;0.1731909215450287
1768416547475160300;3.725160400390625;0.1622118386507034;-1.48340725043118;0.0207557649479946;-0.1807030737400055;-0.3557706773281097;0.1284183263778686
1768416547485162200;3.735162353515625;-0.2002420018374919;-1.7435574852645397;-0.3587588584277779;-0.1631240844726562;-0.2021113783121109;0.0789911225438118
1768416547495163400;3.745163330078125;-0.2444330257415771;-1.3581845414817333;-0.5342271786125377;-0.17686827480793;-0.0750695019960403;0.0393521338701248
1768416547505165300;3.755165283203125;-0.0827449187040328;-0.6153367146670818;-0.5752685428466647;-0.2022886723279953;0.0237739905714988;0.0209417026489973
1768416547515166200;3.765166259765625;0.1461480080783367;0.1746136395841837;-0.6647815674461424;-0.2428971230983734;0.079566903412342;0.0321709252893924
1768416547525168400;3.77516845703125;0.4913818336963653;0.8627379425644874;-0.5021307528562844;-0.2941994667053222;0.0518961250782012;0.0597074776887893
1768416547535170300;3.78517041015625;0.7032920614957809;1.43777011937201;-0.024808278042078;-0.3367603123188019;-0.0181699860841035;0.0853803157806396
1768416547545171200;3.795171142578125;0.9006593846797942;1.8550778320759531;0.4282375413887202;-0.3542612493038177;-0.0847913548350334;0.1271360218524933
1768416547555173400;3.80517333984375;1.0066811340749262;1.957674283197522;0.8756145214028656;-0.3217537403106689;-0.0957173109054565;0.192501500248909
1768416547565174300;3.81517431640625;0.9694751467525958;2.001362033754587;1.2158065534614029;-0.2263492196798324;-0.0801029279828071;0.2383528798818588
1768416547575176200;3.82517626953125;0.7028209368526935;2.077090936216712;1.2708584324672818;-0.1146844327449798;-0.0141773801296949;0.2562794983386993
1768416547585177300;3.83517724609375;0.4066717523992061;2.1578449733644725;0.9176660490602254;-0.019801065325737;0.0923365503549575;0.2562353014945984
1768416547595179300;3.84517919921875;0.1192272496606223;2.042769564419985;0.2356068913377821;0.0261803958564996;0.2487055212259292;0.2697625458240509
1768416547605181200;3.85518115234375;-0.128743302557338;1.7868220419734715;-0.5049999150844291;0.0463059023022651;0.4186809659004211;0.2996131181716919
1768416547615182300;3.865182373046875;-0.1665139380251057;1.3480325653016567;-0.8524144092097878;0.057559709995985;0.5475478768348694;0.3280467391014099
1768416547625184300;3.875184326171875;-0.0829857417225837;0.9279641557127236;-0.8604229436203837;0.0751725286245346;0.6743271350860596;0.3360564708709717
1768416547635185200;3.88518505859375;0.2451590019285678;0.734627695479989;-1.2743629334568976;0.0150033449754118;0.7788428068161011;0.3103833794593811
1768416547645187300;3.895187255859375;0.0841080602834001;0.4081581915646791;-0.9559135813247412;-0.0386486984789371;0.8801867365837097;0.2826676070690155
1768416547655188200;3.905188232421875;-0.4820294469287619;0.2613970200240612;-0.2713199001559987;-0.0389646403491497;1.027597188949585;0.2470641732215881
1768416547665190100;3.915190185546875;-0.5055670109152793;0.2604991944015026;-0.2692685753830708;0.0008035463979467;1.1786186695098877;0.2030080258846283
1768416547675192300;3.9251923828125;-1.258371583598852;0.1531593481451273;0.4491467661656439;0.0291331876069307;1.2886372804641724;0.1204178109765052
1768416547685193200;3.935193115234375;-1.6358464676082134;0.0653629912704229;0.8377862374637275;0.0373517014086246;1.3557488918304443;0.0258324462920427
1768416547695195400;3.9451953125;-1.7871745086729525;-0.0280716637521982;1.1628129952248183;0.0168120730668306;1.341645121574402;-0.0393564105033874
1768416547705196300;3.9551962890625;-1.900392891573906;-0.1331944184809923;1.5586391631565988;-0.0151144340634346;1.2716050148010254;-0.0600222721695899
1768416547715198200;3.9651982421875;-2.405896774125099;-0.1541097807377576;2.2438003785476086;0.0179204661399126;1.1578702926635742;-0.0269615650177001
1768416547725199000;3.97519921875;-3.2928549657106396;-0.0232236391991376;3.510755666096508;0.0797329619526863;0.9612787365913392;0.0021097678691148
1768416547735201300;3.985201171875;-3.960224649953842;0.3252063521116972;4.631646239936352;0.1274150609970092;0.8113216161727905;0.0096038552001118
1768416547745203200;3.995203125;-4.7211809649109835;0.4953752872467041;5.449802697974443;0.1818921566009521;0.7518412470817566;-0.0570342913269996
1768416547755204400;4.005204345703125;-4.118452387404441;0.2455991469115018;5.710359175521135;0.219286248087883;0.7164296507835388;-0.3453229963779449
1768416547765206300;4.015206298828125;-2.1184967133164405;-0.65178223901093;4.842585284616053;0.1755984276533126;0.6728715300559998;-0.8164950609207153
1768416547775207200;4.025207275390625;-0.2825345188652165;-1.5731354521512984;2.7542063539266586;0.0088473521173;0.7010295391082764;-1.1325221061706543
1768416547785209300;4.035209228515625;0.2738695481061935;-2.15363466219306;0.6196204564008861;-0.252225786447525;0.7448707818984985;-1.1269116401672363
1768416547795210200;4.045210205078125;-0.8801309759140015;-1.3776719167619942;-1.225181334723905;-0.562391996383667;0.8036789298057556;-0.8283159136772156
1768416547805212200;4.055212158203125;-3.117139502364397;0.9930255336880685;-3.1747663464248177;-0.8065383434295654;0.9130565524101256;-0.4651816189289093
1768416547815213600;4.065213623046875;-3.951998673400283;3.970851257908344;-4.864620298552513;-0.9043543338775636;1.132806420326233;-0.2101295292377472
1768416547825215200;4.07521533203125;-3.2521839326262474;6.048239131245016;-5.936722291564941;-0.8941088914871216;1.357317566871643;-0.1230742484331131
1768416547835217200;4.085217041015625;-1.3292226508915423;6.981710652202367;-6.224025906261802;-0.8284735679626465;1.457242131233215;-0.2155187278985977
1768416547845218300;4.09521826171875;1.3370312788158654;6.994308852490782;-5.144847106730937;-0.7082613706588745;1.4125587940216064;-0.3880518972873688
1768416547855220200;4.10522021484375;3.0017221481144425;6.384116514974832;-2.4490467645436524;-0.5616351962089539;1.3632701635360718;-0.5161481499671936
1768416547865221400;4.115221435546875;2.575006555595994;5.667183466139435;0.6105564215879887;-0.417172759771347;1.251329779624939;-0.5991793870925903
1768416547875223300;4.125223388671875;2.318237779894471;5.410684739550947;3.195997350502014;-0.312700480222702;1.0244228839874268;-0.6029530167579651
1768416547885224400;4.135224365234375;2.102467369535565;5.3607408512085675;4.514541078729927;-0.2753429710865021;0.6580392718315125;-0.4607213139533996
1768416547895226400;4.145226318359375;-0.0878956890633329;5.275507622820139;4.912460492613912;-0.296674907207489;0.2290250360965728;-0.1210573241114616
1768416547905228300;4.155228271484375;0.3755290106385946;5.374213496243954;4.68674035064876;-0.31803959608078;-0.1523723900318145;0.3095872700214386
1768416547915229400;4.1652294921875;0.3321563173800707;5.373300473052263;4.657354389427602;-0.2906459271907806;-0.3055705726146698;0.5899417996406555
1768416547925231000;4.175231201171875;-0.1586345829521305;3.857966052484512;2.434752281731367;-0.2149271965026855;-0.3127382099628448;0.7051029801368713
1768416547935232500;4.185232421875;0.3541390166074037;2.5697534573733805;0.9068312051825224;-0.1287901401519775;-0.3934958279132843;0.6876129508018494
1768416547945234200;4.195234130859375;-0.052448555506533;1.3963210876524448;0.1267231035750359;-0.0295924488455057;-0.31752410531044;0.599407434463501
1768416547955235300;4.2052353515625;-0.7517471725851297;0.5113596228420734;-0.4471534734565764;0.1231136471033096;-0.0551287122070789;0.4766729772090912
1768416547965237500;4.215237548828125;-0.4390086723804474;0.1591156262010336;-1.3219669806748628;0.2560005784034729;0.1429580003023147;0.3648585677146911
1768416547975239200;4.2252392578125;-0.4728150803923606;0.1611526849865913;-1.293644557031989;0.3060959875583648;0.3466553688049316;0.2927747070789337
1768416547985240300;4.235240234375;1.3225462418675422;1.922829179787636;-2.069293414208293;0.2325541526079177;0.468459814786911;0.2948442697525024
1768416547995242200;4.2452421875;0.7310451608180999;3.462113215741515;-1.5759624922707676;0.1213931590318679;0.4902874827384949;0.3954118192195892
1768416548005243400;4.255243408203125;-0.5599263776123523;4.329727824431657;-0.6484301521040499;0.0787514224648475;0.3893869519233703;0.5086200833320618
1768416548015245300;4.265245361328125;-2.0273627364516256;4.09281291923523;0.5965476969145238;0.0687772035598754;0.3349006175994873;0.454960286617279
1768416548025246500;4.27524658203125;-3.0581203271627424;3.44129020794332;2.506398298794031;0.1422309130430221;0.4131655991077423;0.3501912653446197
1768416548035248400;4.285248291015625;-2.464948682552576;2.5788632310241457;3.4769366908639667;0.2874631583690643;0.5960378646850586;0.2554164826869964
1768416548045249300;4.295249267578125;-1.0242097765028475;2.2445371683895585;2.42059048538804;0.4043120145797729;0.6585739850997925;0.2207804769277572
1768416548055251500;4.30525146484375;0.2583563371539116;2.8192297379791733;0.0675209730219096;0.3863210380077362;0.6122715473175049;0.2432909905910492
1768416548065253400;4.31525341796875;0.6927776817440986;3.991705829888582;-1.965353585653752;0.2570346891880035;0.4954295754432678;0.3861629366874695
1768416548075254500;4.325254638671875;1.9080442831099031;5.291814029976726;-2.896386335156858;0.1527855992317199;0.3830522000789642;0.6118286848068237
1768416548085256400;4.33525634765625;4.093853368198872;6.37233430724442;-2.8353599117860195;0.1121340468525886;0.3344303071498871;0.7403455972671509
1768416548095257300;4.34525732421875;4.336601801854372;7.0122636113762855;-2.3015501183353364;0.1204568147659301;0.3435751497745514;0.7009149789810181
1768416548105259500;4.355259521484375;0.7624035911560059;7.160928570711612;-1.3763795388638973;0.1691702902317047;0.3876922726631164;0.6448003053665161
1768416548115260400;4.365260498046875;-1.6948995450794695;6.5729919041454785;0.1445301976181566;0.3369284570217132;0.5305014848709106;0.708199679851532
1768416548125262300;4.375262451171875;-1.3373112648010252;5.597470462965965;0.8150521353472023;0.5960699915885925;0.5544531345367432;0.7757973670959473
1768416548135264500;4.385264404296875;-0.7059937216699123;4.691577269285917;0.8963268353682011;0.8222200870513916;0.4547039568424225;0.8802111148834229
1768416548145265400;4.395265380859375;-0.8004536280870437;4.6852129949510095;0.986894556652382;0.9556341171264648;0.2000498324632644;1.0522427558898926
1768416548155267300;4.405267333984375;-0.3187652131482958;4.43436951764524;1.2232467864647507;0.9784128069877625;-0.0571060106158256;1.2844932079315186
1768416548165268500;4.4152685546875;0.6077016897439956;4.435530378118157;1.4138929847002029;0.990567982196808;-0.2531631290912628;1.4815253019332886
1768416548175270400;4.4252705078125;1.5275803002871573;4.7091228628486395;2.579464996309578;1.0771020650863647;-0.3215162456035614;1.7194656133651731
1768416548185271300;4.435271240234375;1.3458546367406845;4.901743868288397;3.780073542247712;1.1937648057937622;-0.2973091900348663;1.9317986965179443
1768416548195273500;4.4452734375;1.6081122191168369;4.3872927091717715;3.1640438768804073;1.2981644868850708;-0.1915401965379715;2.038628101348877
1768416548205274400;4.4552744140625;2.1991233246922492;3.3413755432516337;1.5480536178648472;1.384602665901184;-0.0063501093536615;2.171894073486328
1768416548215276300;4.4652763671875;1.9965657393887637;2.1678823832541703;-0.4714011584738269;1.4622374773025513;0.7172592282295227;2.4416720867156982
1768416548225278500;4.475278564453125;4.4528269653558725;0.527930818414688;-4.070069464768469;1.4627389907836914;2.7568864822387695;2.491363763809204
1768416548235279400;4.485279296875;19.479523982238767;-3.5448476130515334;-9.291189956101777;1.502054214477539;2.023568868637085;3.1499223709106445
1768416548245281300;4.49528125;29.469840112328527;-9.176449478200077;-5.5581496754467485;1.7259371280670166;-1.8309907913208008;5.816205978393555
1768416548255282400;4.505282470703125;14.372066402703522;-30.54208005250692;-2.8529338546603915;1.404780030250549;-4.419617176055908;7.632610321044922
1768416548265284400;4.515284423828125;15.008816492277385;-56.27780962460041;-8.839694142591952;1.0606580972671509;-3.806274890899658;6.735859394073486
1768416548275285200;4.52528515625;7.123005375030637;-66.14563802366256;-10.284067605751751;1.0944474935531616;-1.4414145946502686;3.482484817504883
1768416548285287200;4.535287109375;-4.990391289034486;-49.16012398328781;-6.876311418619752;0.8420273065567017;1.3941196203231812;0.4243638813495636
1768416548295288300;4.545288330078125;-11.431098290759325;-18.29229689592123;-5.481137747436762;0.3524948954582214;3.128948450088501;0.3356799781322479
1768416548305290200;4.555290283203125;-18.95596304947138;1.0033739092230796;-5.01158897536397;0.3561367690563202;4.187098026275635;1.5986579656600952
1768416548315292200;4.565292236328125;-19.978729056906698;12.697585376274583;-0.6883340002082288;0.636881947517395;4.401650428771973;3.246063470840454
1768416548325293300;4.575293212890625;-22.270868518948554;20.43694745666981;3.2153064466059207;0.80119788646698;3.7003297805786137;4.90473747253418
1768416548335295200;4.585295166015625;-22.536550084424015;23.969823476898668;5.486714670786261;0.6839512586593628;2.6247870922088623;5.898306369781494
1768416548345296100;4.595296142578125;-15.180885708075762;22.866982646751403;6.454178477716446;0.5939513444900513;1.9363996982574463;5.791739463806152
1768416548355298300;4.60529833984375;-5.319130491447448;18.21790128788948;4.766480242317915;0.5055313110351562;1.6874881982803345;5.124081611633301
1768416548365299200;4.61529931640625;0.013413023802638;11.348471445477008;1.6723495673581956;0.594314455986023;2.0683069229125977;4.551098346710205
1768416548375301000;4.625301025390625;-0.9232868115514516;7.944654351359605;1.1713660848408938;0.8899418115615845;2.3534398078918457;4.194737911224365
1768416548385303300;4.63530322265625;-5.448255468532443;5.116888255703449;1.8865192645221944;1.4700202941894531;2.128842830657959;4.321653842926025
1768416548395304200;4.64530419921875;-8.844729798671603;2.540496383228898;2.5732605887115;2.1358978748321533;1.8004096746444702;4.786594390869141
1768416548405306000;4.65530615234375;-8.040555104234814;-1.161162086212635;2.913804795208573;2.6584649085998535;1.6622004508972168;4.964818954467773
1768416548415307300;4.665307373046875;-8.202270099279284;-1.6309709705263375;3.1811680301606655;2.7687880992889404;1.9386017322540283;4.500012397766113
1768416548425309200;4.67530908203125;-4.278974957793951;-4.988582193785906;3.73735025280863;2.431821584701538;2.3996918201446533;3.5024986267089844
1768416548435310000;4.68531005859375;-5.427235476857423;-2.840474478320777;3.6339945077523583;1.9409595727920532;2.6345109939575195;2.813191175460815
1768416548445312300;4.695312255859375;-4.275818539589643;1.0216790889814495;2.096231397755444;1.7949975728988647;2.870811700820923;2.4972503185272217
1768416548455313200;4.705313232421875;-2.5272429339021443;2.8273315036311746;-0.6125567285597324;1.7993260622024536;3.2930703163146973;2.1418137550354004
1768416548465315000;4.715315185546875;-1.384373460227251;3.322963395987451;-3.8441526311874386;1.8330339193344116;4.242682933807373;1.83769953250885
1768416548475317200;4.725317138671875;-0.4412888922721147;2.697672565799951;-7.404864168325066;1.8286614418029783;5.60036039352417;1.5867968797683716
1768416548485318100;4.735318115234375;-1.4641653743445873;1.588662399367988;-11.214307305181023;1.776549220085144;7.094127655029297;1.5694669485092163
1768416548495320300;4.7453203125;-1.405903154990077;1.0145192803546783;-13.379116856861112;1.7499741315841677;8.103495597839355;1.927193284034729
1768416548505321200;4.7553212890625;1.12403910099864;0.8590145381271839;-13.39956577064991;1.911786198616028;7.887720108032227;2.31874680519104
1768416548515323100;4.7653232421875;3.8179251339972016;0.5161263988524675;-11.372518676018714;2.2423202991485596;7.017055034637451;2.220759630203247
1768416548525324000;4.775323974609375;7.00179131720066;-0.2229116604156792;-6.963968074762821;2.163029432296753;7.115905284881592;1.7916994094848633
1768416548535326200;4.785326171875;12.955583986032009;-0.5951404604651034;-1.1715496247142552;1.9034388065338137;7.4668049812316895;1.0750385522842407
1768416548545327000;4.7953271484375;17.247600796228646;-1.0757483866907656;3.194000039204955;1.735874056816101;6.908960819244385;0.1215156614780426
1768416548555329300;4.805329345703125;20.46270616730451;-1.423881587012112;5.51213786585629;1.5917679071426392;5.337583065032959;-0.7873924374580383
1768416548565331200;4.815331298828125;18.833709127199647;-1.4921743481241163;5.361335309970379;1.3911809921264648;3.9074904918670654;-1.4421697854995728
1768416548575332000;4.82533203125;12.07016659414768;-0.3830212660901248;7.334075644874573;0.8394927978515625;2.6421027183532715;-1.6179759502410889
1768416548585334300;4.835334228515625;-6.411500196462869;4.134371548809111;9.816986685097216;0.5021610856056213;1.2389129400253296;-0.5442085266113281
1768416548595335200;4.845335205078125;-10.8696287753582;5.6709816893786185;-2.420287703049183;-0.4697681367397308;0.1110089421272277;2.2663164138793945
1768416548605337000;4.855337158203125;-2.9112191626295445;6.8896011083036655;-8.296939264532924;-2.299445867538452;0.3529198467731476;3.7597522735595703
1768416548615338000;4.865337890625;-2.9175787607893344;7.054070370492338;-8.312377072161436;-2.4133458137512207;0.0973268523812294;2.9426236152648926
1768416548625340200;4.875340087890625;-2.6591595875322818;6.487260078585147;-6.931422480466962;-0.8992987871170044;1.2129998207092283;1.015156865119934
1768416548635341000;4.885341064453125;-8.854835597622394;3.1928613905638454;-10.72117541294694;0.4376759529113769;3.933267116546631;0.0423337146639823
1768416548645343200;4.89534326171875;-6.865289089345931;1.795972147634625;-14.634242005884646;1.302304744720459;5.1133904457092285;0.1504021286964416
1768416548655345200;4.90534521484375;-1.7392377223692834;3.678355335265398;-15.4714947940588;1.860535144805908;4.91831111907959;0.8922857642173767
1768416548665346000;4.915345947265625;7.511200975018739;3.4272309951916333;-19.395913971138;1.8986366987228391;2.982389211654663;1.7279391288757324
1768416548675348200;4.92534814453125;7.680367455112933;3.2567633693709968;-19.379512286913393;1.4068655967712402;0.826839029788971;2.0551974773406982
1768416548685349000;4.93534912109375;8.357310438865422;1.1405245179839432;-17.082040816193818;1.053581953048706;0.6031984686851501;1.3938429355621338
1768416548695351000;4.94535107421875;5.672592047184706;-2.0369953649327157;-12.613937955772876;0.8805012702941895;1.3252002000808716;-0.1939340531826019
1768416548705352200;4.955352294921875;4.834368952673674;-4.162139261178672;-9.11258753914237;0.6033639311790466;1.3547914028167725;-0.9549693465232848
1768416548715354000;4.96535400390625;0.6172282275021076;-2.335314733032137;-8.019323515635728;-0.052326388657093;0.7470487356185913;-0.7885809540748596
1768416548725355300;4.975355224609375;-3.06099675938189;1.8500323852546512;-4.95988976778686;-0.6312938928604126;0.4251319169998169;-0.4305152297019958
1768416548735357200;4.985357177734375;-3.7237744396597146;4.541757294696569;-0.4427987123131752;-0.7452823519706726;0.1453860402107238;-0.408501923084259
1768416548745359000;4.995359130859375;-3.714174836665391;5.200508788198232;1.6325836664199829;-0.6688706278800964;0.1902374029159546;-0.2672228217124939
1768416548755360000;5.005360107421875;-5.474354370906949;5.780043537122011;0.0773497816622257;-0.6251966953277588;0.4001341164112091;0.1389818638563156
1768416548765362200;5.015362060546875;-4.973604404884576;5.724567149093747;-0.9208721516251565;-0.604860246181488;0.4158387780189514;0.4921450018882751
1768416548775363300;5.02536328125;-2.2017092495322226;4.33584981444329;-0.5605097304582596;-0.670703649520874;0.3076344430446625;0.5533505082130432
1768416548785365000;5.035364990234375;-0.0198404082353226;2.257195136041194;1.582537486746907;-0.6628265380859375;0.196786493062973;0.4090287685394287
1768416548795366400;5.045366455078125;0.3785942799607291;0.4410620977789163;3.788670397940278;-0.623386561870575;0.2009033262729644;0.1840933412313461
1768416548805368000;5.0553681640625;0.9801075999259948;-0.5195509664736688;5.014653039109707;-0.5454664826393127;0.2653233408927917;-0.1244186908006668
1768416548815369200;5.065369140625;1.785222790083289;-0.6973574838150293;5.823057333940267;-0.4508410692214966;0.2779366970062256;-0.3831620514392853
1768416548825371400;5.075371337890625;0.9378151031196116;-0.3650256637375801;5.718188261711597;-0.3240290582180023;0.2441776543855667;-0.4695387482643127
1768416548835373000;5.085373046875;-1.4275076685547827;0.521824902755022;5.2309635476946825;-0.2350313663482666;0.2125385999679565;-0.3111471831798553
1768416548845374200;5.095374267578125;-2.694251359179616;2.807304030124843;5.085917363378405;-0.1935805976390838;0.1545823514461517;-0.0476268790662288
1768416548855376100;5.105376220703125;-1.3740502191334962;2.8350390092685815;4.955979316344857;-0.1617788076400756;0.1637291461229324;0.0934988260269165
1768416548865377300;5.115377197265625;-0.2008025217970833;1.989840961178392;5.077548763483763;-0.0936114788055419;0.0537669658660888;0.0975265949964523
1768416548875379200;5.125379150390625;0.0280967981934547;1.152404267804697;5.2061266280800105;-0.0492381677031517;-0.1660609096288681;0.0341499745845794
1768416548885380400;5.13538037109375;-0.1922229095002636;0.7332720430873334;5.244904394763708;-0.0419208668172359;-0.1587372124195099;-0.0528805293142795
1768416548895382300;5.14538232421875;-1.0822457858860492;0.5641161574523895;4.569037515810132;0.013361376710236;0.0008493571076542;-0.1840846240520477
1768416548905383200;5.155383056640625;-2.296782903933525;1.203461085825041;2.9674101286679506;0.1421292126178741;0.2530011534690857;-0.1782600283622741
1768416548915385300;5.16538525390625;-1.9680232432544231;1.912099403719604;0.2933937482655048;0.4029839634895324;0.6004476547241211;-0.0452047288417816
1768416548925387300;5.17538720703125;-0.4939619133174419;2.0618898599535225;-3.2249300149977205;0.6346797347068787;0.8677811026573181;-0.0740675404667854
1768416548935388200;5.18538818359375;0.0619411270629614;2.4674951521649957;-6.260647956216335;0.6934295892715454;0.827885627746582;-0.2628366351127624
1768416548945390300;5.195390380859375;0.0556711068827658;3.3334786525219675;-7.921807144257426;0.600585401058197;0.5450155735015869;-0.3381196856498718
1768416548955391200;5.20539111328125;0.5037708482135087;3.857937995433807;-7.937731274098158;0.4776555299758911;0.2847979962825775;-0.3241656422615051
1768416548965393400;5.215393310546875;0.5942051523763686;3.310378347441554;-6.90259327634573;0.3345535099506378;0.1149040535092353;-0.3605037033557892
1768416548975394300;5.225394287109375;-0.2938999442219734;2.6891958293557163;-5.6238966975986955;0.1588519513607025;0.0005055067595094;-0.4206835031509399
1768416548985396200;5.235396240234375;-0.2941846063822507;2.680369256560504;-5.62345889070332;-0.0365255400538444;-0.0483629666268825;-0.3732890784740448
1768416548995397000;5.245397216796875;-0.8088233970254659;2.1628443890869615;-3.064775108876824;-0.2050850987434387;-0.060045089572668;-0.2774609923362732
1768416549005399300;5.2553994140625;-0.5545809249311685;2.2624600708320735;-1.5044786800324916;-0.327826976776123;-0.0610339194536209;-0.2439086139202118
1768416549015400200;5.265400146484375;-0.3777823425233363;2.2157314912743864;-0.3232084562927484;-0.3490049540996551;-0.0581515207886695;-0.2742637991905212
1768416549025402400;5.27540234375;-0.2299023230206221;2.0464435767576097;0.546582911914587;-0.3271361589431762;-0.0231016594916582;-0.3217929601669311
1768416549035404300;5.285404296875;-0.4852952072590589;1.894035777632147;1.2284282807558775;-0.2786107361316681;-0.0105375172570347;-0.3705425560474396
1768416549045405200;5.2954052734375;-1.0941647717386485;1.7825781207934022;1.9405507144391536;-0.2531322836875915;0.0767353326082229;-0.4096350967884063
1768416549055407400;5.305407470703125;-1.20021275155358;1.9276206518478691;2.8543443059802054;-0.2198097556829452;0.1977827697992324;-0.3950124979019165
1768416549065408300;5.315408203125;-0.757723908907175;1.9072271215081211;3.4425364086121317;-0.1993675976991653;0.2830478549003601;-0.3931815922260284
1768416549075410200;5.32541015625;-0.6195043557405472;1.6506329717211423;3.7229385733574625;-0.1558620631694793;0.321652203798294;-0.4406192600727081
1768416549085411300;5.335411376953125;-1.1321106907080858;1.0837879007615148;3.5067075597494837;-0.121001549065113;0.2513178288936615;-0.4622862040996551
1768416549095413200;5.345413330078125;-1.1094927623171358;1.0902450410116464;3.504304590260982;-0.0895988643169403;0.1584027111530304;-0.4015522599220276
1768416549105414100;5.3554140625;-1.6862907066881656;0.7393417183898389;3.202554517060518;-0.0909341722726821;0.1087773740291595;-0.3011382818222046
1768416549115416300;5.365416259765625;-1.6335621560633182;0.64725950088948;2.6280910800516604;-0.1289930343627929;0.1033521369099617;-0.2262839376926422
1768416549125418200;5.375418212890625;-1.1321493422180413;0.6809766231827438;1.8826655117034912;-0.1823111176490783;0.1124260649085044;-0.1756625771522522
1768416549135419100;5.385419189453125;-0.698560356798768;0.7069671698119491;1.2089555185228589;-0.2260512411594391;0.141397625207901;-0.1376980543136596
1768416549145421300;5.39542138671875;-0.3279886763066053;0.6679055446855724;0.5943453645646571;-0.2577740252017975;0.1669114977121353;-0.1211579516530036
1768416549155422200;5.405422119140625;0.0084440032184124;0.5214909215603023;0.0972539210498333;-0.2688243091106415;0.1765991598367691;-0.1225375086069107
1768416549165424000;5.415424072265625;-0.0888176627464592;0.4112928363285958;-0.231508662238717;-0.2554877400398254;0.1794215738773346;-0.096846267580986
1768416549175425300;5.42542529296875;-0.5772264719814062;0.4469127235032618;-0.565305732563138;-0.2181735783815384;0.1958042085170745;-0.0252102967351675
1768416549185427200;5.43542724609375;-0.9787678757548331;0.4365435243759304;-1.0270376934051513;-0.17355976998806;0.2272771745920181;0.0449003465473651
1768416549195428000;5.445427978515625;-0.8634679373394697;0.3906748495832085;-1.329467565563321;-0.1266507059335708;0.2325993478298187;0.0781101584434509
1768416549205430300;5.45543017578125;-0.4663122743695974;0.2771449165150523;-1.4942255815654992;-0.0905693992972374;0.1954245418310165;0.0710298791527748
1768416549215432200;5.46543212890625;-0.0989100176937878;0.1300100893564522;-1.5072627577930688;-0.0666598826646804;0.1333283185958862;0.0366293042898178
1768416549225433000;5.47543310546875;0.1353143332444131;-0.0627120383702218;-1.3322048815727232;-0.0477125570178031;0.0608003251254558;-0.0186672396957874
1768416549235435300;5.485435302734375;0.1979756643407046;-0.2998096797224134;-0.9816764566779136;-0.036348920315504;-0.0034902640618383;-0.0654559805989265
1768416549245436200;5.495436279296875;0.0671185297008603;-0.4696791204541921;-0.5092874927431345;-0.0199158862233161;-0.0644926354289054;-0.0863146558403968
1768416549255438000;5.50543798828125;-0.170322518261522;-0.5941771683908998;-0.0166050978422164;-0.0097447820007801;-0.1149414703249931;-0.0934162437915802
1768416549265439200;5.515439208984375;-0.3528770338475704;-0.6889715674594045;0.4674778110176324;0.0074232853949069;-0.1728130280971527;-0.0860371515154838
1768416549275441700;5.525441650390625;-0.5983493395090103;-0.6522238452985882;0.8669587751299143;0.028562368825078;-0.2172307074069976;-0.0481270141899585
1768416549285442600;5.535442626953125;-0.8844875636883079;-0.5622389654036611;1.0569546927630902;0.0534661188721656;-0.2643697261810303;0.0131267569959163
1768416549295444500;5.545444580078125;-0.9465316396690904;-0.4646322123281657;1.0878501817643642;0.0747559070587158;-0.3038656711578369;0.0702563226222992
1768416549305445600;5.555445556640625;-0.8593531224317849;-0.429772788131982;1.0334317783564329;0.0930616781115531;-0.3331149220466614;0.1217168495059013
1768416549315447600;5.565447509765625;-0.5232938062638044;-0.3286185717079788;0.852962398481369;0.1012275591492652;-0.3583944439888;0.1760203242301941
1768416549325449500;5.575449462890625;-0.5609441032875329;-0.3370303531572222;0.8571382228612899;0.1073677465319633;-0.3813974857330322;0.2112864404916763
1768416549335450600;5.58545068359375;-0.0179629421919584;-0.4946101480931043;0.7342921799153089;0.1125323921442031;-0.3871836364269256;0.2189752161502838
1768416549345452500;5.59545263671875;0.2672919232815504;-0.6070761051915585;0.7285293786048889;0.1143790334463119;-0.394071102142334;0.1941143423318863
1768416549355453400;5.605453369140625;0.4463024095851928;-0.6970504636924714;0.6881529445528983;0.1154673844575882;-0.4165604412555694;0.1353020370006561
1768416549365455600;5.61545556640625;0.3745330584038048;-0.7300353992536663;0.5443611442118883;0.1063543111085891;-0.4456557333469391;0.0772749558091163
1768416549375456500;5.62545654296875;0.2834872712790965;-0.666291095226258;0.3036731502175331;0.0978786274790763;-0.4705254137516022;0.0504372455179691
1768416549385458400;5.63545849609375;0.0152547792118042;-0.5735342663999646;0.0439747508049011;0.0904702469706535;-0.4882063865661621;0.0505413748323917
1768416549395459600;5.64545947265625;-0.370190572220087;-0.4993344001360237;-0.200642983853817;0.0901928022503852;-0.5031021237373352;0.0850361287593841
1768416549405461500;5.65546142578125;-0.6721358757317066;-0.4189295417521149;-0.2464998951435089;0.0863133743405342;-0.5505969524383545;0.1370180994272232
1768416549415463700;5.665463623046875;-0.8112076618134975;-0.3439210625190287;-0.121527361562848;0.078426107764244;-0.6155825853347778;0.1904836893081665
1768416549425464600;5.675464599609375;-0.6898679317772388;-0.2830707994326949;0.0595855769127607;0.074643887579441;-0.6903673410415649;0.2281295955181121
1768416549435466500;5.685466552734375;-0.4586392555236816;-0.2675974090341478;0.2347971823900937;0.0642975941300392;-0.7798095941543579;0.2308255583047866
1768416549445467400;5.69546728515625;-0.3341950931986793;-0.2709421894174069;0.3413941013246774;0.0554564371705055;-0.8754367828369141;0.2124920934438705
1768416549455469600;5.705469482421875;-0.2199538152570836;-0.2420266952522098;0.45231998937428;0.0462731830775737;-0.9690359234809875;0.195837065577507
1768416549465470500;5.715470458984375;-0.0384890083036152;-0.1853677463758736;0.5577613085329532;0.0482481829822063;-1.0130823850631714;0.1736494749784469
1768416549475472600;5.72547265625;0.1589665731191635;-0.1416035695817321;0.5787684407263994;0.0620904564857482;-1.009060621261597;0.1336682289838791
1768416549485473500;5.7354736328125;0.3185527394413948;-0.1265863254528492;0.4597866719931364;0.0951043292880058;-0.989163100719452;0.0843747109174728
1768416549495475500;5.745475341796875;0.366928976608254;-0.0902438230920582;0.2467360419869422;0.1269378215074539;-0.9673014879226683;0.0479478798806667
1768416549505476400;5.755476318359375;0.3625683337133377;-0.0089539985671639;0.058439914008975;0.1502141058444976;-0.946930170059204;0.0301760733127594
1768416549515478500;5.765478515625;0.3384486589899286;0.1138850301161408;-0.0354132586866617;0.161950871348381;-0.9360098242759703;0.011756551451981
1768416549525480400;5.77548046875;0.3993348336398601;0.2721432357702404;0.0652028322726488;0.1679520308971405;-0.9354284405708312;-0.0250230357050895
1768416549535481600;5.785481689453125;0.3828219441257417;0.3338205973304808;0.2173229004979133;0.172230839729309;-0.9421311020851136;-0.0796104967594146
1768416549545483500;5.7954833984375;0.2702841639000922;0.2759774801708757;0.3200882784456014;0.1709008663892746;-0.9332470893859864;-0.1223965808749198
1768416549555484400;5.805484375;0.2250795790392905;0.2284732400655746;0.3454460070639849;0.1669453084468841;-0.9153928756713868;-0.1402516514062881
1768416549565486600;5.815486572265625;0.1377145262539386;0.2136389512881636;0.3388338954478502;0.1620972901582718;-0.896696925163269;-0.1451556086540222
1768416549575487500;5.825487548828125;0.1467932471793145;0.1813225626382976;0.2310989123940467;0.1546925008296966;-0.8841882944107056;-0.1416262686252594
1768416549585489400;5.835489501953125;0.1389293088711798;0.2102758315306157;0.0790869807183742;0.1381766200065612;-0.8732086420059204;-0.1327424943447113
1768416549595490800;5.84549072265625;0.0605482844650745;0.2952169085720554;-0.0511503415226936;0.1304921060800552;-0.8579627275466919;-0.1072680354118347
1768416549605492500;5.855492431640625;-0.0981866718553006;0.4043166041078045;-0.1186830780476331;0.130452424287796;-0.8449116945266724;-0.0701808556914329
1768416549615494400;5.865494384765625;-0.1580195015273988;0.4312995958404615;-0.1923749217242002;0.1201452314853668;-0.8408457040786743;-0.0366594269871711
1768416549625495600;5.87549560546875;-0.020922522649914;0.4064653796395286;-0.2443178749293088;0.1155368983745575;-0.8371771574020386;-0.0259732250124216
1768416549635497500;5.88549755859375;0.1272863634809851;0.3558079362003132;-0.2952086887329816;0.1001537516713142;-0.8396924138069153;-0.0200598668307065
1768416549645498600;5.89549853515625;0.1626632356800139;0.3054439227497205;-0.4191577244848012;0.0781603083014488;-0.8358966112136841;-0.0138616245239973
1768416549655500500;5.90550048828125;0.2124362975001335;0.3533569993842393;-0.4162368686020374;0.0592672899365425;-0.8175798654556274;-0.0040756152011454
1768416549665501700;5.915501708984375;0.2508874625779688;0.3610496362460777;-0.376257324913144;0.0491083972156047;-0.7756558656692505;0.0066779633052647
1768416549675503600;5.925503662109375;0.2442798810064792;0.363130205379799;-0.357090852150321;0.0444451048970222;-0.7301485538482666;0.0275438018143177
1768416549685504800;5.9355048828125;0.1704664567768573;0.2997157543612644;-0.4415343914657831;0.0417547821998596;-0.6886866092681885;0.0613425076007843
1768416549695506700;5.945506591796875;0.1680567652866244;0.2619945840584114;-0.609746931836009;0.023089637979865;-0.6604076623916626;0.1012874618172645
1768416549705507600;5.955507568359375;0.3044141778431832;0.2381450315132737;-0.7905231857031584;0.0167145617306232;-0.6456093192100525;0.1209160238504409
1768416549715509800;5.965509765625;0.5304349101901054;0.2663807997860014;-0.8289934938728809;-0.0004748397041112;-0.6273000836372375;0.1206110045313835
1768416549725511400;5.975511474609375;0.7486255334332584;0.1531112712197005;-0.9550766190439464;-0.0204251110553741;-0.608130931854248;0.1029747575521469
1768416549735512600;5.9855126953125;0.9088336310461164;0.1656124408744275;-0.8193763552218675;-0.0281670838594436;-0.5661903619766235;0.0743710920214653
1768416549745514800;5.9955146484375;0.8924261016026138;0.1703204724349081;-0.6942728887379169;-0.0281519033014774;-0.5034422874450684;0.0576642826199531
1768416549755515600;6.005515625;0.7515054727837442;0.1572044953500851;-0.6027350072473288;-0.0224292520433664;-0.4289935827255249;0.0624104812741279
1768416549765517600;6.015517578125;0.6044992404408752;0.1308855204841122;-0.5126356341272592;-0.0201874021440744;-0.3570424318313598;0.0820726007223129
1768416549775518700;6.025518798828125;0.5969955868124962;0.0628530908087268;-0.4398141435444355;-0.0130947027355432;-0.2909555435180664;0.0949617326259613
1768416549785520600;6.035520751953125;0.6403958987303078;-0.0248528843687847;-0.3958119202107191;-0.0113772302865982;-0.23300302028656;0.0978443399071693
1768416549795521500;6.045521484375;0.7080453935027122;-0.1016172673584893;-0.4034071976453066;-0.0159545000642538;-0.1911157518625259;0.0957041904330253
1768416549805523700;6.055523681640625;0.6621534108996391;-0.092012622862868;-0.4403168323695659;-0.0201961155980825;-0.1521105617284774;0.0919635146856308
1768416549815524600;6.065524658203125;0.6760559717848896;-0.0169256350334733;-0.3643535366296768;-0.0244847610592842;-0.1120665892958641;0.0873488634824752
1768416549825526500;6.075526611328125;0.6584139321103691;0.0113886418355628;-0.3246200766563415;-0.0250232517719268;-0.0742374509572982;0.0781966373324394
1768416549835528700;6.08552880859375;0.6506514814153314;0.0091108330966904;-0.2626724467873573;-0.0229859072715044;-0.0279952324926853;0.0705314874649047
1768416549845529600;6.095529541015625;0.6483288836866616;-0.0355764498917385;-0.1837397798478603;-0.0168220214545726;0.0298164021223783;0.0594002716243267
1768416549855531800;6.10553173828125;0.63271250462085;-0.0562810920072719;-0.1197930851161479;-0.0063734310679137;0.0914238914847374;0.0543844401836395
1768416549865532700;6.11553271484375;0.5711760859012603;-0.1236455592932179;-0.1388484987199306;0.0003731548786163;0.1424023807048797;0.0517827980220317
1768416549875534600;6.12553466796875;0.5387735533379018;-0.1200139613252133;-0.2089361804246902;0.0016561956144869;0.1778393685817718;0.0461674444377422
1768416549885535500;6.135535400390625;0.5155518138349056;-0.0625238223217427;-0.2572019064217806;-0.0001704666065052;0.2063165456056594;0.041915975511074
1768416549895537700;6.14553759765625;0.4870423431873321;0.0017848010575398;-0.2871469628304243;-0.0052395416423678;0.2269875705242157;0.0339269824326038
1768416549905538600;6.15553857421875;0.430743532860279;0.064901401640661;-0.3235328659415245;-0.0087796822190284;0.2497847527265548;0.0301005523651838
1768416549915540700;6.165540771484375;0.3406827381849289;0.0932584947381168;-0.3346387818455696;-0.0153181347995996;0.2747475802898407;0.0360206477344036
1768416549925541600;6.175541748046875;0.3330029973372816;0.110998843687959;-0.3097399029105901;-0.01974936760962;0.3042104244232178;0.0513695105910301
1768416549935543600;6.18554345703125;0.458151764267683;0.0527685173090547;-0.2955401126444339;-0.0214908495545387;0.3407598435878753;0.0575978495180606
1768416549945545700;6.195545654296875;0.5404626754686236;-0.0201320298593491;-0.2557189743876457;-0.0228916723281145;0.3723808825016022;0.0473199114203453
1768416549955546600;6.205546630859375;0.4786299041509628;-0.0264425281804054;-0.2594412097811698;-0.0244224313646554;0.3948525488376617;0.0287528410553932
1768416549965548500;6.215548583984375;0.2995873422086239;0.0335300022233277;-0.2450695700794458;-0.0285197049379348;0.4145213067531585;0.0227761752903461
1768416549975549700;6.2255498046875;0.3397879813022911;0.0357872065655887;-0.236350257050991;-0.0319685116410255;0.4290414154529571;0.0334305018186569
1768416549985551600;6.235551513671875;0.1258576458521187;0.1780837999127805;-0.1360696816563606;-0.0313474610447883;0.4445117115974426;0.0425310581922531
1768416549995552500;6.245552490234375;0.1298585520565509;0.1538543812045827;-0.0962520505309104;-0.0300833862274885;0.4614486396312713;0.0461913309991359
1768416550005554700;6.2555546875;0.1255696226909756;0.1327378338199109;-0.0579518382310867;-0.0283984057605266;0.475932776927948;0.043469313532114
1768416550015555600;6.2655556640625;0.095109602497518;0.0845695768479257;-0.00074584993124;-0.0267150327563285;0.4878280758857727;0.0357006937265396
1768416550025557500;6.2755576171875;0.0385268606625497;0.0488149939103052;0.0683569123893976;-0.025750434026122;0.4936814308166504;0.028239581733942
1768416550035558400;6.285558349609375;-0.0154164725795388;0.0107291550135239;0.143172791659832;-0.0206776913255453;0.4949432909488678;0.0191263891756534
1768416550045560600;6.295560546875;0.0318332082428038;0.0122086529815569;0.1518687238126993;-0.017160452902317;0.4870392978191376;0.0121827293187379
1768416550055562500;6.3055625;-0.0342353009484708;-0.0082039839174598;0.1708797137528658;-0.0127529222518205;0.4838402867317199;0.0156203377991914
1768416550065563600;6.315563720703125;-0.1059128821931779;0.0128245198575779;0.1725578760981559;-0.0084481881931424;0.4781917333602905;0.0211336128413677
1768416550075565600;6.325565673828125;-0.1682873591721057;0.0493707280969247;0.1799865647941827;-0.0065991273149847;0.4640868902206421;0.0292145237326622
1768416550085566500;6.33556640625;-0.202775465837866;0.0496418366558849;0.1881751319468021;-0.0005532184150069;0.4477816820144653;0.0324806235730648
1768416550095568600;6.345568603515625;-0.2265628763996064;0.0467251820242032;0.1771592324137687;0.000990891829133;0.4230633974075317;0.0354844518005847
1768416550105569500;6.355569580078125;-0.2732721667349338;0.0323558804100379;0.1410527307659387;0.0017805190291255;0.3968733251094818;0.0407918654382228
1768416550115571500;6.365571533203125;-0.2641292214669287;0.0265875261416658;0.1149783783107995;-0.0012695826590061;0.3654728531837463;0.0458216853439807
1768416550125572600;6.375572509765625;-0.2387058802664279;0.0206914173077791;0.1129980181485414;-0.0049572614952921;0.3350928425788879;0.0508337542414665
1768416550135574500;6.385574462890625;-0.2582676359571516;-0.0287573079288005;0.1378857911676168;-0.0059738312847912;0.3097405731678009;0.0558444932103157
1768416550145575400;6.395575439453125;-0.2518168523825705;-0.0408297673100605;0.1875011782079935;-0.0043493029661476;0.2900643646717071;0.0618706941604614
1768416550155577600;6.40557763671875;-0.3010733429826795;-0.064451904307492;0.1937222446799278;-0.0062142703682184;0.2757559418678283;0.0720603391528129
1768416550165578500;6.41557861328125;-0.3184019327938556;-0.0432971803369;0.2151695218563079;-0.0065945694223046;0.2517054677009582;0.0795267820358276
1768416550175580400;6.425580322265625;-0.3187514768838882;-0.0058254547504708;0.1960778678953647;-0.0087443618103861;0.2190565168857574;0.0858914852142334
1768416550185582600;6.43558251953125;-0.3525742515087127;-0.0083844550509005;0.1853425388693809;-0.0108847441151738;0.1879657208919525;0.092772826552391
1768416550195583500;6.44558349609375;-0.3741420863248407;-0.0354486953262239;0.2196007823020219;-0.0146095780655741;0.1503117680549621;0.1023932099342346
1768416550205585400;6.45558544921875;-0.3815209445297717;-0.054488326838985;0.2254354798048734;-0.0095016350969672;0.120536558330059;0.1090660244226455
1768416550215586600;6.465586669921875;-0.3632873687028884;-0.068192077216506;0.221570036548376;-0.0097959293052554;0.0850788056850433;0.1111815944314003
1768416550225588500;6.47558837890625;-0.3120795979045331;-0.079509370848909;0.2165525006473064;-0.0038272528909146;0.0533216744661331;0.1116436496376991
1768416550235589600;6.485589599609375;-0.2631179985977709;-0.0497398171376436;0.2040261965513229;-0.0020600233692675;0.0278107654303312;0.1051193252205848
1768416550245591600;6.495591552734375;-0.1963210290014743;-0.0561949846263974;0.2129202816247939;0.0069188242778182;0.004442062228918;0.0888226404786109
1768416550255592700;6.5055927734375;-0.1386557526268065;-0.0811133354468271;0.1959872670024633;0.0127210533246397;-0.016767619177699;0.0728623196482658
1768416550265594400;6.515594482421875;-0.1545931803405285;-0.1427174856403842;0.1222176819145679;0.0162896886467933;-0.0418980047106742;0.0627103447914123
1768416550275595000;6.525594970703125;-0.1325381465293467;-0.1277695073554292;0.0923041896879672;0.0164023395627737;-0.0655862912535667;0.0557965114712715
1768416550285597200;6.53559716796875;-0.1059013378858566;-0.1130090509992092;0.1083335334688425;0.0169243197888135;-0.0895499438047409;0.0529669038951396
1768416550295599000;6.54559912109375;-0.0852748755730688;-0.0978284695347771;0.1174801319986581;0.018130887299776;-0.1135409250855445;0.0445688217878341
1768416550305600000;6.55560009765625;-0.0724807143211364;-0.0834617252038791;0.1381529176712036;0.0193508807569742;-0.1338701695203781;0.0340770334005355
1768416550315602200;6.565602294921875;-0.0717453857839107;-0.101119145110622;0.138498954629898;0.022492105141282;-0.1558291018009185;0.0242280811071395
1768416550325603000;6.57560302734375;-0.0464613069236278;-0.1134310758035629;0.1540180108010768;0.0227411109954118;-0.169819489121437;0.0165081117302179
1768416550335605000;6.58560498046875;-0.0234312906004488;-0.0850550222773104;0.1481067409306764;0.0264702793210744;-0.1815700978040695;0.0119639243930578
1768416550345606100;6.595606201171875;-0.0112114221051335;-0.0602295008394867;0.1128279222786426;0.0305907223373651;-0.1937945336103439;0.0031834822148084
1768416550355608000;6.605608154296875;-0.0083621701538562;-0.037771439185366;0.0483797077655792;0.033038605004549;-0.2011587172746658;0.000677949283272
1768416550365609000;6.61560888671875;-0.0043443128146231;0.0072285630140453;0.0212426945149898;0.0357755348086357;-0.2025198638439178;0.0024817083030939
1768416550375611100;6.625611083984375;0.0559432748876512;0.0098090810265392;-0.0358452203631401;0.0389586724340915;-0.2007903456687927;0.0055066393688321
1768416550385612000;6.635612060546875;0.122963531845808;0.0244336725760251;-0.0452075074702501;0.039702758193016;-0.1991999000310897;0.0047740042209625
1768416550395614000;6.645614013671875;0.1670716997720301;0.0279844969253987;-0.0574362899243831;0.0395729355514049;-0.1971841156482696;0.0017979454714804
1768416550405615000;6.655614990234375;0.2262451887525618;0.0150644808040931;-0.071843585461378;0.0411945357918739;-0.188960000872612;-0.0062461327761411
1768416550415617000;6.665616943359375;0.2241454399943351;0.044778760664165;-0.1000584570765495;0.0444082394242286;-0.1749058663845062;-0.0127625446766614
1768416550425619000;6.675618896484375;0.2554137078307569;0.0605117883795872;-0.1431891582727432;0.0451352819800376;-0.1601346433162689;-0.0173903182148933
1768416550435620000;6.6856201171875;0.2475016195319593;0.075591393687576;-0.1750444322168827;0.0427713543176651;-0.1430834680795669;-0.0219874121248722
1768416550445622000;6.6956220703125;0.2383922842726111;0.0942841479914262;-0.2135118177771568;0.0436291582882404;-0.1208905503153801;-0.0258809514343738
1768416550455623000;6.705622802734375;0.2278334808573126;0.0907525763317942;-0.2150093628585338;0.039543192833662;-0.1003742069005966;-0.0289265606552362
1768416550465625000;6.715625;0.2103634367488324;0.1057114778695628;-0.1904828243672847;0.0399868749082088;-0.0807672142982482;-0.0265544820576906
1768416550475626000;6.7256259765625;0.2053704507671296;0.0945472924396395;-0.193805831310153;0.036919966340065;-0.0616101995110511;-0.0256495811045169
1768416550485628000;6.7356279296875;0.1706288077317178;0.0913165668901056;-0.1852332332760095;0.0335731655359268;-0.050282709300518;-0.0242381058633327
1768416550495629000;6.745629150390625;0.1372786190547049;0.1014538934903219;-0.1722913341164589;0.0305753871798515;-0.035244420170784;-0.0227308683097362
1768416550505631000;6.755630859375;0.1450010300002992;0.0933173853185027;-0.1934334908664226;0.0244538467377424;-0.0222109127789735;-0.0165720432996749
1768416550515631900;6.7656318359375;0.1523100378394127;0.0926276860212907;-0.1816506986141204;0.0180728305131196;-0.0136785088106989;-0.0132087254896759
1768416550525634000;6.775634033203125;0.1514100202597677;0.0914296718757599;-0.18174480663836;0.0109161175787448;-0.0040642307139933;-0.0111847221851348
1768416550535635000;6.785635009765625;0.1463574130453169;0.090784725035727;-0.1535802039057016;0.0062164077535271;0.0056842127814888;-0.0099965017288923
1768416550545636900;6.795636962890625;0.117307844171673;0.0982136329274624;-0.1327577806293964;0.0003515945281833;0.0145781049504876;-0.0088955508545041
1768416550555639000;6.80563916015625;0.1232908641040325;0.0963460124246776;-0.1277928516983985;-0.0025484615471214;0.0271797012537717;-0.0090704094618558
1768416550565640000;6.815639892578125;0.1406055715203285;0.0669671750640496;-0.113554482987523;-0.0048331879079341;0.0382035933434963;-0.0116635281592607
1768416550575642000;6.82564208984375;0.1328444359995424;0.0668937810342758;-0.075952189823985;-0.005782856605947;0.0483080558478832;-0.0138440839946269
1768416550585643000;6.83564306640625;0.0899228475093841;0.0621827172664925;-0.0395540117532014;-0.0041292998939752;0.0571225844323635;-0.0127700306475162
1768416550595645000;6.84564501953125;0.0508767852783203;0.0500849407808855;-0.0536193619847297;-0.0042031807824969;0.0628796443343162;-0.0083388686180114
1768416550605645800;6.855645751953125;0.0359504343032836;0.0362289589837193;-0.0454915851086378;-0.0056338300928473;0.0637789964675903;-0.0091724377125501
1768416550615648000;6.86564794921875;0.0741327193118631;0.0345115240739658;-0.031391748085618;-0.0083565348759293;0.0624760687351226;-0.0172984693199396
1768416550625649000;6.87564892578125;0.0933845322705805;0.0330089740239083;-0.0230026899248361;-0.0080750389024615;0.0610052049160003;-0.0231560915708541
1768416550635651000;6.885651123046875;0.054104661283642;0.0034989114990457;0.0052577743977308;-0.0073605389334261;0.0596756041049957;-0.0247491486370563
1768416550645652000;6.89565185546875;0.0003436988711357;0.0006520707005634;0.0104746322631835;-0.005648925434798;0.0602234154939651;-0.0171271823346614
1768416550655654000;6.90565380859375;-0.0435443965636193;0.0100610830262303;0.0141810855656862;-0.005372688639909;0.0597431808710098;-0.0112797319889068
1768416550665654800;6.91565478515625;-0.0410965650200843;0.0113099505761638;0.0003723404437303;-0.0052389977499842;0.0570656396448612;-0.0107433702796697
1768416550675657000;6.925656982421875;-0.0039874622009694;0.0070741031046956;0.0103010292619466;-0.0019520830828696;0.0529098249971866;-0.0158502534031867
1768416550685659000;6.935658935546875;-0.0245148480534553;-0.0115046328980475;0.0295879135340452;-0.0018479533027857;0.0454455204308033;-0.0176604054868221
1768416550695660000;6.945659912109375;-0.0738883891619741;-0.0360169602008536;0.0429091674000024;-0.0014692228287458;0.0363862998783588;-0.0193682070821523
1768416550705662000;6.955661865234375;-0.0725030722834169;-0.0651321781892329;0.0699959117680788;0.0012533266562968;0.0252881105989217;-0.0181929543614387
1768416550715662800;6.965662841796875;-0.094753336405754;-0.0880927825380116;0.0596761778056621;0.0041365474462509;0.0146150607615709;-0.0105417054146528
1768416550725665000;6.9756650390625;-0.1421463712215423;-0.0337888723552227;0.0322755451828241;0.0038654375821352;0.0027408241294324;0.0017296087462455
1768416550735666000;6.985666015625;-0.111206458556652;0.0154441277714446;0.0090051442325115;0.001890969928354;-0.0135350851342082;0.0148526020348072
1768416550745667800;6.995667724609375;-0.0648809068419039;-0.0010151683919131;0.0257785843789577;0.0027892540674656;-0.0263909623026847;0.0168941803276538
1768416550755669000;7.0056689453125;-0.0222865044794976;-0.022453677739948;0.0326461320608854;0.0027236870955675;-0.0390207804739475;0.0132606588304042
1768416550765671000;7.0156708984375;-0.0089477149568498;-0.0419728363979607;0.0466752419352531;0.0048393020406365;-0.050349336117506;0.0069084865972399
1768416550775672000;7.025672119140625;0.0044343291856348;-0.037971747530438;0.0658083969503641;0.0048037683591246;-0.0561439022421836;3.8128811866e-05
1768416550785674000;7.035674072265625;0.0113465927921235;-0.0230021054029464;0.0371335066080093;0.0081271268427371;-0.0613008476793766;-0.0038061439990997
1768416550795675100;7.045675048828125;0.028615707501024;-0.0107074546383693;0.0224625916987657;0.0097312750294804;-0.0654555857181549;-0.0069288546219468
1768416550805677000;7.055677001953125;0.0181060039244592;-0.000455744410865;0.0182283151298761;0.0089485719799995;-0.067618079483509;-0.0087504563853144
1768416550815679000;7.065678955078125;0.0245031576156616;-0.000363207289204;0.0193295543700456;0.010571826249361;-0.0714846029877662;-0.0135546326637268
1768416550825680100;7.07568017578125;0.030241847398132;-0.0004031009081751;0.0163584296047687;0.0135375224053859;-0.072378359735012;-0.0156348291784524
1768416550835681800;7.085681884765625;0.0054417526625096;0.0148503631293773;-0.0030751696616411;0.0125011019408702;-0.0728901177644729;-0.0162108838558197
1768416550845683200;7.09568310546875;-0.016963994282484;0.0303350055743008;0.0027723873227834;0.0126212108880281;-0.0706064626574516;-0.0125109525397419
1768416550855685000;7.10568505859375;-0.015038433047384;0.0292962005784735;-0.0120195236176252;0.0124330949038267;-0.0710948854684829;-0.0113213481381535
1768416550865686000;7.11568603515625;-0.0192518129587173;0.0363855743175372;-0.0214238963007926;0.0137660065665841;-0.0697846114635467;-0.0036716843023896
1768416550875688200;7.125688232421875;-0.0010812193654477;0.0350387993510812;-0.0205114576309919;0.0141485333442687;-0.0727026313543319;0.0002362676896154
1768416550885689000;7.135689208984375;0.0133002110779285;0.0278267125478014;-0.0280132115632295;0.0123349204659461;-0.0712501481175422;0.0064470255747437
1768416550895691000;7.14569091796875;0.0384743998229503;0.0361690454900264;-0.0387672452896833;0.0111557580530643;-0.0663315504789352;0.0097776930779218
1768416550905692200;7.155692138671875;0.0770155812717974;0.0459783822448924;-0.0524614241212606;0.011858832091093;-0.0637349709868431;0.0127039747312664
1768416550915694000;7.165694091796875;0.0937152255296707;0.0376437576850876;-0.0768587832748889;0.011483060196042;-0.056582786142826;0.0112855751067399
1768416550925695000;7.175695068359375;0.1041011565960943;0.0303953209267929;-0.0745265409350395;0.0140876322984695;-0.053625613451004;0.010346544906497
1768416550935697200;7.185697265625;0.1154571017384529;0.0223581449436023;-0.0908399623543024;0.0130703784525394;-0.0489978231489658;0.0049320114776492
1768416550945698000;7.195697998046875;0.1127168631196022;0.0208382053673267;-0.068788874065876;0.0112280035391449;-0.0450456924736499;0.0027127992361783
1768416550955700000;7.205699951171875;0.0857856015741825;0.0314762480312958;-0.0460796141296625;0.0128445532172918;-0.0401188544929027;0.0016770083457231
1768416550965702100;7.2157021484375;0.0822422298789024;0.0301825914915651;-0.0466115290492773;0.0128954192623496;-0.0339091643691062;0.0005094786174595
1768416550975703000;7.225703125;0.0681505761623382;0.026429193774797;-0.0320925898313522;0.0137007720768451;-0.0289708711206913;0.0017248566728085
1768416550985705000;7.235705078125;0.0857926158368587;0.0175158925442025;-0.02154080067873;0.01062295679003;-0.0250594858080148;0.0034140995703637
1768416550995706000;7.2457060546875;0.0902782368183136;0.0175896153675392;-0.0610737696439027;0.0105086509138345;-0.021288564428687;0.0014644984621554
1768416551005708000;7.2557080078125;0.1011117655217647;0.0292866655651479;-0.0591074380069971;0.0077935578301548;-0.0185817256569862;-0.0030554183758795
1768416551015709000;7.265708984375;0.0892027165412902;0.0182685740750283;-0.0319593188405036;0.0080408956855535;-0.0146604273468256;-0.0061864419840276
1768416551025711000;7.275711181640625;0.0812204856157302;0.0080391487445682;-0.0093961893767118;0.0061748195439577;-0.0112686250358819;-0.0076429243199527
1768416551035712000;7.2857119140625;0.048699879630655;0.0155730879133567;-0.0203068749696016;0.0078417910262942;-0.0090356664732098;-0.0086217429488897
1768416551045714000;7.2957138671875;0.0443697414718568;0.0186968824896961;-0.0286602772951126;0.0076295370236039;-0.0078074168413877;-0.0067069297656416
1768416551055715000;7.305715087890625;0.0207600255645811;0.0294105842057615;-0.0235164846658706;0.0076837809756398;-0.0071259168907999;-0.0058636260218918
1768416551065717000;7.315717041015625;-0.01348857325688;0.0224721632447093;-0.015680968734622;0.0060203704051673;-0.0050449226982891;-0.0013996353372931
1768416551075718000;7.3257177734375;0.0083585168920457;0.0145729709601029;-0.0245873287677764;0.0062146121636033;-0.0055711679160594;1.61309726536e-05
1768416551085720000;7.335719970703125;0.0394211791537702;0.0173118944047018;-0.0233043032199144;0.0052446885965764;-0.003900833427906;-0.0010685743764042
1768416551095721000;7.345720947265625;0.0334907661914825;0.0114950248194858;-0.0359223772525787;0.0045789829455316;-0.002572180237621;-0.0030282763764262
1768416551105723000;7.355722900390625;0.0299532397150993;0.0166505444191396;-0.030854572468996;0.0070107150822877;-0.001581750693731;-0.0058522927574813
1768416551115724000;7.36572412109375;0.050460459562391;0.0136330597614869;-0.0465969160020351;0.0046853423118591;-0.0032647040206938;-0.0053892750293016
1768416551125726000;7.375725830078125;0.0217171801589429;0.0058786462424322;-0.0387269132792949;0.003521274542436;-0.0059315934777259;-0.0045383954420685
1768416551135727900;7.385727783203125;0.0289896553799509;-0.0024899536522105;-0.0177209501296281;0.0054630823433399;-0.0085540134459733;-0.0066044460982084
1768416551145729000;7.39572900390625;0.0381996745347976;0.0119367407049983;-0.0300870952278375;0.0050830491818487;-0.007603264413774;-0.0065112356096506
1768416551155731000;7.40573095703125;0.0477846644818782;0.0149041026106104;-0.0210649998605251;0.0060562673024833;-0.0071492977440357;-0.0067552872933447
1768416551165731800;7.41573193359375;0.0496890367984771;0.0067453095417469;-0.0459913513243198;0.0062155243940651;-0.0046933302655816;-0.0071390490047633
1768416551175734000;7.425734130859375;0.0598842675983905;0.0190833610566332;-0.0563671993881464;0.0070108002983033;-0.0036206641234457;-0.0090274605900049
1768416551185735000;7.43573486328125;0.0396985347904264;0.0022589944405481;-0.0662964727282524;0.0042925113812088;-0.0046736779622733;-0.008206408470869
1768416551195736800;7.44573681640625;0.0218823075927793;0.0149097651664167;-0.0583276858061552;0.0033030482009053;-0.0070216851308941;-0.0065631321631371
1768416551205738000;7.455738037109375;-0.0023604455210268;0.0128137792678549;-0.0514402643799781;0.0026532369665801;-0.0130460215732455;-0.0025076703168451
1768416551215740000;7.465739990234375;-0.0180339616015553;0.0032687560049816;0.0101513916581869;0.0034309232141822;-0.0125320786610245;0.0018943934701383
1768416551225740800;7.47574072265625;-0.0059539399683475;0.0139659084450453;0.0304085822671651;0.004045314155519;-0.0159068368375301;0.0031982772052288
1768416551235743000;7.485742919921875;0.0048022857151925;0.0101420027753338;0.0015881459742784;0.0028917016461491;-0.014795028604567;0.0035428362898528
1768416551245743900;7.495743896484375;-0.0134649001203477;0.019413214065507;-0.0026882161706686;0.0031873122788965;-0.0144466869533061;0.0072012208402156
1768416551255745800;7.505745849609375;0.0093817224599421;0.0108015261299908;-0.0159212072312831;0.0039152242243289;-0.0130540132522583;0.0117441173642873
1768416551265747000;7.515746826171875;0.0726826666340231;0.0108276469519361;-0.0221101249992847;0.0038071000017225;-0.0131935626268386;0.0086516551673412
1768416551275748900;7.525748779296875;0.1043793890155851;-0.0066734133493155;-0.0166635500311851;0.0017278576269745;-0.0173505488783121;0.0003027087077498
1768416551285750800;7.535750732421875;0.0847778858363628;-0.0039114743553102;-0.002866495347023;0.0039683748036623;-0.0172924920916557;-0.0100050559267401
1768416551295752000;7.545751953125;0.0293451908193528;0.0128246294554322;-0.0167407069206237;0.0045437589287757;-0.0154087226837873;-0.0118764396756887
1768416551305753900;7.55575390625;-0.0044343291856348;0.0562155524903908;-0.0404687885105609;0.0050763916224241;-0.0146145690232515;-0.0060182837769389
1768416551315755000;7.565755126953125;0.0324538243591785;0.0580407586235553;-0.0572521655291318;0.0042426399886608;-0.009536450728774;0.0013156470376998
1768416551325756700;7.575756591796875;0.0672724781535565;0.0351970586527138;-0.0484241314291954;0.0024149126838892;-0.0093404427170753;-0.00012645451352
1768416551335758000;7.585758056640625;0.0455531060375273;0.003531936985813;-0.0162543847084045;1.0364456102e-06;-0.0113740386441349;-0.0046933330595493
1768416551345759700;7.595759765625;0.0043067572832107;-0.0282106703640893;0.033057050949335;0.001599998329766;-0.0159083362668752;-0.0068595483899116
1768416551355761000;7.605760986328125;0.0166879538200795;-0.0333076281769201;0.0448667312085628;0.0014320804039016;-0.0202117841690778;-0.0116519294679164
1768416551365763000;7.61576318359375;0.0244401753820478;-0.0327750556701794;0.0220382288068532;0.0051253521814942;-0.0252331737428903;-0.0135592855513095
1768416551375764000;7.625763916015625;0.0154958214260637;0.0081922934796661;0.0046212300598621;0.009164834395051;-0.0217851791530847;-0.0104306042194366
1768416551385766000;7.635765869140625;0.0605167202830314;0.0111708343664184;-0.0495592729389667;0.0064561339095234;-0.020544946193695;-0.0088899647817015
1768416551395767000;7.64576708984375;0.1071172895468771;0.0234718783391639;-0.04088087644279;0.0082541164010763;-0.0180795565247535;-0.010495064780116
1768416551405769000;7.65576904296875;0.1183281271301209;0.0112595720957964;-0.0590998392224311;0.0072767361998558;-0.0168877933174371;-0.0168288610875606
1768416551415769900;7.665769775390625;0.1295205522738397;-0.0001106207676231;-0.0395662867128849;0.0099656470119953;-0.0144460406154394;-0.0272332858294248
1768416551425772000;7.67577197265625;0.0972502677880227;0.0048535409783944;-0.0321200623601675;0.0083182156085968;-0.0111019089818;-0.0382201597094535
1768416551435773000;7.68577294921875;0.0374070628523826;0.0227041088370606;-0.019517185896635;0.0123311774805188;-0.0078712394461035;-0.0418628901243209
1768416551445774800;7.69577490234375;0.0255145266152918;0.0105069270975887;-0.0236012403398752;0.0139256119728088;-0.002388056833297;-0.0443779788911342
1768416551455777000;7.705777099609375;0.0043114334583282;0.0372250573489814;-0.0304459916681051;0.0157363656908273;0.0020872259046882;-0.0378744602203369
1768416551465778000;7.71577783203125;0.0047955637134611;0.0361585240960121;-0.0303226575493812;0.0173763409256935;0.0042912578210234;-0.0325279012322425
1768416551475779800;7.72577978515625;-0.0044353520989418;0.0418365697324275;-0.0722457365214824;0.014611180871725;0.0021031061187386;-0.0262323208153247
1768416551485781000;7.735781005859375;0.0085306585885584;0.0381726403973996;-0.1046755954831838;0.0081128012388944;-0.0013281106948852;-0.0217781849205493
1768416551495783000;7.745782958984375;-0.0075710197761654;0.0361551265625283;-0.0735527274668216;0.005776691250503;-0.0011228853836655;-0.0148762948811054
1768416551505783800;7.75578369140625;-0.0057118017755448;0.041808987605758;-0.036177228796482;0.0018288212595507;-0.002516251290217;-0.0109779611229896
1768416551515786000;7.765785888671875;0.0220306300222873;0.0430051385877653;-0.0270902514994144;0.0013380277669057;-0.0020708162337541;-0.0090642608702182
1768416551525787000;7.775786865234375;0.0360788829885423;0.0409780532069504;-0.01934007576406;-0.0006622725632041;-0.0020780067425221;-0.008837092667818
1768416551535788800;7.785788818359375;0.0470925905644893;0.0305320625163614;-0.0120241997927427;0.0007634150679223;-0.0012987693771719;-0.0079648792743682
1768416551545790000;7.7957900390625;0.0248421803116798;0.0228651811502873;-0.0064846858441829;0.0011021691607311;0.0021814496722072;-0.0080863181501626
1768416551555792000;7.8057919921875;0.017451631668955;0.0287874838713556;-0.0016530279040336;0.0016108198324218;0.0034685614518821;-0.0039071962237358
1768416551565792800;7.815792724609375;0.0068644789420068;0.0106680359434336;-0.0159545249789953;0.0042718504555523;0.0048579326830804;0.0001868810504674
1768416551575795000;7.825794921875;0.0134156541511416;0.0198224159209057;-0.0165951609700918;0.0017771821003407;0.0071350326761603;0.0042737829498946
1768416551585795800;7.8357958984375;0.0292072436533868;0.0325501243405044;-0.0348427653223276;0.0032294038683176;0.0092149619013071;0.0056695458479225
1768416551595797800;7.8457978515625;0.0411303211592137;0.0131391387647017;-0.0436608625501394;0.001722068991512;0.0100356424227356;0.0048863519914448
1768416551605799000;7.855798828125;0.0376665905714035;0.0116357119318097;-0.0334738150566816;0.0016203362029045;0.0104055562987923;0.0036919242702424
1768416551615800800;7.86580078125;0.0349592313088476;0.0201858058732002;-0.0334621246188879;0.0018788455054163;0.0093625597655773;0.0050530796870589
1768416551625802800;7.875802734375;-0.0006055646777153;0.0099914518561214;-0.0301718509018421;0.0016261115670204;0.0089005017653107;0.0064994422718882
1768416551635804000;7.885803955078125;0.0051017070531845;0.0001239551732316;-0.0220990190833807;0.0001954329200088;0.0081973709166049;0.0082085747271776
1768416551645805800;7.895805908203125;0.0117054892323911;0.0076248323226347;-0.0240787947237491;0.0013621638063341;0.0055541833862662;0.0106048882007598
1768416551655806700;7.905806640625;0.0292376387916505;0.01474869285319;-0.0196650699347257;0.0020443680696189;0.0057691046968102;0.0096365343779325
