timestamp;seconds_elapsed;acc_z;acc_y;acc_x;gyro_z;gyro_y;gyro_x
1768216541052712200;21.607712158203125;-0.0355161345392465;-0.0049040655892342;0.0025948753314092;-0.0029542446136474;0.0346197634935379;-0.0067718857899308
1768216541062713000;21.617713134765623;-0.0357137029379606;-0.0051113151317462;-0.0004114303451031;-0.0027324033435434;0.0351249650120735;-0.0049976878799498
1768216541072713200;21.627713134765624;-0.0212380183398723;-0.0014961933745071;-0.0190178215397521;-0.0055106128565967;0.0341193526983261;-0.0022229405585676
1768216541082714000;21.63771411132813;-0.0095873280346393;0.0114903121117502;-0.0098713326077908;-0.0041984734125435;0.0331084169447422;-0.0052951630204916
1768216541092715000;21.647715087890624;-0.0121972182720899;-0.0179598369194194;0.0129904875416308;-0.005690642632544;0.0418286733329296;-0.0072422004304826
1768216541102715100;21.657715087890622;0.0400455946624279;-0.0358298766635358;-0.0022286358349025;-0.0060136839747428;0.0441304445266723;-0.0154308881610631
1768216541112716300;21.66771630859375;0.0707020142108201;-0.0315677622396498;-0.0058845279939472;-0.0092765893787145;0.0425815470516681;-0.0232235640287399
1768216541122717200;21.67771728515625;0.0371229852139949;-0.0927601167619228;-0.1036935256432741;-0.0114164389669895;0.0481731221079826;-0.0263581033796072
1768216541132718000;21.687718017578124;0.0367214186757802;-0.0950054480032995;-0.108016941800341;-0.0122417528182268;0.0483350418508052;-0.0270952675491571
1768216541142718000;21.69771801757813;0.0108890582829713;-0.1033933736529201;-0.1214696400262415;-0.0135754635557532;0.0424180291593074;-0.0285594724118709
1768216541152719000;21.707718994140624;-0.0602887567460536;-0.08432846156843;-0.1090494266532361;-0.012574647553265;0.047450341284275;-0.0328128077089786
1768216541162720300;21.71772021484375;-0.1414285783410072;-0.0906535364041104;-0.0757282448749989;-0.0142127582803368;0.0587719716131687;-0.0406283847987651
1768216541172720000;21.72772021484375;-0.1369540632754564;-0.0432116940105333;-0.0054299160942435;-0.0146497823297977;0.0678898319602012;-0.0524072796106338
1768216541182721000;21.737720947265625;-0.1424842248737812;-0.0135278092887252;0.0372104443017393;-0.0124231139197945;0.073942132294178;-0.062684953212738
1768216541192722200;21.74772216796875;-0.1372808110117912;-0.0013144070668146;0.0595471445985138;-0.0102662192657589;0.0760838463902473;-0.0584902092814445
1768216541202722000;21.75772216796875;-0.088511227145791;0.0204888439403846;0.0900225084915757;-0.0047673247754573;0.0747895538806915;-0.0498889945447444
1768216541212723000;21.767722900390623;0.0245312146663665;0.0499422078419476;0.1174050940010696;0.0400683246552944;0.0681697353720665;-0.0400880314409732
1768216541222724000;21.77772412109375;0.072505848762393;0.0162785693015903;0.0679650635275989;-0.0365995578467845;0.0464388728141784;-0.0337646231055259
1768216541232724200;21.78772412109375;0.1133779573768377;0.0004585574224591;0.0077701225448399;0.0542435310781002;0.0359244458377361;-0.0205620005726814
1768216541242725000;21.79772509765625;0.0512748446851968;0.0440774439943954;-0.0380414882984012;-0.0335952453315258;0.015850069001317;-0.0044365599751472
1768216541252726000;21.80772607421875;-0.0520849920243024;0.0411771194430068;-0.0455048099163919;0.0572715438902378;0.0267072450369596;0.008209460414946
1768216541262726100;21.81772607421875;-0.1197591828465461;0.0709029436103999;0.0013427929110825;-0.0418473146855831;0.027009779587388;0.0069252839311957
1768216541272727000;21.82772705078125;-0.0821025291472673;0.0860427546730265;0.1201817921727895;0.0528621487319469;0.042445994913578;0.0002194444678025
1768216541282728200;21.837728271484377;-0.0103483755350112;0.1164557208543643;0.1977401750843971;-0.0421993844211101;0.0340764783322811;-0.0189103074371814
1768216541292728000;21.84772802734375;0.0670545976191759;0.067024165948294;0.1745852902725339;0.0491931140422821;0.0462846755981445;-0.030379744246602
1768216541302729200;21.857729248046876;0.0624643472194671;0.0504483672657981;0.1239858606308698;-0.0458085015416145;0.0382424592971801;-0.0366773195564746
1768216541312730000;21.867730224609375;0.0704021544814109;-0.0075805547894909;0.0835552121736109;0.0482868403196334;0.0361984856426715;-0.0294542945921421
1768216541322730000;21.87772998046875;0.0287198985278606;-0.0048448096826672;0.0157371559012681;-0.0441733188927173;0.0187696926295757;-0.0148071758449077
1768216541332731100;21.88773120117187;-0.0678103844225406;-0.0193831111881881;-0.0070751990832388;0.0510522648692131;0.0244632642716169;0.0069140987470746
1768216541342732300;21.897732177734376;-0.159989486426115;0.0293188508016988;0.0067032239656895;-0.0438833013176918;0.0234762970358133;0.0168090742081403
1768216541352733200;21.90773315429687;-0.0962105494767427;0.0239651052162051;0.0472194318145513;0.0520003512501716;0.0435205809772014;0.0243716519325971
1768216541362733000;21.917733154296876;0.0358393751442432;0.0940682767510414;0.0712789373159408;-0.038858450949192;0.043371707201004;0.0243135951459407
1768216541372734000;21.92773388671875;0.1414455294758081;0.0815702489014714;0.0195579562984406;0.0618937276303768;0.0558661967515945;0.0303216874599456
1768216541382735000;21.937735107421876;0.1554097574204206;0.0597557823805138;-0.0732786597657948;-0.0270822178572416;0.046923566609621;0.0303254146128892
1768216541392735000;21.94773486328125;0.1170744738072156;-0.0544724716827273;-0.1618265656601637;0.0641611441969871;0.0482468903064727;0.0265647657215595
1768216541402736600;21.957736572265624;0.1172013150572776;-0.0745507985934615;-0.1609740404840558;-0.0376656204462051;0.0133994286879897;0.0128361703827977
1768216541412737500;21.96773754882813;0.0935737712323665;-0.0733171286126598;-0.0762660050135105;0.0498256124556064;0.008144212886691;0.0109072420746088
1768216541422737700;21.977737548828124;-0.0385498031467199;-0.0158844554174691;-0.0309151435498148;-0.0519742518663406;-0.0069881347008049;0.0125767784193158
1768216541432738800;21.98773876953125;-0.0465226817220449;-0.0654060266945511;-0.0046230566907674;0.0410204045474529;0.0039963396266102;0.0146279446780681
1768216541442739700;21.99773974609375;-0.0307101955622434;-0.0435001190304756;0.0303213423751294;-0.0567050911486148;0.0117144463583827;0.0077572553418576
1768216541452739800;22.00773974609375;-0.0371492886990308;-0.0820922634815797;0.0108097094364464;0.0387868098914623;0.0363819748163223;-0.0042642536573112
1768216541462740700;22.01774072265625;-0.015680968734622;-0.0653806730575859;0.0074541884634643;-0.0583844818174839;0.0334050953388214;-0.0175062883645296
1768216541472741600;22.02774169921875;0.0587771831393241;-0.0788974860282614;-0.0418324050139635;0.0406294502317905;0.0364640019834041;-0.0196661129593849
1768216541482741500;22.037741455078127;0.0927010800510644;-0.0539133034300059;-0.1091563941590487;-0.0583157688379287;0.0085556712001562;-0.0193958021700382
1768216541492742700;22.04774267578125;0.0757470226407051;-0.0792144795555621;-0.1781272737283259;0.0371569544076919;-0.0114334831014275;-0.0010945592075586
1768216541502743800;22.057743896484375;0.007730301991105;-0.0256081962481141;-0.165031060789898;-0.0545444674789905;-0.0360639952123165;0.0293371155858039
1768216541512744700;22.06774462890625;-0.0432061045199632;-0.0420517103204503;-0.0767916363228112;0.0424902029335498;-0.0013986921403557;0.0471033304929733
1768216541522744600;22.07774462890625;-0.0957610521435737;-0.1036893974574282;0.004558467021957;-0.0523601435124874;0.0148079749196767;0.0325395688414573
1768216541532745500;22.087745361328125;0.0279500831991434;-0.0968504548154771;0.1093831155870109;0.047148335725069;0.0287094097584486;0.0100971087813377
1768216541542746600;22.09774658203125;0.1225964520990848;-0.0193136626811698;0.1499658128008246;-0.0504381395876407;0.0218568295240402;-0.0033566481433808
1768216541552746800;22.107746826171876;0.099662151235342;0.0065898267190903;0.108093879494071;0.04737364128232;0.0289770569652318;-0.0017664746847003
1768216541562747600;22.11774755859375;0.0677677143245935;0.0226699873717501;0.0522511423714458;-0.0497917905449867;-0.0026035062037408;-0.0019355855183675
1768216541572748500;22.12774853515625;0.0699988343775272;-0.0112043713098391;0.0121875736609101;0.0453198105096817;-0.0309765581041574;0.0023172164801508
1768216541582748700;22.13774877929687;0.0122574240267276;0.018995244381763;0.0306880567956715;-0.052295695990324;-0.0532341934740543;0.0123245771974325
1768216541592749600;22.14774951171875;-0.0778460407465696;0.0095769893037155;0.0627354923110455;0.0117248324677348;-0.0260947179049253;0.0259607601910829
1768216541602750700;22.15775073242187;-0.0974567501455545;-0.022065883998759;0.124704018837586;-0.006286924239248;-0.0099391834810376;0.0088773807510733
1768216541612750800;22.167750732421876;-0.0575607930868864;-0.0142478671915829;0.1704634611021727;0.0022133530583232;-0.0027955202385783;-0.0074248928576707
1768216541622751700;22.177751708984378;-0.0282078573524951;0.0671525415683165;0.1870867521882057;0.0084957499057054;-0.0060200756415724;-0.0141435153782367
1768216541632752600;22.187752685546876;-0.0500233833193779;0.091846289852634;0.104443467227742;0.012237224727869;-0.0090771177783608;-0.0075037227943539
1768216541642752800;22.19775268554687;-0.0051589901983737;0.0664723407518118;0.0591980388998985;0.011600730009377;-0.0180517043918371;-0.0023180153220891
1768216541652753700;22.207753662109376;0.0187321729987859;0.0354948725555092;0.0391390742767602;0.009762349538505;-0.0344772823154926;0.0005890912143513
1768216541662754800;22.2177548828125;-0.0101057989507913;0.0335858605964109;0.0065926762633025;0.0016247945604845;-0.0413887202739715;0.0031931300181895
1768216541672755700;22.227755615234376;-0.0456862308979034;0.0593792772183194;0.0041954789284616;-0.0005009406013414;-0.0284393653273582;0.0047891624271869
1768216541682755600;22.237755615234377;-0.048480830052495;0.055797655871883;0.0326154446616768;-0.0030754182953387;-0.0084502100944519;-0.0011566109023988
1768216541692756700;22.2477568359375;0.040724224576354;0.0389001509543508;0.0218950940091162;-0.0046160570345819;0.0046107308007776;-0.0120398849248886
1768216541702757600;22.257757568359377;0.0911953516632318;0.0309832768825814;-0.0535962733700871;-0.003582750679925;0.017028784379363;-0.0173441022634506
1768216541712757500;22.267757568359375;0.0897907455623149;-0.0031204701080918;-0.1972713154636323;-0.0087357005104422;0.0260550361126661;-0.0171920359134674
1768216541722758700;22.277758544921873;0.0144441204160451;-0.0517894796764478;-0.2732479090765118;-0.0068429922685027;0.0236155800521373;-0.017797639593482
1768216541732759800;22.287759765625;-0.0722094961643219;-0.0193555290615186;-0.2662950942639261;-0.0081428810954093;0.0219178162515163;-0.0028562401421368
1768216541742759700;22.297759765625;-0.1507341668248176;0.0088788509717211;-0.1988870800971984;-0.0084520746022462;0.0320309028029441;0.0126998163759708
1768216541752760600;22.307760498046875;-0.1736293047219514;0.006999722694233;-0.0572382831342518;-0.0066515109501779;0.0478484816849231;0.0204408261924982
1768216541762761500;22.317761474609377;-0.1156628534436225;0.0014152005601674;0.0615623568784445;-0.0024114924017339;0.0624836161732673;0.0191936679184436
1768216541772763000;22.327762939453127;-0.0439011010468006;0.0002729351898655;0.1044586647968739;0.0018964370246976;0.070331685245037;0.0060168798081576
1768216541782762800;22.3377626953125;0.0231330383062362;-0.0174932423209771;0.0912962547544389;0.0069591063074767;0.0659526512026786;-0.0060147494077682
1768216541792763600;22.347763671875;0.0586070872694253;-0.0191550380533561;0.0676176383294165;0.0086187878623604;0.0488365143537521;-0.0145355332642793
1768216541802764500;22.3577646484375;0.0512806899040937;0.0020831629496067;0.0355384194362908;0.0119338911026716;0.0223183557391166;-0.0136412438005208
1768216541812764700;22.3677646484375;0.0158913966149091;0.003786313605681;0.0205289202224463;0.0075892102904617;0.0022434468846768;-0.0003707120195031
1768216541822765600;22.377765625;0.0297305368751287;0.0141349083364009;0.0331282164894044;0.0074523235671222;0.0053763897158205;0.0097253313288092
1768216541832766700;22.3877666015625;0.0195849904358387;-0.006606010668911;0.0816032013230025;0.0096118813380599;0.0158966742455959;0.0075559206306934
1768216541842766800;22.397766845703124;0.0305722483962774;-0.0013018033135682;0.0765426299978047;0.0103759421035647;0.0214064884930849;-0.0068986522965133
1768216541852767700;22.407767822265622;0.0386322207331657;0.0420205479972064;0.0596129763763397;0.0111559815704822;0.0226155631244182;-0.0126327043399214
1768216541862768600;22.4177685546875;0.0113525841414928;0.0548936562368646;-0.0129978671304881;0.0115567874163389;0.0240571331232786;-0.0130337765440344
1768216541872768800;22.42776879882813;-0.0006464812099933;0.0033726913034915;-0.0881418823767453;0.0095522264018654;0.0198128540068864;-0.0096515621989965
1768216541882769700;22.437769775390624;-0.0103670802354812;-0.0325529373520985;-0.1097057716701179;0.0069103701971471;0.0167478211224079;-0.0080989394336938
1768216541892770800;22.44777075195313;-0.0326034619629383;-0.0572203090861439;-0.0887220934174954;0.0036330842413008;0.0169981587678194;-0.0031454595737159
1768216541902771700;22.457771728515624;-0.0619008681178092;-0.070878357158415;-0.0334367709819227;0.0002689792599994;0.0236272979527711;-0.0034615767654031
1768216541912771600;22.467771484375;-0.0787047034025192;-0.0472097141381353;0.0163595255833119;-6.73779723001e-05;0.0362954214215278;-0.0021070931106805
1768216541922772700;22.477772705078124;-0.0541413400322198;-0.0065233738867565;0.0611528262294828;0.000868723145686;0.0447365790605545;-0.0027198863681405
1768216541932773600;22.487773681640626;0.037409985461831;0.0121497989337891;0.0638100627399981;0.0023302659392356;0.045903842896223;-0.0060131512582302
1768216541942773500;22.4977734375;0.0898942059367895;0.0207078935185447;0.0118435825288295;0.0026666230987757;0.0428065843880176;-0.0089663304388523
1768216541952774700;22.507774658203125;0.0855529618620872;-0.0082180489754304;-0.0342077553544193;0.0028533106669783;0.0370317883789539;-0.008780974894762
1768216541962775800;22.51777587890625;0.0526835424393415;-0.0116008232815191;-0.0645060091149061;0.0038160434924066;0.0315440781414508;-0.0067676249891519
1768216541972775700;22.527775634765625;-0.0100777419000864;-0.0060110769830644;-0.0586837327022105;0.003171824850142;0.0288526862859725;-0.0054584150202572
1768216541982776600;22.537776611328123;-0.0828483790785074;-0.0331350480889901;-0.0024683628749102;0.0025302693247795;0.02647022344172;-0.0067087691277265
1768216541992777500;22.547777587890625;-0.0559492662370204;-0.0158975340947508;0.0364935282040387;0.0048528122715651;0.0273495987057685;-0.0060645504854619
1768216542002777600;22.557777587890627;-0.0564496169745922;-0.002305756191723;0.0517092905797064;0.0042802323587238;0.0305493865162134;-0.0043044672347605
1768216542012778800;22.56777880859375;-0.0231365454375743;-0.0111453345989808;0.0581825782470405;0.0038352182600647;0.0283256471157073;-0.0045630601234734
1768216542022779600;22.577779541015627;0.0316238032758235;-0.0229743040805682;0.0427160559806972;0.0044536041095852;0.0212405733764171;-0.0009113337146118
1768216542032780500;22.587780517578125;0.0551794509083032;-0.0205280799722299;0.0006210545077919;0.0022788669448345;0.0146790770813822;0.0020453077740967
1768216542042780700;22.59778076171875;0.073572601211071;-0.0396574355950579;-0.0427879521731287;0.0008740494376979;0.0105727491900324;0.0054759918712079
1768216542052781600;22.607781494140625;0.0303285027682781;-0.0483031719306483;-0.0583553775306791;-0.0009965548524633;0.0113764917477965;0.0038559909444302
1768216542062782700;22.61778271484375;-0.001575871014595;-0.0215771506337448;-0.0416326446581631;-0.0043247072026133;0.0163603313267231;0.0038703719619661
1768216542072782800;22.627782958984376;-0.0173766667366027;-0.0042445422345772;-0.034302594031021;-0.0041745048947632;0.0197188425809144;-0.0025646241847425
1768216542082783700;22.63778369140625;0.0053927989542484;0.030373876279965;-0.0300103036645799;-0.0069527146406471;0.0195231009274721;-0.0052616074681282
1768216542092784600;22.64778466796875;0.0011965163081884;0.0299190451845526;-0.03218750157319;-0.0068411282263696;0.0287195295095443;-0.0036173716653138
1768216542102784500;22.65778442382813;-0.0228361011862754;-0.0111052217843011;-0.0558490937981754;-0.0085002770647406;0.0375708118081092;-0.0049241846427321
1768216542112785700;22.66778564453125;-0.0517436312407255;-0.0216980735996738;-0.065914414608106;-0.010015083476901;0.0442223213613033;-0.0096872486174106
1768216542122786800;22.677786865234378;-0.0664671531200409;-0.0479253881268203;-0.0470728629507124;-0.0109373359009623;0.0431823581457138;-0.0123392241075634
1768216542132787700;22.68778759765625;-0.0726496411472558;-0.0442136010620743;-0.0509728660639375;-0.0142143554985523;0.0404523499310016;-0.0111368065699934
1768216542142787600;22.69778759765625;-0.0909101049810647;-0.025700002717413;-0.065956719379872;-0.0104758106172084;0.0471541956067085;-0.0024644893128424
1768216542152788700;22.707788818359376;-0.1470364813506603;-0.0371415437839925;-0.0198415955454111;-0.0146069061011075;0.0632644593715667;-0.0022578279022127
1768216542162789600;22.71778955078125;-0.0398573786139488;-0.0120550698550418;0.0853076818641275;-0.0109341405332088;0.0462162308394908;0.0044261738657951
1768216542172789500;22.72778955078125;0.016807342416048;0.0320734832720831;0.0414495431762188;-0.0148199591785669;0.050355315208435;-0.0011800467036664
1768216542182790700;22.737790771484377;-0.0004611877709627;-0.0212014857217669;0.0535957619134336;-0.0095410412177443;0.051802210509777;0.0086278431117534
1768216542192791800;22.747791748046875;0.086241528648138;0.0075738693203777;0.0103323011830449;-0.0132273882627487;0.0635675266385078;0.0062677497044205
1768216542202791700;22.757791748046873;0.0516448470413684;-0.0061015317454934;0.0154590696122497;-0.0092685995623469;0.0654983147978782;-0.0022719427943229
1768216542212792600;22.76779248046875;-0.0298427650779485;-0.0031117388123646;0.0350686099674552;-0.0085362298414111;0.067809410393238;-0.0012884372845292
1768216542222793500;22.77779345703125;-0.0399473949849605;0.0615659370750188;0.0623689240209758;0.0048432247713208;0.0683225989341735;0.0051209921948611
1768216542232795000;22.787794921875;-0.0136971014410257;0.0729637485977262;0.0804268510200083;0.0114824855700135;0.0494855269789695;0.0258734095841646
1768216542242794800;22.797794677734377;0.1016945338457822;0.0328056700041517;0.0895144128389656;0.0179070942103862;0.0321368984878063;0.0365204587578773
1768216542252795600;22.807795654296875;0.1468938580095768;0.0043221375154331;0.0953886386346071;0.0155520616099238;0.0228912010788917;0.0353318899869918
1768216542262796500;22.817796630859377;0.1086205337166786;0.0047471945270895;0.0870859435830265;0.0163131933659315;0.013948306441307;0.0253879148513078
1768216542272796700;22.827796630859375;0.0895534296751022;0.0129921680420637;0.068266603757441;0.0125725166872143;0.0097232013940811;0.0229141041636466
1768216542282797600;22.837797607421876;0.0282546191036701;0.0302948196943849;0.0003052665568888;0.0087183900177478;0.0126577382907271;0.0142705487087368
1768216542292798700;22.847798828125;0.0248205530017614;0.016429229818657;-0.0147200147479772;0.004317516926676;0.009411877952516;0.0079125175252556
1768216542302798800;22.857798828125;0.0049263504862785;0.0258245789451524;-0.0731506494719535;-0.0008772452711127;0.0132905049249529;0.0096100168302655
1768216542312799700;22.8677998046875;-0.0044119712233543;0.0346209027325734;-0.0870544524662196;-0.0048517468385398;0.0200898218899965;0.008273109793663
1768216542322800600;22.877800537109376;0.0291524447262287;0.0439711340757086;-0.0898809811290353;-0.0060765347443521;0.0261724814772605;0.0077114491723477
1768216542332800500;22.887800537109374;0.0339700741410255;-0.0242676683593541;-0.1203728577654808;-0.0098997689783573;0.0199617240577936;0.0064893243834376
1768216542342801700;22.8978017578125;0.0328577289849519;-0.0735826842136681;-0.1044805843677371;-0.0108457235619425;0.0142031703144311;0.0045303031802177
1768216542352802800;22.907802734375;-0.0477045849829912;-0.0497334239294752;-0.101067853314802;-0.0151142375543713;0.0167137328535318;0.0075287562794983
1768216542362803700;22.9178037109375;-0.0792003779649734;-0.0792020949980244;-0.0589027822803705;-0.0142867937684059;0.0197872873395681;0.0088851042091846
1768216542372803600;22.92780346679687;-0.0700251378625631;-0.0846319380270317;-0.0316327902998775;-0.0160420835018157;0.0244374331086874;0.0090195937082171
1768216542382804700;22.9378046875;-0.0662660775899887;-0.0954162938265129;-0.0278032951395958;-0.0175417084246873;0.0270246937870979;0.0058232680894434
1768216542392805600;22.9478056640625;-0.063313073003292;-0.0942114115487784;-0.0254763134967535;-0.0191483944654464;0.0352456048130989;0.0056698699481785
1768216542402805200;22.95780517578125;-0.0737602327376604;-0.0679103011330589;-0.0258126327790319;-0.0193127114325761;0.043999683111906;0.003271160647273
1768216542412806400;22.967806396484377;-0.0766986242771148;-0.0691248280219733;-0.0127710726372897;-0.0184069704264402;0.0557745806872844;-0.0006314354832284
1768216542422807600;22.9778076171875;-0.0804769737720489;-0.054108460675925;-0.0227048760220408;-0.0211431011557579;0.059866264462471;-0.0063553676009178
1768216542432808400;22.987808349609377;-0.1051169095098972;-0.0630792277147993;-0.0114414314687252;-0.0256395824253559;0.0636319741606712;-0.011657721363008
1768216542442808300;22.997808349609375;-0.0584253009617328;-0.0623661475419998;0.0093660864993929;-0.0248068124055862;0.0653891265392303;-0.0149366054683923
1768216542452809200;23.007809326171873;-0.0596755932837724;-0.0625773426072672;-0.0086006550848484;-0.0307496562600135;0.0688408464193344;-0.0205247160047292
1768216542462810400;23.017810302734375;-0.0473725765496492;-0.0527771024743095;0.0282072728306055;-0.0335795320570468;0.0781683027744293;-0.0218959785997867
1768216542472810200;23.027810302734373;-0.0222977565258741;-0.0524285812975838;0.0303262377459555;-0.0398057363927364;0.0844475030899047;-0.0241087973117828
1768216542482811400;23.037811279296875;0.0495218635380268;-0.0119801779879257;0.0786695590239018;-0.0315467417240142;0.0590401515364646;-0.0156039930880069
1768216542492812300;23.047812255859377;0.1090478192180395;0.0911820172576233;0.0931654826924204;-0.0229263547807931;0.0445474945008754;-0.0098286624997854
1768216542502812400;23.0578125;0.0254284557670354;0.1142846604255959;0.088733710790053;-0.0167201235890388;0.0466079823672771;-0.0063164853490889
1768216542512813300;23.067813232421877;0.0682622198432683;0.0948724327407777;0.0976551222618669;-0.0113413380458951;0.0422060415148735;-0.0085972165688872
1768216542522814200;23.077814208984375;0.1253425359368324;0.089968915140815;0.0790064628280699;-0.006852579768747;0.0396102592349052;-0.0108063090592622
1768216542532814300;23.087814453125;0.0815635999649763;0.0670556205324828;0.0431544473979622;0.0007430219557136;0.0409852489829063;-0.0103040365502238
1768216542542815500;23.0978154296875;0.0364233125120401;0.0455895655903965;-0.004257292118296;0.0056927730329334;0.0469896122813224;-0.0044448156841099
1768216542552816400;23.10781640625;-0.0053127194553613;0.054469256812334;0.00454356171377;0.0030269487760961;0.0495739430189132;-0.0042328280396759
1768216542562817300;23.1178173828125;-0.0286707986891269;0.0148054280091077;0.0029442367583513;-0.0001134506601374;0.0527534931898117;-0.0044677192345261
1768216542572817400;23.1278173828125;-0.0396124639421701;0.0344025107415393;0.0270760768435895;0.0017749968683347;0.0473344922065734;-0.0037891454994678
1768216542582818300;23.137818359375;-0.0111035778164863;0.0312028013847768;0.0421587874241173;0.0012942962348461;0.0371420420706272;0.0005230448441579
1768216542592819500;23.1478193359375;0.0323790055572986;0.0337072584863752;0.0267787743974477;0.0008873652550391;0.0197015330195426;0.008192416280508
1768216542602819300;23.1578193359375;0.0760796155959367;0.030539186376892;0.0382845032740384;0.0005331648280844;-0.0006277070497162;0.0102084288373589
1768216542612820500;23.167820556640624;0.0726584089756011;0.0346252135815098;0.0226327606339007;-0.0001456749159842;-0.011429488658905;0.0094856470823287
1768216542622821400;23.1778212890625;0.031596915268898;0.010874372170493;-0.004924450790137;-0.0021041636355221;-0.0152457980439066;0.0065029067918658
1768216542632822300;23.187822265625;-0.0172515790522098;-0.0032235651563853;-0.0031549568995833;-0.0025286714080721;-0.0109581090509891;0.0063127567991614
1768216542642822100;23.197822265625;-0.0562947186738252;0.0183331637438386;0.0015622078154236;-0.0024668860714882;-0.0048259142786264;0.0040983385406434
1768216542652823600;23.207823486328124;-0.0464747509270906;-0.0033451822420582;-0.0222990717001259;-9.9602220871e-05;0.0012562130577862;0.0022509037517011
1768216542662824400;23.217824462890626;-0.0594651654034852;-0.0038437794139608;-0.0399568934656679;0.0014548848848789;0.0043822317384183;-0.0008367652189917
1768216542672824300;23.22782421875;-0.0021481179445981;-0.001473981542699;-0.0315118673339486;0.0006689860601909;0.003008573083207;-0.0011667308863252
1768216542682825200;23.2378251953125;-0.0175637137413024;-0.0266843741122633;-0.0475187070220708;0.0008641957538202;0.0082334289327263;-0.0008141283178701
1768216542692826400;23.247826416015624;9.64461117982e-05;-0.0326429171904921;-0.0130153297219425;0.0014623417519032;0.0033023196738213;0.0023350596893578
1768216542702826200;23.257826171875;-0.0302501768350601;-0.0188730062415823;-0.0049496582966297;0.0003685815026983;0.0091586112976074;0.0091708619147539
1768216542712827400;23.267827392578123;-0.0134621236413717;-0.0091299031233415;-0.0203184923421591;0.0007155913626775;0.0055417716503143;0.010831075720489
1768216542722828300;23.277828369140625;-0.0079874916225671;-0.0201655302701517;-0.005715674233064;0.0011646003695204;0.0008753810543566;0.0101652862504124
1768216542732828400;23.287828369140627;-0.0200187056779861;-0.026370631987974;0.0113581370994448;-5.11326943524e-05;-0.0009701895760372;0.0063969129696488
1768216542742829300;23.297829345703125;-0.0004354688078165;-0.0394085754005238;0.0207278768606483;-0.0024511734955012;-0.0046046054922044;0.0017624800093472
1768216542752830200;23.307830322265627;-0.0296674085110425;-0.0484012620102614;0.0175754041790962;-0.0041526672430336;-0.0024410535115748;-0.0006175870657898
1768216542762831400;23.317831298828125;-0.0240343710601329;-0.0430059057727456;0.0236048205364495;-0.0053702644072473;-0.0026375947054475;-0.0021228056866675
1768216542772831500;23.32783154296875;-0.0157148710042238;-0.0363806058814749;0.0271628052789717;-0.0047801076434552;-0.0035952674224972;-0.0001976065541384
1768216542782832400;23.337832275390625;-0.0418172805100679;-0.0077708166645839;0.0166010792542248;-0.007220628671348;-0.0010506170801818;-0.0026594325900077
1768216542792833300;23.347833251953126;-0.0344604880064725;-0.0066325333496555;0.0088646397832781;-0.0050051449798047;0.007095193490386;-0.002436526119709
1768216542802833400;23.35783349609375;0.0096720837086439;-0.0276317379649728;0.0148454677585512;-0.0067487163469195;0.0060744038783013;-0.0042296322062611
1768216542812834300;23.367834228515623;0.0612643237799406;-0.0016212810589;-0.0093268504675477;-0.0059297946281731;0.0035342811606824;-0.0106292087584733
1768216542822835500;23.37783544921875;0.0319084654361009;0.0243602785462513;-0.0058222764126956;-0.0041545312851667;0.0048235175199806;-0.0124526750296354
1768216542832835300;23.38783544921875;0.0331944135934114;0.0101090138211846;-0.0309454656228423;-0.0053782537579536;0.0094057526439428;-0.0101916510611772
1768216542842836500;23.39783642578125;0.0380009370923042;-0.0262467133473604;-0.0332869872476905;-0.0050272489897906;0.0179156176745891;-0.0124010099098086
1768216542852837400;23.40783740234375;0.0192605807870626;-0.0106077571235597;-0.0332755160056054;-0.0054328483529388;0.0208927653729915;-0.0091016190126538
1768216542862838300;23.41783837890625;0.0036813188612461;-0.0145326754823327;-0.0167890761069953;-0.0068222195841372;0.0175481010228395;-0.005354817956686
1768216542872838100;23.427838134765626;0.0167301855266094;-0.0217824274148792;0.0033173809196799;-0.0062413844279944;0.0139994388446211;-0.0033329459838569
1768216542882839600;23.437839599609376;0.0157487732738256;-0.0291912423666566;0.0210934953026473;-0.0065383268520236;0.0107136303558945;-0.006476807873696
1768216542892840400;23.44784033203125;0.0245312146663665;-0.0452457205887883;0.0088444737780839;-0.0046698530204594;0.0029643645975738;-0.0067146280780434
1768216542902840300;23.45784033203125;0.0410357747435569;-0.0387277900621294;0.0283140942059457;-0.0034956652671098;-0.0048213866539299;-0.0019110844004899
1768216542912841200;23.46784130859375;0.0353027840495109;-0.0367652212848886;0.0261753286115825;-0.0018498316640034;-0.0032605081796646;0.0010351707460358
1768216542922842400;23.47784228515625;0.0179196875721216;-0.0342084129415452;0.0325490283619612;-0.0040338900871574;-0.0038759645540267;0.0042765042744576
1768216542932842200;23.48784228515625;-0.0219096339911222;-0.029265549711883;0.0283765649829059;-0.0050416300073266;-0.0041063278913497;0.004996090196073
1768216542942843400;23.497843505859375;-0.024330723658204;-0.0099260950023308;0.0476725824095308;-0.0034626419655978;-0.0024924525059759;0.006436061579734
1768216542952844300;23.50784423828125;-0.0266185423344373;0.0124793231490999;0.0601799626093357;-0.0023052322212606;-0.0018287927377969;0.0044085970148444
1768216542962845400;23.517845458984375;-0.0019926351219415;0.0118107762377709;0.0436253528453409;-0.0015459649730473;-0.0014764565275982;-0.0010298443958163
1768216542972845300;23.52784521484375;0.0135188222646713;0.0053611617069691;0.024629122082889;-0.0043894220143556;-0.0085149249061942;0.0007595335482619
1768216542982846200;23.53784619140625;0.0075099372386932;0.0519541321862489;0.035052608680725;-0.0002790992730297;-0.0031822111923247;0.0009171926649287
1768216542992847400;23.547847412109373;-0.0516647207856178;0.083222911479324;-0.0043185938514769;-0.0017345168162137;-4.23442616011e-05;0.0045793056488037
1768216543002847500;23.557847412109375;-0.0095358901083469;0.0026861338114365;-0.0265489842295646;-0.0016607472207397;-0.0001520664955023;0.0032983249984681
1768216543012848400;23.567848388671877;-0.01171206510365;0.0246506397949531;-0.0241319862157106;-0.0061801318079233;0.001046355930157;0.0031915323343127
1768216543022849300;23.577849365234375;-0.0312643223136663;0.0040250177323818;-0.0331467750594019;-0.0038456046022474;0.0044221789576113;0.004317516926676
1768216543032849400;23.587849365234376;0.0084112699925899;0.0023602263253182;-0.0203586051568388;-0.005125786177814;0.0044759749434888;0.0005363606614992
1768216543042850300;23.597850341796875;0.0133574942231178;0.0003331044118851;-0.0245694277849048;-0.0053926347754895;0.0049803773872554;0.0016855146968737
1768216543052851500;23.6078515625;-0.0018839140504598;0.0064915539763867;-0.018381825191155;-0.0049175270833075;0.0038839541375637;0.0027622305788099
1768216543062852400;23.617852294921875;0.0108604167103767;0.0272689690671861;-0.0025584523111581;-0.0033598439767956;0.0040141828358173;0.0015931029338389
1768216543072852500;23.6278525390625;-0.0092991587430238;0.0103283191276714;0.0014626198984682;-0.0046754456125199;0.0026522420812398;0.0031145669054239
1768216543082853400;23.637853271484374;0.0078150576651096;0.0112856198525056;0.0113387017466127;-0.0025744778104126;0.0033550502266734;0.0059186089783906
1768216543092854300;23.647854248046876;0.0051806175082921;0.0127559481333941;0.0012456892121583;-0.0021835258230566;0.0023742080666124;0.0065782740712165
1768216543102854100;23.65785424804687;0.0134825819075107;0.0039345629699528;-0.0105330844521522;-0.0007411577389575;0.0010586065473034;0.0072616413235664
1768216543112855600;23.66785546875;0.0171533793747425;-0.0092708824966102;0.0125006581980735;-0.0009624664089642;0.0009507485083304;0.0041193775832653
1768216543122856400;23.6778564453125;0.0339724122285842;-0.0089411025529727;0.0071691609770059;-0.0014841796364635;0.0044916872866451;0.0034381409641355
1768216543132856300;23.687856201171876;0.0012286650121212;-0.0108399584442377;0.0069667702727019;-0.0003355582884978;0.0058448393829166;0.0021973741240799
1768216543142857200;23.697857177734377;0.0037836101919412;-0.0164557159667834;-0.0022287089001387;-0.0016586167039349;0.0041025998070836;0.0001824265345931
1768216543152858400;23.7078583984375;-0.0161053316265344;-0.018514913518913;0.0045422465395182;-0.0011819108622148;0.0031683626584708;0.0003510046226438
1768216543162859500;23.717859619140626;-0.0243482593148946;-0.0009328969359397;0.0127592360690236;-0.0004130562883801;0.0067055732943117;-0.0027467843610793
1768216543172859400;23.727859375;-0.0332201325565576;-0.0209423598615452;0.0074455667655915;-0.000230629753787;0.0083410209044814;-0.0039353528991341
1768216543182860300;23.7378603515625;-0.0601940641999244;-0.0207819451354444;0.017755217725411;0.0007656587986275;0.0102326637133955;-0.0018799253739416
1768216543192861400;23.747861328125;-0.0644458764255046;-0.0222271755076944;0.039863004637137;0.0002790992730297;0.0127693247050046;-0.0010828413069248
1768216543202861300;23.757861328125;-0.034004560932517;-0.0379052581654861;0.0256214210558682;-0.0026245452463626;0.0138476388528943;-0.0033696976024657
1768216543212862200;23.7678623046875;-0.0357312385946512;-0.0168695574646815;0.0258359405893832;-0.0022362563759088;0.0133648077026009;-0.002518018707633
1768216543222863400;23.77786328125;-0.0280418531358242;-0.0023990970309823;0.0346097602840513;-0.0028589034918695;0.0142559008672833;-0.0024844629224389
1768216543232864300;23.7878642578125;-0.0070300447672605;0.0146480820229277;0.0282977275930345;-0.0027425233274698;0.0135243311524391;-0.0027169568929821
1768216543242864400;23.797864501953125;0.0042599955320358;-0.0081726389311254;0.0126376555159687;-0.001709749456495;0.0108864698559045;-0.0053931674920022
1768216543252865300;23.807865234375;0.0323392580687999;-0.0086337536368519;0.0041191257566213;-0.0012146678054705;0.0072603095322847;-0.0073109096847474
1768216543262866200;23.8178662109375;0.0430605585694313;-0.0450671491514891;0.0014606471370905;-0.0026045716367661;0.005371862091124;-0.0110297482460737
1768216543272866600;23.827866455078127;0.0196609782814979;-0.0475727022316306;-0.011616057383269;-0.0033931334037333;0.0069095715880393;-0.0113820843398571
1768216543282867500;23.837867431640625;0.0025198738664388;-0.0255159513873979;-0.030193332081288;-0.0022535668686032;0.0101570300757884;-0.0115155084058642
1768216543292868400;23.847868408203126;-0.0155628953129053;-0.0383846026476472;-0.0220897397983819;-0.0045798378996551;0.0144388601183891;-0.0103229451924562
1768216543302868500;23.857868408203124;-0.0291787482112646;-0.0180585115209221;-0.0137375065166503;-0.0020431771408766;0.016865799203515;-0.0066445870324969
1768216543312869400;23.867869384765623;-0.0053536359876394;0.0133927847322076;-0.0082419047750532;-0.0010346380295231;0.0131802503019571;-0.0042554652318358
1768216543322870300;23.877870361328124;0.0265992531120777;0.0289840658893808;-0.0115454763650894;0.0013763216556981;0.011428689584136;-0.0016937704058364
1768216543332870400;23.88787036132813;0.0234159469008445;0.0156741736676543;0.0007735416557639;0.0007403587806038;0.0076936059631407;-0.0012077435385435
1768216543342871600;23.89787158203125;0.0256347919940948;0.0206596704626455;-0.0083257836662232;0.0016892430139705;0.0078949406743049;-0.0030594393610954
1768216543352872400;23.90787255859375;0.011083704072237;-0.0080722838291898;-0.0225196556482464;0.0015246596885845;0.0097170760855078;-0.0051833102479577
1768216543362873300;23.917873291015624;-0.034179917499423;-0.0193016434498131;-0.0215773332968354;-0.0010165285784751;0.0147746847942471;-0.0060632186941802
1768216543372873200;23.927873291015626;-0.0347521644294261;-0.0006980652667582;0.0127284756045788;-0.0007510114228352;0.0179465096443891;-0.0065934541635215
1768216543382874400;23.937874267578124;-0.0076747724115848;0.0004523834099993;-0.00987520506531;-0.0022671490442007;0.0194341521710157;-0.0090222572907805
1768216543392875500;23.94787548828125;-0.0157633863210678;-0.0163115217231214;0.0007015723980963;-0.0033366745337843;0.0152013236656785;-0.0103604951873421
1768216543402875000;23.957875;-0.0039209728360176;0.0100004388801753;0.0023735972635447;-0.0018591526895761;0.0116068553179502;-0.0117117837071418
1768216543412875800;23.967875732421874;-0.018234160348773;-0.0071769789572805;0.0074603990085422;-0.0025124261155724;0.0109288142994046;-0.010685933753848
1768216543422877000;23.977876953125;-0.0084393270432949;0.0166369542852044;0.0175755503095686;-0.0032823460642248;0.0097029609605669;-0.0074597806669771
1768216543432878000;23.987878173828125;-0.0162520466208457;0.0099138200426474;0.0082834788944572;-0.0022114890161901;0.005005411338061;-0.0083359600976109
1768216543442878000;23.9978779296875;0.0020247838258743;-0.0082203139977529;0.0234552559979259;-0.0021033645607531;-0.0004127899592276;-0.0091402353718876
1768216543452878800;24.00787890625;-0.0046925417304039;-0.004206000322476;0.0190591399308294;-0.0023486416321247;0.0027827369049191;-0.0051399008370935
1768216543462880000;24.0178798828125;-0.0329547596186399;-0.0024206147430464;0.0328689079660922;-0.0016604809788987;0.0020509003661572;-0.003490338800475
1768216543472879900;24.0278798828125;-0.0178185652852058;0.0086215882750228;0.0181479433700442;-0.0036993969697505;0.0034498588647693;-0.0016074840677902
1768216543482880800;24.037880859375;-0.0049421325773;-0.0056575873702764;0.0106225163012743;-0.0024671524297446;0.0051295147277414;-0.0002311623829882
1768216543492882000;24.0478818359375;0.0272276141434907;-0.0057069429373368;0.0200591107536107;-0.0015379755059257;0.0041891522705554;-0.004046939779073
1768216543502882000;24.057882080078127;0.0224140763819217;-0.0148925583032891;0.0263520734179764;-0.0037553233560174;0.0056192697957158;-0.0044288369826972
1768216543512883000;24.067883056640625;0.0167208331763744;-0.0176756862157955;0.0070235419612377;-0.0009928264189511;0.0020881847012788;-0.0046850331127643
1768216543522883800;24.0778837890625;0.0219780230522155;-0.0096926515726372;0.0015726561442017;-0.0030096382834017;-0.000532632227987;-0.005641374271363
1768216543532884700;24.087884765625;0.0275660523176193;-0.0138195222442969;-0.0140443805087357;3.9947417462e-06;-0.0040730386972427;-0.004710332956165
1768216543542884900;24.097884765625;0.0300233823418617;-0.0169822971241548;-0.0066882455922663;-0.001104412949644;-0.0033356093335896;-0.0040866206400096
1768216543552886000;24.107885986328125;0.0217161572456359;-0.0156859006380662;0.0119950467634946;-0.0021784657146781;-0.0041465419344604;-0.0047031426802277
1768216543562887000;24.117886962890623;-0.0076999068528413;-0.0166023944284766;0.0048327539186924;-0.003139600623399;-0.0018839201657101;-0.005046157632023
1768216543572887000;24.127886962890624;-0.0057043491214513;-0.0188420996466651;0.0144454355902969;-0.0039452067576348;-0.0017656758427619;-0.0045321676880121
1768216543582888000;24.13788793945313;-0.0345493353337049;-0.0143073422938585;0.0140176386322826;-0.0039518647827208;0.0006860303110443;-0.0037457360886037
1768216543592888800;24.147888916015624;-0.0267535668909549;-0.0072286726118996;0.0124904290650039;-0.0026370619889348;0.0048091360367834;-0.0041500041261315
1768216543602888700;24.157888671875;-0.0285860430151224;-0.0034892303552478;0.0106380791965872;-0.0042016692459583;0.0096531603485345;-0.0043129893019795
1768216543612890000;24.16789013671875;-0.0122013099253177;-0.0056520344123244;0.0016270166799426;-0.0028418591246008;0.0104526411741971;-0.0074469973333179
1768216543622891000;24.17789111328125;0.0185515557348728;-0.0053422012781724;-0.0128482295267283;-0.0013672668719664;0.0077351513318717;-0.0082384888082742
1768216543632892000;24.187891845703124;0.0276391175538301;-0.0075522785430774;-0.0098214290514588;0.0002324939559912;0.0059439092874526;-0.0060736052691936
1768216543642891800;24.19789184570313;0.0207137022048234;-0.0099812957882881;-0.0040804742466658;0.0010884338989853;0.009090700186789;-0.0054653389379382
1768216543652893000;24.207892822265624;0.0201999074637889;-0.0368345601940527;-0.0080365914613008;-0.0006157228490337;0.0108553105965256;-0.0024549018125981
1768216543662894000;24.21789404296875;-0.0053080432802438;-0.0432821654308587;-0.0024944471642374;-0.0006522081675939;0.0106430565938353;-0.0021776668727397
1768216543672894000;24.22789404296875;-0.0295902516216039;-0.0179134039618074;-0.0044261458791792;-0.0007374293054454;0.007767641916871;0.0011302455095574
1768216543682894800;24.237894775390625;-0.0201525611907243;-0.0068389791745692;0.0210541131403297;0.0017779263434931;0.0059585566632449;0.0031193606555461
1768216543692896000;24.24789599609375;-0.0287923792421817;-0.020679580739513;0.0094379096265882;0.0025643578264862;0.00159443449229;0.0011981561547145
1768216543702895900;24.257895751953125;-0.0058148237586021;-0.0292675590058788;0.008031476894766;0.0008964200387708;-0.0044538704678416;0.0029225528705865
1768216543712896800;24.267896728515623;0.0226157364338636;0.0044016324924305;0.0353073871593922;0.0026831347495317;-0.0080134514719247;0.0039121834561228
1768216543722898000;24.27789794921875;0.0685872140139341;0.0019962153185158;0.0325390184246003;0.0006255765329115;-0.0102963130921125;0.0066272765398025
1768216543732899000;24.287899169921875;0.0517155741900205;-0.008819558532536;0.0301332724571228;-0.0007504787645302;-0.0057439059019088;0.0095405085012316
1768216543742899000;24.29789892578125;0.0214864401429891;-0.001126044887863;0.0156278503078967;-0.0002809634897857;-0.001757686259225;0.0094233294948935
1768216543752899800;24.30789990234375;-0.0051841246396303;-0.0125638230947777;0.0278782600719481;-0.002397111384198;0.0009116000146605;0.0111336112022399
1768216543762900700;24.317900634765625;-0.0179781397610902;-0.016172770839557;0.0022379881851375;-0.0014045510906726;0.0039081890136003;0.0078885490074753
1768216543772900900;24.32790087890625;-0.0276712662577629;0.0083613299036398;0.0072310472320765;-0.0013717942638322;0.0070872041396796;0.0063801351934671
1768216543782902000;24.337902099609376;-0.0171978030383586;0.0002061535639688;0.0079527125701308;-0.0011765845119953;0.0092092109844088;0.0035553199704736
1768216543792903000;24.34790283203125;0.0049164136141538;-0.0008966200461611;-0.0197745216585695;-0.0007930893916636;0.0109969908371567;0.0011792477453127
1768216543802903000;24.357903076171876;-0.0014367548048496;0.0018404037022963;-0.0176882899690419;-0.0003757720405701;0.011928298510611;-0.0045979474671185
1768216543812904000;24.367904052734374;-0.0181441439777612;0.0039230917278677;-0.0104003249179571;-0.0021539647132158;0.0149009190499782;-0.0040530646219849
1768216543822904800;24.37790478515625;-0.0075011694103479;0.0189128267953172;-0.0233532569281756;-0.0022335932590067;0.0173190683126449;-0.0035473306197673
1768216543832906000;24.387906005859374;-0.0233522340148687;0.0295921878503635;-0.0075908204551786;-0.0011595403775572;0.0209681317210197;0.0001635180960875
1768216543842906000;24.397906005859376;-0.0292027136087417;0.0190562173213809;-0.0074940090171992;-0.0021752698812633;0.0230786874890327;-0.0022836606949567
1768216543852907000;24.40790698242187;-0.0339028541237115;-0.0011325842265039;-0.0165041947510093;-0.0023204123135656;0.0249831136316061;-0.0066696205176413
1768216543862908000;24.417907958984376;-0.0330769246935844;-0.025874336371012;-0.0022341887928545;-0.0025369273498654;0.0233215671032667;-0.0062720105051994
1768216543872907800;24.42790771484375;-0.0561819059491157;-0.0203910095890983;0.0077302289258688;-0.0032045817933976;0.0236017331480979;-0.0085034733638167
1768216543882909000;24.437908935546876;-0.0683814623087644;-0.0227506148599088;0.0173250096146017;-0.0022873890120536;0.026391128078103;-0.0119405491277575
1768216543892910000;24.44791015625;-0.0650403351873159;-0.0163020232424139;0.0164655432410538;-0.0024362597614526;0.0255698077380657;-0.0127347037196159
1768216543902910000;24.457909912109375;-0.040744682842493;-0.0087823683273047;0.011084069398418;-0.0022391858510673;0.0243479497730731;-0.0125155253335833
1768216543912910800;24.467910888671874;-0.013746785801649;0.0003967442326247;0.0089287910606712;-0.0016562198288738;0.025192704051733;-0.0096188047900795
1768216543922912000;24.477912109375;0.0002513444125652;-0.0012853271028026;0.0220472888961434;0.0004101268132217;0.0234746988862752;-0.0078241005539894
1768216543932913000;24.487912841796874;0.0337216523379087;0.0121405927140265;0.0234649006091058;-0.0024655545130372;0.0227101054042577;-0.0070925303734838
1768216543942912800;24.497912841796875;0.036518589580059;0.0084240929415449;0.021435440608114;0.0003603257064241;0.0208304468542337;-0.0080139841884374
1768216543952914000;24.507913818359373;0.0204518363982439;-0.0060179816478863;0.0050707273930311;-0.0026282735634595;0.0224573723971843;-0.0118294954299926
1768216543962914800;24.517914794921875;-0.0014665654212236;-0.0188389943741261;0.0021796821266412;-0.0013198626693338;0.0219577625393867;-0.0146138304844498
1768216543972915000;24.5279150390625;-0.0289683203309774;-0.0108686000168323;0.0028862960260361;-0.0017321199411526;0.0270475968718528;-0.0183284077793359
1768216543982915800;24.537915771484375;-0.0397907431185245;-0.0165205978965386;0.0234049871154129;-0.0029856697656214;0.0326082780957222;-0.0234312899410724
1768216543992916700;24.547916748046877;-0.0244791922181844;-0.0279623581588268;0.0261877497017383;-0.0034988611005246;0.0321864336729049;-0.0278819650411605
1768216544002916900;24.557916748046875;-0.0262029472708702;-0.0354294791691005;0.0476296200506389;-0.0027856663800776;0.0230488609522581;-0.0328013561666011
1768216544012918000;24.56791796875;-0.031900866651535;-0.028384565626271;0.0662424775186926;-0.0033382724504917;0.0124689200893044;-0.0393484719097614
1768216544022919000;24.5779189453125;-0.0276139831125736;-0.0134490449640899;0.0607490677341818;-0.0021819279063493;-0.0027854002546519;-0.0474806986749172
1768216544032919800;24.587919921875;0.0182633864432573;0.0110951753143221;0.081690002823621;-0.0024716798216104;-0.0215194076299667;-0.0547372810542583
1768216544042920000;24.597919921875;0.0316816709429025;0.0321122078472748;0.077053940520808;-0.0010410296963527;-0.0389884114265441;-0.0607701390981674
1768216544052920800;24.6079208984375;0.0138052379906177;0.0216660710262134;0.0419671373095363;0.0016136092599481;-0.050211239606142;-0.0555735118687152
1768216544062922000;24.617921875;0.0048725744724273;0.0060522127110511;0.0391880279850214;0.0016546220285817;-0.0549588575959205;-0.0439101979136467
1768216544072922000;24.627922119140624;0.0427449167490005;-0.0038423181092366;0.0145080524977296;0.0015747271245345;-0.0590193793177604;-0.0288228597491979
1768216544082923000;24.63792309570313;0.0453735116869211;-0.0458412022639065;-0.019971870861575;-0.0003475425182841;-0.0549000017344951;-0.0134596163406968
1768216544092924000;24.647923828125;0.0300391644328832;-0.0231939381806179;-0.0302556567277759;0.0026341325137764;-0.0442508198320865;0.001644235686399
1768216544102923800;24.657923828125;0.0311485869795083;-0.0077156889438629;-0.0674828329686075;0.0044884914532303;-0.0414917841553688;0.005323392804712
1768216544112925000;24.667925048828124;0.010389876589179;-0.0187877756435424;-0.0628909751337021;0.0054640076123178;-0.0404510200023651;0.0025161546654999
1768216544122926000;24.677926025390622;-0.0576624998956918;-0.0327544147409498;-0.0601886573724448;0.0020133496727794;-0.0467384755611419;-0.0042698462493717
1768216544132927000;24.687927001953124;-0.0845113438546657;-0.0122388654567301;-0.018585238808766;-0.000129163308884;-0.0552491396665573;-0.0114076500758528
1768216544142926800;24.6979267578125;-0.1014589715242385;0.0316639891557395;-0.0046782209441065;-0.0005496764206327;-0.0609432458877563;-0.0214504301548004
1768216544152928000;24.707927978515624;-0.0576981557309627;0.0616603738928213;0.0197710145272314;-0.0002591255761217;-0.0574225448071956;-0.0299637578427791
1768216544162929000;24.71792895507813;-0.0091734865367412;0.074988715086691;0.0425586734618991;0.0046749128960072;-0.0596872977912426;-0.0278974119573831
1768216544172928800;24.7279287109375;0.0477799883067607;0.031798977179639;-0.0204892457991838;0.0022716764360666;-0.0673055350780487;-0.0203657262027263
1768216544182930000;24.737929931640625;0.1193967792749404;0.0864083000497892;-0.0017897329609841;0.0106973852962255;-0.077611967921257;-0.0071300812996923
1768216544192930800;24.747930908203124;0.1459498551577329;0.0720194169523194;-0.0654537382937967;0.0100510362535715;-0.0809632912278175;0.0066600330173969
1768216544202931000;24.757930908203125;0.1142886424809694;0.0306832344900816;-0.0719018184546381;0.0110135022550821;-0.0675838366150856;0.0092912362888455
1768216544212931800;24.767931884765623;0.0542559063225984;0.0186038339113816;-0.0425165878858417;0.0124974157661199;-0.0684381797909736;0.0057742656208574
1768216544222932700;24.7779326171875;0.0065840545654296;0.0565757641049101;-0.0589167377404868;0.014430871233344;-0.0528570897877216;0.0034333472140133
1768216544232934000;24.787933837890623;-0.0760825382053852;0.0912712664436549;-0.0064841743875294;0.0142029039561748;-0.0422127023339271;0.010439857840538
1768216544242934000;24.79793408203125;-0.0534516042023897;0.1278940105179324;0.0332449016716331;0.0133600141853094;-0.0336410515010356;0.0186951234936714
1768216544252935000;24.807934814453127;-0.0323871888637542;0.0955770373461768;0.0335330709632486;0.0096579538658261;-0.0236129183322191;0.0167363695800304
1768216544262935800;24.817935791015625;-0.0120323830991983;0.0592534954141825;0.0750858553182333;0.0112992599606513;-0.0150085100904107;0.0108076399192214
1768216544272936000;24.82793603515625;-0.0097860654771327;0.0170596732093021;0.0278417274538427;0.0110539821907877;0.0031941954512149;0.0029995182994753
1768216544282936800;24.837936767578125;-0.0387000252723693;-0.0179806239791214;-0.0239542184960097;0.0129347071051597;0.0175257306545972;0.0002836266648955
1768216544292938000;24.84793798828125;-0.0391582904338836;-0.0253868816476315;-0.0370754197452217;0.018473282456398;0.0253080204129219;-0.0042373556643724
1768216544302938000;24.857938232421876;-0.0326303499698638;-0.0359491921942681;-0.0333950507320463;0.0200120583176612;0.0252094827592372;-0.004880775231868
1768216544312939000;24.86793896484375;-0.057656654676795;-0.0725217039186507;-0.0060209407899528;0.0207574758678674;0.0242571365088224;-0.0013100089272484
1768216544322940000;24.87793994140625;-0.0558674331724643;-0.0660400868143886;0.0135852385643869;0.0202735792845487;0.0236850883811712;0.0059540290385484
1768216544332940800;24.88794091796875;-0.0272808056354522;-0.0784712599728256;0.0036976854741573;0.0162753760814666;0.0282875634729862;0.0086020100861787
1768216544342941000;24.89794091796875;-0.0260877964586019;-0.1051275405017659;-0.0127928460776805;0.0175204034894704;0.0265442598611116;0.0093690007925033
1768216544352942000;24.90794213867187;-0.0296399359822273;-0.1119090173354372;-0.0251351719088852;0.0114936707541346;0.0179691463708877;0.0065678879618644
1768216544362943000;24.91794287109375;-0.0665425564438104;-0.1355719612672924;-0.0324910145644098;0.0096728671342134;0.0202554706484079;0.0047643953002989
1768216544372942800;24.92794287109375;-0.0541015925437212;-0.1407269328776746;-0.0049571840159595;0.0057268617674708;0.0233002621680498;0.00360565376468
1768216544382943700;24.93794384765625;0.0165028065115213;-0.1341272423516958;0.0386017525296658;0.0050594732165336;0.028399683535099;0.0025134913157671
1768216544392945000;24.94794482421875;0.0875128637582063;-0.1105760151660069;0.01765921000503;0.0028972530271857;0.0323209203779697;-0.0004775047709699
1768216544402945000;24.957945068359376;0.1698451100081205;-0.1027411202892661;-0.0370745429623872;-0.0012237224727869;0.0336178801953792;-0.0091993575915694
1768216544412946000;24.96794580078125;0.2193172891855239;-0.1156890473308041;-0.1535928441915661;-0.004373709205538;0.0359872952103614;-0.0229244902729988
1768216544422946800;24.97794677734375;0.1665466529846191;-0.0719722533423453;-0.2512235626645386;-0.0065258098766207;0.0316090583801269;-0.0312061216682195
1768216544432948200;24.9879482421875;0.0762643245130777;-0.0226021828325465;-0.316299407556653;-0.0085942866280674;0.0222035720944404;-0.0277765039354562
1768216544442948000;24.997947998046875;0.0267997441202402;0.0002561667181551;-0.3241403303153812;-0.0114537235349416;0.0133512252941727;-0.0226067751646041
1768216544452949000;25.007948974609373;0.0089893621414899;-0.0123015919620171;-0.2473856650020927;-0.0114068519324064;0.0108617022633552;-0.020478643476963
1768216544462950000;25.017949951171875;0.04565525123775;-0.0119728714643046;-0.1529655791386961;-0.0118148475885391;0.0073780212551355;-0.0268169660121202
1768216544472950000;25.027949951171873;0.0421779305160045;-0.0217251077370718;-0.0737248691633343;-0.0071207601577043;0.0151930674910545;-0.0277160499244928
1768216544482951000;25.037950927734375;0.0369949749201536;0.0150465432886034;-0.0017509353205561;-0.0036738307680934;0.018742261454463;-0.0240829661488533
1768216544492952000;25.0479521484375;0.1069797807723283;0.0626005773523822;0.0301024389274418;-0.002190982690081;0.0061266021803021;-0.0235260985791683
1768216544502952200;25.0579521484375;0.1357142923474311;0.0862881442688405;0.0176371443036943;-3.16916157316e-05;-0.0149262184277176;-0.02133777923882
1768216544512953000;25.067953125;0.0954588543266058;0.1040408047109842;0.047808849075064;-0.0001653822982916;-0.0195694398134946;-0.0133349802345037
1768216544522954000;25.0779541015625;-0.0312859496235847;0.069753737042658;0.0526094542898237;0.0031603733077645;-0.0108593059703707;-0.0198003370314836
1768216544532955000;25.087954833984377;-0.1243792438626289;0.0390907050903886;0.0584313653763383;0.0029481193050742;-0.0001699096756055;-0.0310769584029912
1768216544542955000;25.097955078125;-0.1159878476142883;0.0027521847849711;0.1309584761224687;0.0004295678809285;0.0008458199445158;-0.0410912446677684
1768216544552956200;25.1079560546875;-0.1119359418749809;-0.019752492489852;0.1365329883191734;0.0005624596378766;-0.003107908880338;-0.0433261692523956
1768216544562957000;25.11795703125;-0.1053320135653018;-0.0569612928237766;0.1421365074146539;-0.0007784419576637;-0.0025137576740235;-0.0338708832859993
1768216544572957000;25.12795703125;-0.0694493838012218;-0.1119882931167259;0.154747932510823;-0.002403502818197;-0.0081367557868361;-0.020002469420433
1768216544582958000;25.1379580078125;-0.0771358466506004;-0.1135526563566178;0.1126492777761071;-0.0045129926875233;-0.0169560797512531;-0.0053668022155761
1768216544592959000;25.147958984375;-0.0653092152565717;-0.1046237556980922;0.099134693295136;-0.0070983893238008;-0.037851508706808;0.0013419669121503
1768216544602959000;25.157958984375;-0.0091249712198972;-0.0580431332437321;0.1539630657434463;-0.0064877266995608;-0.0510354861617088;0.01111869700253
1768216544612960000;25.1679599609375;0.0039005145698785;-0.051739649185352;0.1647079663153737;-0.0081804320216178;-0.0466396734118461;0.0135730663314461
1768216544622961200;25.177961181640622;-0.0053425300717353;-0.0788852841338142;0.1664931692317128;-0.0087610008195042;-0.036289032548666;0.0036898097023367
1768216544632962000;25.187962158203124;-0.0181751236379146;-0.0453327412851154;0.1600767263181507;-0.0080110551789402;-0.0294034294784069;-0.0133048864081501
1768216544642962000;25.1979619140625;-0.0148170453816652;0.0205037857811897;0.1422002203006297;-0.0117418775334954;-0.0254723373800516;-0.0223388615995645
1768216544652962800;25.207962890625;-0.0155196406930685;0.0551711214713752;0.1063596030473709;-0.0083484770730137;-0.0279581304639577;-0.0167909637093544
1768216544662964200;25.21796411132813;0.0142407067984342;0.0763267587574198;0.0604799684692174;-0.0119815617799758;-0.0374847911298275;-0.0075942701660096
1768216544672964000;25.227964111328124;0.0694371088415384;0.0683969886714592;0.0548377978637814;-0.010733338072896;-0.0494767390191555;-0.0026029737200587
1768216544682965000;25.237965087890625;0.0501899720579385;0.0826734974356368;0.0321616364795714;-0.009506419301033;-0.0505236275494098;0.0003925499331671
1768216544692966000;25.2479658203125;-0.0218511818021535;0.0992786318104714;0.0499093284856528;-0.0089596724137663;-0.0522802472114563;0.0047385622747242
1768216544702967000;25.257967041015625;-0.0621533815741539;0.1416631908144801;0.0848048469085246;-0.0065945195965468;-0.0506868809461593;0.0050141997635364
1768216544712967000;25.267966796875;-0.0960766939640045;0.1488842646418139;0.0985019483495503;-0.0042725093662738;-0.0436984784901142;-0.0006418218254111
1768216544722968000;25.277968017578125;-0.0596007744818925;0.1421822462525218;0.0945979997135698;-0.0041057956404984;-0.0438726507127285;-0.0085756452754139
1768216544732969000;25.287968994140623;0.0250216285318136;0.089299345316179;0.0311488792404532;-0.0028589034918695;-0.0421168282628059;-0.0112965963780879
1768216544742969000;25.297968994140625;0.2036713917642831;0.0948765243940055;0.1538551483895629;0.0024240091443061;-0.0594199188053607;-0.0086952205747365
1768216544752970000;25.307969970703127;0.2109919439107179;0.03249178174939;0.0663962798409164;0.0067319385707378;-0.0681425705552101;-0.001472728094086
1768216544762971000;25.317970947265625;0.1709586242079734;0.0398810517504811;0.0162828070852905;0.0083095952868461;-0.0705601871013641;0.006949252448976
1768216544772971300;25.32797119140625;0.1702127742767334;-0.0274738439895212;-0.0771876499030739;0.0091045489534735;-0.074200727045536;0.0136162098497152
1768216544782972200;25.33797216796875;0.0766197138220071;-0.0698723949862644;-0.1320942752193659;0.0065084993839263;-0.0584161728620529;0.004628840368241
1768216544792973000;25.34797314453125;-0.0581441459327936;-0.0980742244567722;-0.1651988185722381;0.0004902879591099;-0.0519558750092983;-0.007005977910012
1768216544802973000;25.357972900390624;-0.1346498779863119;-0.0939882337847724;-0.1887784316021949;-0.0030858046375215;-0.0498061701655387;-0.0215468369424343
1768216544812974000;25.36797412109375;-0.163042444255948;-0.049483467756398;-0.1067340623829513;-0.0067074373364448;-0.0479408949613571;-0.0240904223173856
1768216544822975000;25.37797509765625;-0.1827367402851581;-0.0219905172076076;-0.0241012257512658;-0.0059809270314872;-0.045527271926403;-0.0127735855057835
1768216544832976100;25.38797607421875;-0.1244733518868684;-0.0194720315806567;-0.0309600786700844;-0.0052610747516155;-0.0389242283999919;-0.0049239182844758
1768216544842976000;25.39797607421875;-0.0256575883477926;-0.0750361344249919;-0.0262436446074396;-0.0030660973861813;-0.0401958897709846;-0.004114051349461
1768216544852977200;25.40797705078125;0.0447018960356712;-0.0954567354347556;-0.0115711953282356;-0.0038514635525643;-0.0380587019026279;-0.0103690177202224
1768216544862978000;25.41797802734375;0.0536889200896024;-0.0887606353295966;-0.0203444305010139;-0.0061468421481549;-0.0475398227572441;-0.0109186936169862
1768216544872978000;25.42797802734375;0.0353472077131271;-0.0588224470531567;-0.0620259558022022;-0.0009635316673666;-0.0380882620811462;-0.0162721797823905
1768216544882979000;25.43797900390625;-0.0820627816587686;-0.0593702171290293;-0.0930143837839364;0.0036935380194336;-0.0246203914284706;-0.0176170766353607
1768216544892980200;25.447980224609378;-0.0428635746926069;-0.0759744381884112;-0.0494292168185114;0.0056954361498355;-0.0262206848710775;-0.0238379538059234
1768216544902981000;25.457981201171876;-0.0523415971338748;-0.0636269977906718;-0.0417340592060238;0.009361277334392;-0.0198309626430273;-0.0270222965627908
1768216544912981000;25.46798095703125;-0.0581342090606689;-0.0622741949422284;-0.0394132150430232;0.0079186428338289;-0.0131917018443346;-0.0212211329489946
1768216544922982000;25.47798193359375;-0.0236550163537263;-0.0323384178185835;-0.049077992228046;0.0097964378073811;-0.0148143656551837;-0.0142939845100045
1768216544932983000;25.48798315429687;-0.001967500680685;-0.0070058967066928;-0.0537373623412102;0.0104957837611436;-0.024604145437479;-0.0103804692625999
1768216544942983200;25.497983154296875;0.0067927288800477;-0.0224764740936458;-0.0501667373128235;0.0096435723826289;-0.0317038670182228;-0.0061891861259937
1768216544952984000;25.507984130859377;-0.0121031102478504;-0.0152130954945459;-0.0494059820733964;0.0092624742537736;-0.0239412859082222;-0.0024064322933554
1768216544962985000;25.51798486328125;-0.0493295558363199;-0.0590116129497066;-0.0289944046203047;0.009932791814208;-0.0126425586640834;-0.0046863644383847
1768216544972985000;25.527985107421873;-0.0642225890636444;-0.0775368286669254;0.0129367845930159;0.0044341632165014;-0.0022261363919824;-0.0122002074494957
1768216544982986000;25.537986083984375;-0.0435854592263698;-0.0624941943684592;0.0660498775560408;-0.0006519418093375;-0.0089942943304777;-0.0238667167723178
1768216544992987100;25.547987060546873;0.0372726228177547;-0.0298117854177951;0.1465018630173057;-0.0040751690976321;-0.0319443494081497;-0.0310612469911575
1768216545002987300;25.5579873046875;0.0141173726797103;0.0130094845030456;0.187914142923057;-0.0079410141333937;-0.0474676489830017;-0.0277381539344787
1768216545012988200;25.56798828125;-0.0259358207672834;0.0598526668837293;0.222244794004783;-0.0056954361498355;-0.0595237798988819;-0.014299577102065
1768216545022989000;25.577989013671875;0.0206342072278261;0.0810152088345959;0.2237262647341936;-0.0016397082945331;-0.0670275017619133;-0.0054797204211354
1768216545032990000;25.587989990234377;0.0903255830913782;0.056572256973572;0.1519957111932337;-0.0009640643256716;-0.0736169591546058;-0.0048584048636257
1768216545042990000;25.597989990234375;0.123394324478507;0.0307881196366623;0.0949048006404191;-0.0010247844038531;-0.0760550871491432;-0.0042794337496161
1768216545052991200;25.6079912109375;0.0992646763503551;0.0299451294738799;0.0332144334681332;-0.0036328181158751;-0.0725037604570388;-0.0090771177783608
1768216545062992100;25.6179921875;0.1341805069088935;0.0210226585561409;0.000211085467413;-0.0015792545164003;-0.0732832700014114;-0.021222997456789
1768216545072992000;25.627991943359376;0.0609942746669054;0.0370115972613915;-0.0354505219571292;-0.0009558085002936;-0.0687100887298584;-0.0226480551064014
1768216545082993200;25.6379931640625;-0.0523345828711986;0.0782634989736601;-0.0819292914722114;0.0001672465150477;-0.0543055832386016;-0.0145184891298413
1768216545092994000;25.647994140625;-0.0968605378180742;0.0723558458324521;-0.0850294494446367;-0.0026117621455341;-0.0512067265808582;-0.0056986319832503
1768216545102995000;25.65799487304687;0.0089186349928379;0.0708680549601092;-0.031489144045487;0.0030048445332795;-0.0740228295326232;-0.0106955207884311
1768216545112995000;25.6679951171875;0.139095751479268;0.0364868792675435;0.0391353479497134;0.0063471118919551;-0.1011252850294113;-0.0152029208838939
1768216545122996000;25.677995849609378;0.0252770645976066;0.0395106110028922;0.0670454644646495;0.0099453087896108;-0.10321906208992;-0.0220975782722234
1768216545132997000;25.6879970703125;0.0654863253891468;-0.0383403251145035;0.1229912235703319;0.0157970730215311;-0.0977950021624565;-0.0418025739490985
1768216545142997000;25.6979970703125;-0.0799789611220359;-0.0410635760659351;0.1347783997368067;0.0109977899119257;-0.0917882397770881;-0.0510602556169033
1768216545152998000;25.707997802734376;0.0435685080915689;0.0010161182399839;0.1242748336400836;0.0188410654664039;-0.1181013360619545;-0.0637968257069587
1768216545162999000;25.7179990234375;-0.0387888725996017;-0.0338782311391085;0.029932343057543;0.0162985455244779;-0.1375962048768997;-0.0570856556296348
1768216545172999200;25.727999267578124;0.1771224075347185;-0.037967619344592;0.1156036706022918;0.0141815990209579;-0.1892823129892349;-0.0670168474316597
1768216545183000000;25.738;0.1506856515079736;-0.0975558631384745;0.0401366704793646;0.0091386372223496;-0.1890492886304855;-0.0742231011390686
1768216545193001000;25.7480009765625;-0.006311082842946;-0.1160355592135339;0.0329774463744834;0.000705471378751;-0.1818382441997528;-0.0692397877573967
1768216545203001000;25.7580009765625;-0.0717874713599681;-0.1356349069682881;-0.0485629188453778;-0.0083396891131997;-0.1625388413667678;-0.0521968901157379
1768216545213002000;25.768001953125;-0.1643809993833303;-0.0774170016795396;-0.1100139608364552;-0.0135166076943278;-0.124650053679943;-0.0192559864372015
1768216545223003100;25.778003173828125;-0.1774848111063242;-0.0033273908570408;-0.1385669418321922;-0.020471453666687;-0.1155148744583129;-0.0028932581190019
1768216545233004000;25.788004150390623;-0.7130997542828321;0.0763130224930122;-0.2649411954369395;-0.0220126248896121;0.052304483950138;0.075258269906044
1768216545243004200;25.798004150390625;-0.2967062338143587;0.017222864414379;-0.4191714607492089;-0.0254773963242769;0.0680024847388267;0.0443791821599006
1768216545253005000;25.808005126953127;0.0123223059564828;-0.0231685114784166;-0.047748899048753;-0.0163624621927738;0.0876907035708427;0.0503204278647899
1768216545263006000;25.818005859375;-0.4077250608444213;0.0045465573884546;-0.0451490187486633;-0.0093610109761357;0.1292219012975692;0.079227976500988
1768216545273006000;25.828006103515627;-0.3295505187958478;0.0280750978183001;-0.0914583499809727;-0.0102845951914787;0.1403131633996963;0.0884193480014801
1768216545283007200;25.83800732421875;0.0773702399283647;-0.0223453585272654;0.0132496499344706;-0.0025228124577552;0.1183836311101913;0.0774553790688514
1768216545293008100;25.848008056640627;0.1437163970172405;-0.0467395393431186;-0.035476460115984;-0.003738012863323;0.0606806576251983;0.0586068555712699
1768216545303009000;25.858009033203125;0.3573796059638262;-0.0722625049931928;-0.0479821963479742;-0.0121562648564577;-0.0049436260014772;0.0253676753491163
1768216545313009000;25.8680087890625;0.2260626717925071;-0.0976271748090162;-0.0204671070326119;-0.0209915675222873;-0.0007502124644815;0.0245532803237438
1768216545323010000;25.878010009765624;-0.131299983036518;0.010064444027096;-0.0405202995020896;-0.0270846150815486;0.0355004705488681;0.0345039144158363
1768216545333011200;25.88801123046875;0.0149526544600725;0.0502842992778867;0.0454344480939209;-0.0230944007635116;0.0310010593384504;0.0450316555798053
1768216545343011000;25.898010986328124;0.0613216069251298;0.0555260723888874;0.0910450930049642;-0.0173241291195154;0.0236989371478557;0.0406198650598526
1768216545353012000;25.908011962890622;0.1196720890849828;-0.008316358250752;0.12490293894317;-0.0178200099617242;0.0022929816041141;0.0263381302356719
1768216545363013000;25.91801318359375;0.249655144304037;-0.0435849843023344;0.0970396937772631;-0.0183939207345247;-0.0408526249229908;0.0076251626014709
1768216545373013000;25.92801293945313;0.1954015760689973;-0.0621622590003535;0.0602599325103685;-0.0232033226639032;-0.0562398359179496;-0.0023198795970529
1768216545383014000;25.938013916015624;0.0291992064774036;-0.031640608280152;0.0077209131082519;-0.0272105820477008;-0.048845037817955;-0.0047790426760911
1768216545393015000;25.94801513671875;0.0164694887638092;-0.0159974508052691;0.0486413909090682;-0.0263138953596353;-0.0501928627490997;-0.0095058875158429
1768216545403015200;25.95801513671875;0.0502776503413915;-0.0116577776331454;0.0912993600269779;-0.0238137207925319;-0.0564305186271667;-0.0178895182907581
1768216545413016600;25.9680166015625;0.0643126054346561;0.0396535631375387;0.0965250953186303;-0.017377657815814;-0.0612084977328777;-0.0224581714719533
1768216545423017700;25.978017822265624;0.0379518372535705;0.044111273198761;0.0962749564824625;-0.0172940362244844;-0.0581778176128864;-0.0176421105861663
1768216545433018600;25.9880185546875;-0.0859925223231315;0.0192640879184007;0.0138910896431654;-0.0159139856696128;-0.0383130349218845;-0.0077159767970442
1768216545443018800;25.998018798828124;-0.0899614259541034;0.0061608241846784;0.0248702738950029;-0.0149701610207557;-0.0391474030911922;-0.003149454249069
1768216545453019600;26.00801953125;-0.0623123715281486;-0.0134654846422374;-0.0021404095621779;-0.0156564582139253;-0.0420808754861354;-3.08926682919e-05
1768216545463020500;26.0180205078125;-0.1431400584340095;0.0363043623074889;-0.0057053355021402;-0.0142351286485791;-0.0312804244458675;0.0092030856758356
1768216545473020700;26.028020751953125;-0.0583300238937139;0.0204732445124536;0.00439662752375;-0.0106550408527255;-0.027567446231842;0.0080786990001797
1768216545483021800;26.038021728515623;-0.0169850370705127;-0.0016494111748412;0.0066766647523269;-0.0083700492978096;-0.0175635479390621;0.0058251321315765
1768216545493022700;26.048022705078125;0.0490092378407716;0.0094761227451264;0.0405280078845098;-0.010137322358787;-0.0233508627861738;-0.0033617082517594
1768216545503023600;26.058023681640623;0.0087122987657785;-0.0025059184063225;0.0194072227161377;-0.0074717649258673;-0.0160535350441932;-0.011765313334763
1768216545513023500;26.0680234375;0.0051759413331747;-0.0266768118603155;-0.0299227715115994;-0.0056011602282524;-0.0113384081050753;-0.0122654549777507
1768216545523024600;26.078024658203127;0.0537152235746383;-0.004099946132116;-0.0334895240824669;-0.0040293629281222;-0.0145128965377807;-0.007807589136064
1768216545533025800;26.08802587890625;0.0198579621583223;-0.01548413098827;-0.0645172611612826;-0.0039361519739031;-0.0226190257817506;-0.0042647859081625
1768216545543025700;26.098025634765627;0.0099830493539571;0.0164232384692877;-0.0511470535870641;-0.0012506204657256;-0.0254718046635389;-0.0050679952837526
1768216545553026600;26.108026611328125;0.0071370122730731;0.0023659254137426;-0.016997604291141;0.0006508765509352;-0.0284540113061666;-0.0095367794856429
1768216545563027700;26.11802783203125;-0.0482698176503181;-0.0216431285420432;-0.0047038668420165;0.0021401161793619;-0.0194685067981481;-0.0095519600436091
1768216545573027600;26.128027587890625;-0.0950537806570529;-0.0169575645416975;-0.0104762396983802;0.0030738206114619;-0.0044962149113416;-0.0080110551789402
1768216545583028500;26.138028564453126;-0.0453670819461345;-0.0253397911028936;-0.0311235986687242;0.0017592841759324;0.00197100546211;-0.0068011805415153
1768216545593029600;26.148029541015624;-0.0562976412832736;-0.0073603727001696;-0.0272326191121712;-0.0003715109778568;0.00932053104043;-0.0016476977616548
1768216545603029800;26.15802978515625;-0.0655845250666141;0.0040390097251161;0.003357932125777;0.0006700513185933;0.0117448065429925;0.0012032161466777
1768216545613030700;26.16803076171875;-0.002142857247591;0.0020844781238585;0.0298972352115437;-0.0006511429091915;0.0069348714314401;-0.0023457121569663
1768216545623031600;26.178031494140622;-0.0060468789488077;0.0273537978064268;0.0513573353368788;0.001432248041965;0.0100688794627785;-0.001146490802057
1768216545633032400;26.188032470703124;-0.0055991351813077;0.0594211801312863;0.0559143775867298;0.0040096552111208;0.0056797238066792;-2.53000307566e-05
1768216545643032600;26.19803247070313;0.0418687184363603;0.0258177108129486;0.0570423952359706;0.0029558425303548;-0.0033651704434305;-0.0007824367494322
1768216545653033700;26.20803369140625;0.0100590371996164;0.0221122073585167;0.0171684308134019;0.0024804682470858;-0.0014948323369026;0.0017939052777364
1768216545663034600;26.21803466796875;-0.0195201085060834;0.0053023076592013;0.0209592013984918;0.0033465281594544;0.0020314592402428;-0.0001829591637942
1768216545673034800;26.22803466796875;0.0119271691590547;-0.0182580526810139;0.0416354211371392;0.0038091193418949;0.0043113916181027;-0.0012463594321161
1768216545683035600;26.23803564453125;0.0086310502231121;-0.0343747459517791;-0.0002315072009339;0.0057915765792131;0.0080784326419234;-0.0028727517928928
1768216545693036500;26.24803662109375;0.0009691372931003;-0.040173860684596;-0.0421430053330957;0.0057787932455539;0.0114950025454163;-0.003836017102003
1768216545703036700;26.25803662109375;0.000910100582242;-0.0447918758740648;-0.0648178150104358;0.007953530177474;0.0162663217633962;-0.0066608320921659
1768216545713037800;26.268037841796875;-0.0190846396982669;-0.0610553206717595;-0.069128517816402;0.0042970106005668;0.0213199350982904;-0.0075644426979124
1768216545723038700;26.278038818359377;-0.0112765962958335;-0.0802479507891461;-0.0495092232521623;0.0051787830889225;0.0298865269869565;-0.0060538975521922
1768216545733039600;26.28803955078125;0.0141489368617534;-0.0803730750061571;-0.0176715945625677;0.0051377704367041;0.03735376521945;-0.0053079463541507
1768216545743039500;26.29803955078125;0.038514147311449;-0.0746054879227653;-0.0046672611586749;0.0058403122238814;0.0331859178841114;-0.0055668056011199
1768216545753040600;26.30804052734375;0.059762102523446;-0.0797036513119936;0.0295661766262725;0.0059801279567182;0.0281184539198875;-0.0084864292293787
1768216545763041800;26.318041748046873;0.0039355858832597;-0.0437609253911301;0.0613132044229656;0.0077508641406893;0.0306407324969768;-0.0088709890842437
1768216545773041700;26.328041748046875;-0.0409673856824636;0.0042641237178817;0.0769608188772574;0.0083996104076504;0.0320032052695751;-0.0075388764962553
1768216545783042600;26.33804248046875;-0.0490168366253375;0.0175020832145586;0.0982376348575577;0.007432616315782;0.0199180487543344;-0.0007392935222014
1768216545793043700;26.348043701171875;-0.0637076252788305;0.0642240869009867;0.0989298914380371;0.0074185016565024;0.0133576169610023;0.0081628551706671
1768216545803043600;26.358043701171876;-0.1009048447728157;0.0903538228051736;0.0523751706099137;0.0029555761720985;0.0073753581382334;0.0162143893539905
1768216545813044500;26.36804443359375;-0.0850736539125442;0.090587521963194;0.034838417940773;-0.0028778119012713;-0.0007278419216163;0.0166407618671655
1768216545823045600;26.378045654296876;-0.0952460883587598;0.1152569395238533;0.0247343725556507;-0.0069990535266697;-0.0036125779151916;0.0180825982242822
1768216545833046800;26.388046875;-0.1104950954169034;0.1274698302891105;0.0237106555311009;-0.0111008547246456;-0.003050118451938;0.0184272099286317
1768216545843046700;26.398046630859376;-0.0961310544997453;0.1051030271150171;0.0583576790856197;-0.0132806515321135;-0.0020841897930949;0.0144372629001736
1768216545853047600;26.40804760742187;-0.0707113665610551;0.1086627288905903;0.0621115882590413;-0.0167129337787628;-0.0033553165849298;0.0111394701525568
1768216545863048400;26.41804833984375;-0.0331873993307352;0.1396134186778217;0.0681190119802951;-0.0184410586953163;-0.0079769659787416;0.0066025089472532
1768216545873048600;26.428048583984378;0.0035930560559034;0.116329464126192;0.0513783415922895;-0.0177433099597692;-0.0121650537475943;0.0033609091769903
1768216545883049700;26.4380498046875;0.0228624046713113;0.1081706710573285;0.0034307781662791;-0.0156154446303844;-0.012941631488502;0.0015571502735838
1768216545893050600;26.448050537109378;0.027029461222887;0.0746274074936285;-0.0554317817015573;-0.0161563325673341;-0.0127384318038821;0.0041337586008012
1768216545903050800;26.45805078125;-0.001575871014595;0.0517820270223543;-0.084615425283648;-0.0120494719594717;-0.0108150970190763;0.0055212653242051
1768216545913051600;26.4680517578125;0.0470323848098516;-3.01394099369e-05;-0.0973851462140679;-0.0076547237113118;-0.0081788338720798;0.008103466592729
1768216545923052500;26.478052490234376;0.0981733739823102;-0.0383791592875495;-0.1052479154784232;-0.0038826225791126;-0.0005920206895098;0.0118268318474292
1768216545933053700;26.4880537109375;0.0867237592071294;-0.0848861685164272;-0.0629363851780071;-0.0002340918581467;0.0123346969485282;0.0105112306773662
1768216545943053800;26.4980537109375;0.1218815818279981;-0.1396170719396323;-0.0343529359787702;0.0068906629458069;0.0222243461757898;0.0049588060937821
1768216545953054700;26.5080546875;0.1322889940738678;-0.1645144530372694;-0.0715748149899765;0.007970574311912;0.0218791998922824;0.0041188448667526
1768216545963055600;26.5180556640625;0.1485825417488813;-0.1444802940618246;-0.1014670087002217;0.0119634522125124;0.0088424934074282;0.0052091432735323
1768216545973055500;26.528055419921873;0.1233282735049724;-0.1625338006140664;-0.0851592498367652;0.0124750453978776;0.0040006004273891;0.005142830312252
1768216545983056600;26.538056640625;0.0403068759471178;-0.1598104400647804;-0.0454604227853938;0.0104177538305521;0.0123107284307479;0.0034634410403668
1768216545993057800;26.548057861328125;0.0257961200356483;-0.1624726084787398;0.011618468536064;0.01174081210047;0.0096257291734218;0.0021190773695707
1768216546003057700;26.5580576171875;0.0361135159105062;-0.1778661751067266;0.0182160767028108;0.0128156635910272;0.0116284266114234;-0.0029872676823288
1768216546013058600;26.56805859375;-0.0067389528661966;-0.1786393879689276;0.0302426145831123;0.0114337494596838;0.0165829714387655;-0.0071902684867382
1768216546023059700;26.578059814453123;-0.0654986003488302;-0.1288049513503909;0.0408006508134305;0.0093407714739441;0.0168615374714136;-0.0122516062110662
1768216546033060600;26.588060546875;-0.1040524951487779;-0.088255462286435;0.0138844407066702;0.0072659021243453;0.0128018148243427;-0.0107498494908213
1768216546043060700;26.598060791015627;-0.0828600695163011;-0.023176987045817;0.0324886034116148;0.0018061558948829;0.008797219954431;-0.0067167584784328
1768216546053061600;26.6080615234375;-0.1324234341084957;-7.98237705603e-05;0.0430446668805554;-0.0011717908782884;0.0116137787699699;-0.005363340023905
1768216546063062800;26.618062744140627;-0.171690445613861;0.0093802611552178;0.0549182426888495;-0.0033683660440146;0.0125959524884819;-0.0101173492148518
1768216546073062700;26.628062744140625;-0.1731225242435932;0.055505504524894;0.0853246329989284;-0.0056509613059461;0.0097181415185332;-0.016013054177165
1768216546083063600;26.6380634765625;-0.1305506259739398;0.0831565317122265;0.1098593913292512;-0.0019845876377075;0.004529770463705;-0.014549913816154
1768216546093064400;26.648064453125;-0.0900491042375564;0.0766963592547923;0.0811272178417071;-0.001571797649376;0.0058754659257829;-0.0111285513266921
1768216546103064800;26.65806494140625;-0.0606242723107337;0.0525748579004779;0.0418645171852782;-0.0020351877901703;0.0092409029603004;-0.0110635701566934
1768216546113065700;26.668065673828124;-0.02611000829041;0.0505359724840149;0.0197526386203244;-0.0014213290996849;0.0048320395871996;-0.0128641333431005
1768216546123066600;26.678066650390623;0.025776246291399;0.0713565325967967;0.0107885935831815;-0.0019329222850501;0.0012234562309458;-0.0129301799461245
1768216546133066800;26.688066650390624;0.0768061763048171;0.0681750530164688;0.0072825947562232;-0.002591788303107;-0.0045388252474367;-0.0055154063738882
1768216546143067600;26.69806762695313;0.1032090300619602;0.0530200078520923;-0.0278451249873265;-0.0037055222783237;-0.0088880341500043;0.000250603450695
1768216546153068800;26.70806884765625;0.1230617315232753;0.0292540419371798;-0.0431021692214533;-0.0057012951001524;-0.011418835259974;0.0017062872648239
1768216546163069700;26.71806958007813;0.0989145477384328;0.0365702832346782;-0.0099645638491958;-0.002959837205708;-0.0093335807323455;-0.0043516051955521
1768216546173069800;26.72806982421875;0.0509235470294952;0.0230402454562485;-0.0230467117296531;-0.0021318604703992;0.000258326617768;-0.0064299362711608
1768216546183070700;26.73807080078125;0.034161212798953;0.0202173335226252;-0.016245543814823;-0.0016828514635562;0.0014266553334891;-0.0072643044404685
1768216546193071600;26.748071533203124;0.0656026452451944;0.048252793450281;0.0019755743892863;0.0011278487509116;-0.0010072075529024;-0.0026620957069098
1768216546203071500;26.758071533203125;0.110238490307331;0.0359516398796811;-0.0021245544059202;-0.0008378304773941;-0.0010213222121819;0.0050147324800491
1768216546213073000;26.768072998046875;0.1156990938007831;0.0174955073432996;0.010498341932334;0.0007733819657005;-0.0025033713318407;0.004922320600599
1768216546223073800;26.77807373046875;0.0614729980945587;-0.0110696390142664;0.0003649973874911;-0.0006535397260449;-0.005175054538995;0.0053865094669163
1768216546233073700;26.78807373046875;0.0288362183839082;-0.0149115552647039;0.0090611852686852;-2.45010814978e-05;-0.0099570266902446;0.0132633410394191
1768216546243074600;26.798074462890625;-0.0047901568859815;-0.0250510007567703;0.0293286780759692;-0.0015014902455732;-0.0114446682855486;0.018600583076477
1768216546253075700;26.80807568359375;-0.0466413396656513;-0.01724193444103;0.0284695404959842;-0.0009355684742331;-0.0069037126377224;0.019352126866579
1768216546263076600;26.81807666015625;-0.0554459928900003;-0.0364728142095729;-0.003523278755322;-0.0022959110792726;-0.0076525933109223;0.015906261280179
1768216546273076700;26.82807666015625;-0.090448917210102;-0.0321491057915613;-0.0167911584662273;-0.0040272320620715;-0.0073212962597608;0.0124223148450255
1768216546283077600;26.83807763671875;-0.1409019241183996;-0.0183510281940922;-0.028403270326741;-0.0035963326226919;-0.0011709919199347;0.0090725906193256
1768216546293078800;26.848078857421875;-0.1296042850345373;-0.0160508980255573;0.0133550100050866;-0.0045747780241072;0.001743305241689;0.0037899445742368
1768216546303078700;26.85807861328125;-0.0786959355741739;0.0041503246124833;0.0616965046521276;-0.0002375539625063;0.0071569788269698;0.0015523566398769
1768216546313079600;26.86807958984375;-0.089167645227909;0.0025648820519447;0.0606562018189579;-0.0009888317435979;0.0078134480863809;-0.0002671150432433
1768216546323080700;26.878080810546876;0.0217260941177606;0.0164434775397181;0.0742531673537567;0.0023065637797117;-0.0007041397620923;-0.0038786276709288
1768216546333080800;26.88808081054687;0.064711833885312;-0.0047373307202011;0.04767298426833;0.0013832458062097;-0.0095935054123401;-0.0075729647651314
1768216546343081700;26.898081787109376;0.0700169545561075;-0.0321497999113053;-0.0031285438166931;0.0030975225381553;-0.0110646355897188;-0.0060610882937908
1768216546353082600;26.90808251953125;0.048833296751976;-0.0708359793214127;-0.0258019652545452;-3.9148468204e-05;-0.0101104248315095;-0.0066592344082891
1768216546363083500;26.91808349609375;0.0213712893307209;-0.0487821145540103;-0.032314342823252;-0.0027166905347257;-0.0100222742184996;-0.004422711674124
1768216546373083600;26.928083740234374;0.0201052149176597;-0.0149641987673938;-0.0477186135083436;-0.0022788669448345;-0.006614226847887;0.0009707222343422
1768216546383084800;26.938084716796876;-0.006165536892414;-0.0447244366610422;-0.0475459968877956;-0.0039007319137454;-0.0002559297718107;0.0013395700370892
1768216546393085700;26.948085693359378;-0.0094394439965486;-0.0576459506196901;-0.0173659626794978;-0.0037353497464209;0.0074869445525109;-0.0003949467791244
1768216546403085800;26.9580859375;0.0277875861138105;-0.0185936413109302;0.0071606854096055;-0.0012793826172128;0.0137123502790927;-0.0055399076081812
1768216546413087000;26.9680869140625;0.0525572857111692;-0.032457477620989;0.0087984426792711;0.0008383630774915;0.0162554029375314;-0.0069053103215992
1768216546423087900;26.978087890625;0.0584767388880252;-0.0381606942312791;-0.0133716688789427;0.0009432916413061;0.0117136472836136;-0.0082286354154348
1768216546433087700;26.988087646484377;0.0662199003607034;-0.0296397167865186;-0.0260386966198682;-0.0005467469454742;0.0080110551789402;-0.0045438855886459
1768216546443089000;26.9980888671875;0.0431704486846923;0.0174963841261342;-0.0279377717068418;-0.0007595335482619;0.0040405481122434;-0.0043862261809408
1768216546453090000;27.008090087890626;-0.0158019647657871;0.0156537154015153;-0.0060266033457592;-0.0020596887916326;0.0091255875304341;-0.006059490609914
1768216546463091000;27.018091064453124;-0.0525251370072364;0.0083983374457806;0.0358273559128865;-0.0035467979032546;0.0126857012510299;-0.0111879399046301
1768216546473090800;27.0280908203125;-0.0807476074069738;0.0220505402991548;0.0418825277660042;-0.0060421796515583;0.0176010970026254;-0.013717676512897
1768216546483091700;27.038091796875;-0.0971878700762987;0.0072851885721087;0.0486858511053025;-0.006115682888776;0.0196868851780891;-0.0153238289058208
1768216546493093000;27.048093017578125;-0.0852191998630762;2.3746201768e-06;0.0136320368481799;-0.0064563015475869;0.0220195483416318;-0.0167994871735572
1768216546503093000;27.058093017578123;-0.0778957251071929;0.0011268486054614;-0.0079383187185972;-0.0051777176558971;0.0242257118225097;-0.0148921301588416
1768216546513094000;27.068093994140625;-0.0774830526530742;-0.0130382356734946;-0.0455331592280417;-0.0075742965564131;0.0303533785045146;-0.016842097043991
1768216546523094800;27.0780947265625;-0.0730775111705064;-0.0209362954469397;-0.0450752228600904;-0.006130862981081;0.0421088375151157;-0.0185364000499248
1768216546533095000;27.088094970703125;-0.1293523561000824;-0.0231349380023777;-0.0401701343575492;-0.0067074373364448;0.0475704483687877;-0.0229042507708072
1768216546543095800;27.098095703125;-0.1692307775020599;0.0298094838628545;0.0056006330186501;-0.007245129905641;0.0602492243051528;-0.0253788605332374
1768216546553097000;27.108096923828125;-0.1747562629252672;0.0312560659419745;0.0119827718038111;-0.0035960664972662;0.0615853331983089;-0.0303760152310132
1768216546563097900;27.118097900390627;-0.1391571262776851;0.0181424634773284;0.0492968591431155;-0.000964596925769;0.0630223751068115;-0.0329291895031929
1768216546573098000;27.128097900390625;-0.0884393309533596;0.011406360155344;0.0838105386415496;0.0008833705214783;0.050769705325365;-0.0337457135319709
1768216546583099000;27.138098876953126;-0.0487169768959283;-0.0074494757557287;0.0346009559230878;0.0014295848086476;0.0425298847258091;-0.027149062603712
1768216546593099800;27.148099853515625;-0.0179997670710086;-0.0163592698549851;0.0535034439874812;0.0023521038237959;0.0281762443482875;-0.0141531033441424
1768216546603100000;27.158099853515623;0.0371118792980909;-0.0088324545467272;0.0521245933823287;0.0011933625210076;0.0172945670783519;0.0033617082517594
1768216546613101000;27.16810107421875;0.0764928725719451;-0.0054431774346157;0.0414957934707403;0.0010591391474008;0.0075852153822779;0.0113277556374669
1768216546623102000;27.17810205078125;0.1610983244508504;-0.0320453531561419;0.0334373555038124;0.0005965480813756;0.0009691243176348;0.0021611552219837
1768216546633101800;27.188101806640624;0.1500292334258556;-0.025472660234943;0.0161778854060918;-0.00099042954389;0.0077005303464829;-0.0079495357349514
1768216546643103000;27.19810302734375;0.0642044688850641;-0.0140528195435181;-0.0106142233969643;-0.0027542412281036;0.0164431557059288;-0.0135150095447897
1768216546653103900;27.208103759765624;0.0592804564863443;0.006715535457991;-0.0253680308166891;-0.0057135457172989;0.0173837840557098;-0.0147443246096372
1768216546663103700;27.218103759765626;0.0735118109345436;0.0361849371789023;-0.040879488203302;-0.0058301920071244;0.0176205392926931;-0.0138873197138309
1768216546673105000;27.22810498046875;0.0623211393564939;0.0402451358225196;-0.0561050413206219;-0.0045257760211825;0.0170255880802869;-0.0092217279598116
1768216546683106000;27.23810595703125;0.0614689064413309;0.0107337946560233;-0.0617496961440891;-0.0061420481652021;0.0189467929303646;-0.009345831349492
1768216546693107000;27.24810693359375;0.0164525376290082;-0.0161809176133945;-0.0561190698459744;-0.0049705239944159;0.0242110639810562;-0.0087863011285662
1768216546703106800;27.25810693359375;-0.0200800804764032;-0.0042004838971421;-0.0289458893034607;-0.0039633163250982;0.0322745814919471;-0.00787203758955
1768216546713107700;27.268107666015624;-0.0514098692417144;-0.0055185807583853;-0.0117918523415923;-0.0015395734226331;0.0359366945922374;-0.0102249402552843
1768216546723109000;27.278109130859377;-0.0872585967361927;0.0112026542767882;0.0178316439624875;0.0009821738349273;0.0410201363265514;-0.0087612671777606
1768216546733109000;27.28810888671875;-0.090642978477478;0.0278890006616711;0.0503982445137575;0.0045947516337037;0.0400068052113056;-0.0083740437403321
1768216546743110000;27.29810986328125;-0.0417781175434589;0.0273551495132967;0.0527438943244516;0.0060288640670478;0.0338168181478977;-0.0054829157888889
1768216546753110800;27.30811083984375;0.0212204826831817;0.0236701043250039;0.0535520689021795;0.0075338161550462;0.0217718742787837;-0.004096208140254
1768216546763111000;27.31811083984375;0.0465823029547929;0.0199071350622922;0.0460620419403538;0.0065830680541694;0.0148814776912331;-0.0018405106384307
1768216546773111800;27.32811181640625;0.0694412004947662;-0.0033454014377668;0.0072764572763815;0.0052940980531275;0.0150708286091685;0.0004063983797095
1768216546783113000;27.338113037109373;0.0406453141212463;-0.0356954366289079;-0.0244146025493741;0.0011150655336678;0.0151073141023516;-0.0048650624230504
1768216546793113900;27.34811376953125;0.0414601376354694;-0.0668796063784509;-0.0412970925608649;-0.0035105790011584;0.0144079681485891;-0.0107543766498565
1768216546803114000;27.358114013671877;0.0058703533381223;-0.0556089283667504;-0.0497546128479763;-0.0037984666414558;0.0212283227592706;-0.0139280660077929
1768216546813115000;27.368114990234375;-0.0517611668974161;-0.0395997871236875;-0.0620216449532657;-0.0045414883643388;0.0255831237882375;-0.0124992802739143
1768216546823115800;27.37811572265625;-0.0844043763488531;-0.0368953504705801;-0.0675659446747973;-0.0044922200031578;0.0284686591476202;-0.0101003050804138
1768216546833116000;27.388115966796875;-0.0865256062865257;-0.0360019087621942;-0.0553174711395055;-0.0076576531864702;0.0270715653896331;-0.0070911990478634
1768216546843117000;27.398116943359376;-0.0405716643631458;-0.0199139666618779;-0.0335909386303275;-0.0072286180220544;0.0243082698434591;-0.0012495551491156
1768216546853118000;27.408117919921875;-0.0225596223324537;-0.0237182543156668;-0.034061040360108;-0.0046426886692643;0.0254441071301698;0.00375372543931
1768216546863117800;27.418117919921876;0.0029442367583513;-0.0268493188830092;-0.0296229117821902;-0.0033728934358805;0.0232749618589878;0.0018554243724793
1768216546873119000;27.428118896484374;0.0384790759980678;-0.0160926548080518;-0.0149264240402728;-0.0027095000259578;0.0189622398465871;-0.0011845740955322
1768216546883119900;27.438119873046876;0.0309387436211109;-0.0023330460574477;0.0319310425940901;-0.0021872541401535;0.0121125895529985;-0.000446612102678
1768216546893121000;27.44812109375;0.0052080900371074;0.0089497973160818;0.0388061890605837;-0.0020136160310357;0.0066115637309849;0.0068094367161393
1768216546903121000;27.458120849609376;-0.0434837524175643;0.0149995623417198;0.0273719910502433;-0.0011603393359109;0.0086129289120435;0.0138609539717435
1768216546913122000;27.4681220703125;0.0310790288746356;-0.0100619598090648;0.0643817982133477;-0.0042512039653956;0.010694989003241;0.0060331248678267
1768216546923123000;27.478123046875;0.0125052613079547;-0.0162892733586952;0.0802639155432581;-0.0007523429812863;0.011723767966032;-0.0043814326636493
1768216546933122800;27.488122802734377;-0.0299058934420347;0.0263464108621701;0.1019715241562575;-0.0013281183782964;0.0130766537040472;-0.0094627439975738
1768216546943123700;27.498123779296876;-0.0201180743992328;0.0552037816319614;0.0935171456743031;-0.0018335863715037;0.0131304496899247;-0.00698067760095
1768216546953125000;27.508125;0.0503109680891036;0.0709018110992387;0.0986030706364661;-0.0034626419655978;0.0130580114200711;0.0004783037293236
1768216546963125000;27.518125;0.0941261444181203;0.0392958357410505;0.0414122799057513;-0.0023007048293948;0.0145251471549272;0.0017579526174813
1768216546973126000;27.5281259765625;0.0719511374890804;-0.000525083320029;-0.012948621161282;-0.0069215558469295;0.0128164626657962;0.0007731156656518
1768216546983126800;27.538126708984375;0.0631032296448945;-0.0038553967865183;-0.0205055393468588;-0.0069881347008049;0.0066999807022511;-0.0035958001390099
1768216546993128000;27.5481279296875;0.0317968217551708;-0.009606288463436;-0.029934096623212;-0.0074275564402341;0.0098651479929685;-0.0052339104004204
1768216547003127800;27.5581279296875;0.0013794716596603;-0.0074104954522103;-0.0266327169902622;-0.0067055732943117;0.010766627267003;-0.0039129825308918
1768216547013129000;27.56812890625;-0.0040542438268661;0.0014480799164623;-0.0324958368699997;-0.0045103295706212;0.0097761983051896;-0.0049108690582215
1768216547023129900;27.5781298828125;-0.02549450674057;-0.027106764242798;-0.0232953161958605;-0.0043558664619922;0.0113485278561711;-0.0033156354911625
1768216547033130000;27.5881298828125;-0.0491840098857879;-0.0215935537792742;-0.0352010041754692;-0.0022833943367004;0.013213007710874;-0.003507649526
1768216547043131000;27.598130859375;-0.069307344982028;-0.0150544708667322;-0.0118787999726831;-0.0026565031148493;0.0168495532125234;-0.0062456452287733
1768216547053131800;27.6081318359375;-0.0629734657853841;-0.025660510957241;0.0051860243357717;-0.0023939155507832;0.0151118412613868;-0.0112870093435049
1768216547063132000;27.6181318359375;-0.0716296504497528;-0.0243754761153832;0.0184401312496513;-0.0025515747256577;0.0152663048356771;-0.0128500182181596
1768216547073133000;27.628133056640625;-0.0262397721499204;-0.0221841035509482;0.0016865648474544;-0.0004479436902329;0.007964183576405;-0.0139216743409633
1768216547083134000;27.638134033203126;0.0031757074266672;-0.0373181789925321;-0.0151104023050516;-0.0024485103785991;0.0046770432963967;-0.0116191050037741
1768216547093133800;27.6481337890625;0.0101870474934577;-0.0355490138955414;-0.0153667882189154;-0.0043116579763591;-0.0003571299021132;-0.0079308934509754
1768216547103135000;27.658135009765623;-0.001154430732131;-0.0264804490379989;-0.0184120011337101;-0.0059907808899879;0.0018431737553328;0.0013480921043083
1768216547113135900;27.668135986328124;-0.0193669637709856;-0.0284125861443579;-0.0294818228110671;-0.0077157104387879;0.0055215316824615;0.0029198897536844
1768216547123137000;27.678136962890623;0.0176227504521608;-0.0251743714081123;-0.0121384738221764;-0.006024869158864;0.0043718451634049;0.0001190433031297
1768216547133137000;27.688136962890624;0.011191840621829;-0.0145794737661257;-0.0189217042215168;-0.0059127500280737;0.0050919638015329;-0.0043380232527852
1768216547143138000;27.69813793945313;-0.0046972179055213;-0.0176000636963173;-0.0426880719952285;-0.0059513659216463;0.0092353103682398;-0.0083005400374531
1768216547153139000;27.708138916015624;-0.059389177557826;0.0114123149720951;-0.0314095029380172;-0.0073551181703805;0.0168391671031713;-0.0024817998055368
1768216547163138800;27.718138916015626;-0.0548082795083522;-0.0063834904920309;-0.0300204597324132;-0.0077500650659203;0.01519067119807;0.0014833806781098
1768216547173139700;27.7281396484375;-0.0298527019500732;-0.0027093685565516;-0.0373914999570697;-0.0073636402375996;0.0166926942765712;0.002976348856464
1768216547183141000;27.73814111328125;-0.035119828698039;-0.0010520298035815;-0.0101795948393642;-0.0089042792096734;0.0196730364114046;0.0092036183923482
1768216547193141000;27.74814111328125;-0.0913923355400562;0.0189079679571092;0.0842387374583631;-0.0083966804668307;0.0241452828049659;0.0228512529283761
1768216547203142000;27.758141845703125;-0.019692542463541;-0.0066233636625111;0.0040589200019836;-0.0120875556021928;0.0265738200396299;0.0235585886985063
1768216547213142800;27.768142822265624;0.0306079042315483;-0.0241337763139978;0.0157768303245306;-0.0121775707229971;0.0155704375356435;0.0238547325134277
1768216547223144000;27.77814404296875;-0.0074485624402761;0.0318428528539836;0.1003733682446181;-0.0084195835515856;0.0075567197054624;0.0240904223173856
1768216547233143800;27.788143798828123;-0.0295762230962514;0.0187616182889789;0.0459525536838918;-0.008665126748383;0.0030154972337186;0.0321060046553611
1768216547243145000;27.79814501953125;0.0011585223853588;-0.0305308934725821;0.0301354644142091;-0.0109783485531806;0.0022599585354328;0.0377985127270221
1768216547253145900;27.808145751953123;0.0377659592926502;-0.014083287747018;0.0305384191919118;-0.0124859642237424;0.0028772791847586;0.0437900908291339
1768216547263146000;27.81814599609375;0.0751221687406301;-0.0348730873953551;0.0079537354834377;-0.0132193993777036;0.0037526602391153;0.0401040092110633
1768216547273147000;27.82814697265625;0.0944856253802776;-0.0571203558430075;-0.0300946940124034;-0.0094630103558301;0.0072813485749065;0.0366789177060127
1768216547283147800;27.838147705078125;0.0831453161984682;-0.0447512881353497;-0.0356402723755687;-0.007791344076395;0.0007017429452389;0.0306300800293684
1768216547293148000;27.84814794921875;0.0600397504210472;-0.0266058289833366;-0.0591215395975857;-0.0060765347443521;-0.0106694223359227;0.033805102109909
1768216547303149000;27.858149169921877;0.0049643444091081;-0.0459601524684578;-0.0430139429487287;-0.0027419906109571;-0.0114063192158937;0.0371127463877201
1768216547313150000;27.86814990234375;-0.0131231009453535;-0.0120242728579789;0.0406031554799526;-0.0050666639581322;-0.0195457376539707;0.0381077043712139
1768216547323150800;27.87815087890625;0.021697452545166;-0.0266538693761453;0.042534708064422;-0.0090134683996438;-0.0269996598362922;0.0413759350776672
1768216547333151000;27.88815087890625;0.0701572398096323;0.0361961526926606;0.0520215713992714;-0.0055665392428636;-0.0341995172202587;0.0340306721627712
1768216547343151900;27.89815185546875;0.1079822358131408;0.0546534542728215;0.0456882767245173;-0.005445631686598;-0.0407026894390583;0.0208863727748394
1768216547353153000;27.908153076171875;0.0838368055939674;0.0145218983599916;-0.0050010962229222;-0.0060464409179985;-0.0345870070159435;0.0217503029853105
1768216547363153000;27.91815283203125;0.0858317788034677;0.0567845845500007;0.0240169815339148;-0.0010993528412654;-0.0322239808738231;0.0176785960793495
1768216547373154000;27.928154052734374;0.0525929415464401;0.0255360443273559;-0.0040554859358817;-0.0008037420338951;-0.0252331849187612;0.0141419181600213
1768216547383155000;27.938155029296876;0.0518365702211856;0.0695348701275885;0.0209082018636167;-0.0008183894096873;-0.0296790655702352;0.0131464283913373
1768216547393154800;27.94815478515625;0.0576367809325456;0.0540226820886135;0.0505859856382012;0.001089232857339;-0.0305850729346275;0.0014120079576969
1768216547403155700;27.95815576171875;0.0259878432154655;0.0639501287978142;0.013528430343233;-0.0001438106992281;-0.0270300190895795;0.0006210491410456
1768216547413156900;27.96815698242187;0.0128735100984573;0.0511036528367549;0.0385056717440485;-0.0010780475568026;-0.0304868035018444;-0.0018857843242585
1768216547423157000;27.978156982421876;0.00456920761168;0.0393285324342548;0.0135819506287574;-0.0014642059104517;-0.031219171360135;0.0031214910559356
1768216547433158000;27.988157958984377;-0.0049520694494247;-0.0047771147413179;-0.0105269835049286;-0.0054829157888889;-0.0170881729573011;0.0008780442294664
1768216547443158800;27.99815869140625;-0.0169213241845369;0.0181442170429974;0.050977907565236;-0.0068903965875506;-0.0183020420372486;0.0017667410429567
1768216547453160000;28.008159912109377;0.0197352125614881;-0.0139984224751591;-0.0113723117552697;-0.006182528566569;-0.0148447258397936;0.0003821636200882
1768216547463159800;28.018159912109375;0.0607049363315105;-0.0268473826542496;-0.0127004185538738;-0.0042400187812745;-0.014797587879002;-0.0027262780349701
1768216547473161000;28.028160888671874;0.0428472080796957;-0.0457445369563996;-0.0423189464218914;-0.0033688987605273;-0.0127080716192722;-0.0057348511181771
1768216547483161900;28.038161865234375;-0.0260603239297866;-0.0641055020226165;-0.0259159104904159;0.0001589907187735;-0.0083143888041377;-0.0063652214594185
1768216547493162000;28.048161865234373;-0.077634443822503;-0.0529750727318227;-0.0162012297490611;0.0003028014034498;-0.0060192765668034;-0.0068259481340646
1768216547503163000;28.058162841796875;-0.1012251627683639;-0.0666489394277334;0.0343454102594405;0.0012716593919321;-0.0075183701701462;-0.0055966330692172
1768216547513163800;28.068163818359373;-0.0914309139847755;-0.0339359161430969;0.063682490837574;0.0011840413790196;-0.0069772158749401;-0.0029134983196854
1768216547523164000;28.078163818359375;-0.0584364068776369;-0.0184106494268402;0.0797863246267661;0.0025465146172791;-0.0070837419480085;-0.0032631712965667
1768216547533165000;28.0881650390625;-0.0045060792475938;-0.0184261392569169;0.0577683348903432;0.0016951019642874;-0.0075085163116455;-0.0058751995675265
1768216547543166000;28.098166015625;0.0522539188504219;-0.0301126680605113;0.0132835522040724;0.00220935838297;-0.0098627507686614;-0.0128609370440244
1768216547553166800;28.108166748046877;0.0530307484418153;-0.0214258325295522;-0.0451460961392149;-0.0011454256018623;-0.0106616988778114;-0.0191246923059225
1768216547563167000;28.1181669921875;0.0632633886426687;-0.0077630352169275;-0.0501449638724327;-0.0005691175465472;-0.0184602327644824;-0.0134569527581334
1768216547573167900;28.12816796875;0.0288169291615486;0.0066411915801465;-0.0322423370329663;-0.0014647386269643;-0.0205372329801321;-0.0026618295814841
1768216547583169000;28.1381689453125;-0.0094786069631576;0.0096969624215736;-0.0408571667736396;-0.0029318740125745;-0.0179265365004539;0.0015496934065595
1768216547593169000;28.1481689453125;-0.0110042090952396;0.0093208956507965;-0.0454285663424059;-0.0032421322539448;-0.010751980356872;-0.0057423077523708
1768216547603169800;28.158169677734374;0.0176426241964101;-0.0242199567601084;-0.0431834177641198;-0.0086012110114097;-0.0121349599212408;-0.0133205987513065
1768216547613171000;28.1681708984375;0.0389396792471408;-0.0073058295013383;0.0086311963535845;-0.005748433060944;-0.0133594814687967;-0.0143784070387482
1768216547623170800;28.1781708984375;-0.0175537768691778;-0.0309314370974898;-0.0199365072872489;-0.0080454098060727;-0.0113101787865161;-0.003516171593219
1768216547633171700;28.188171630859376;-0.0087806878268718;-0.058820108965598;-0.0046293768336996;-0.0088467551395297;-0.0100997723639011;-0.0026589001063257
1768216547643172900;28.1981728515625;-0.0061257894039154;-0.0440576067827641;0.0141533938411623;-0.0099085569381713;-0.0130098080262541;0.0013081447687
1768216547653173000;28.208173095703124;-0.0314770882815122;-0.0852708569850772;-0.014142543653585;-0.0048631983809173;-0.0024634238798171;-0.0020756677258759
1768216547663174000;28.218173828125;-0.0074772040128707;-0.031122831483744;0.0231162698345258;-0.0057612163946032;-0.0058272625319659;-0.0022668826859444
1768216547673174800;28.2281748046875;0.0104670334786176;0.0379396353591233;0.0722044546630233;-0.0032096416689455;-0.0200919527560472;0.0102001735940575
1768216547683175700;28.23817578125;0.0434685548484325;0.0412366676105186;0.0364351125476881;-0.0022716764360666;-0.0192037876695394;0.0188218913972377
1768216547693176000;28.248176025390624;0.055985506594181;0.0276404327280819;0.008350991172716;-0.004251470323652;-0.0203915573656559;0.0204970184713602
1768216547703177000;28.25817700195313;0.0376800345748662;0.0188349757861346;-0.0083186598056927;-0.0026586337480694;-0.0203825030475854;0.0151738924905657
1768216547713177900;28.268177734375;-0.0589648146659135;-0.0020127645945176;-0.0572497178437188;-0.0043635894544422;-0.0097146788612008;0.003915645647794
1768216547723178000;28.278177978515625;-0.0894148979872465;0.0226583699991926;-0.0338521468497812;-0.0051092742942273;-0.004743356257677;-0.0081162499263882
1768216547733179000;28.288178955078124;-0.1068839191824197;0.0768831870637834;0.0141226333767175;-0.0030434604268521;-0.0119346901774406;-0.0103181516751647
1768216547743179800;28.2981796875;-0.0992038860738277;0.0386633099911734;-0.0193338286863639;-0.0008900284301489;-0.0114385429769754;-0.0114265587180852
1768216547753180000;28.308179931640623;-0.0566395865887403;0.0525136657651513;0.0289812894104048;-0.0008226504432968;-0.01451076567173;-0.0060789315029978
1768216547763181000;28.31818115234375;-0.0469610731393098;0.0260307325091212;0.063857883937098;-0.0008327704854309;-0.015141668729484;-0.0016120113432407
1768216547773182000;28.328181884765623;-0.0227449157714843;-0.016237579704076;0.0886560059113427;-0.0013611416798084;-0.0160814989358186;-0.001227184664458
1768216547783182800;28.338182861328125;0.0135930565446615;-0.0488041071901097;0.0596055237222462;-0.0044972798787057;-0.0171073470264673;-0.0034557178150862
1768216547793183000;28.348182861328127;7.42342799901e-05;-0.0528537479070946;0.046249965727888;-0.0063678845763206;-0.0127751836553215;-0.0069684274494647
1768216547803183900;28.358183837890625;0.0058393736779689;-0.0582370849132537;0.0298104337109252;-0.0056879795156419;-0.0131882401183247;-0.0062509714625775
1768216547813185000;28.36818505859375;0.0213344644516706;-0.0421965621512383;0.0014331746082752;-0.0060445768758654;-0.0148631017655134;-0.0083354273810982
1768216547823185000;28.378184814453125;-0.0219657480925321;-0.0233919815033674;-0.0192892954248934;-0.0030807447619736;-0.0175289269536733;-0.0048522795550525
1768216547833185800;28.388185791015623;-0.0223006791353225;-0.0193567711705341;-0.0236549798211082;-0.002470081904903;-0.0193859487771987;-0.0071026505902409
1768216547843187000;28.39818701171875;-0.0108119013935327;-0.0091668741328641;0.0100364600416272;-0.0014197311829775;-0.014183996245265;-0.0013363742036744
1768216547853186800;28.40818676757813;-0.0493196189641952;0.0062949354257434;0.0314663476917892;0.0008921589469537;-0.0092765893787145;0.0033401367254555
1768216547863188000;28.41818798828125;-0.005529577076435;-0.0050179012272506;0.0295392155541107;0.0033446638844907;-0.0071892035193741;0.0032914008479565
1768216547873188900;28.42818896484375;0.0220861596018075;-0.0101579309968277;0.0062103624148294;0.0023307986557483;-0.0040069920942187;0.0012612730497494
1768216547883189000;28.43818896484375;0.0248363350927829;-0.0176460947951301;0.0085116616271436;0.0014924354618415;-0.0032754219137132;-0.0018279937794432
1768216547893190000;28.44818994140625;-0.0046042789250612;0.0084000179462134;0.0095308120744302;-0.0001557949290145;-0.0021425131708383;-0.0027507790364325
1768216547903190800;28.458190673828124;-0.009048983374238;0.014690825186111;0.0079779566092416;0.0025814019609242;-0.0030874025542289;-0.0051976912654936
1768216547913191700;28.468191650390622;-0.0203980603843927;-0.0107275110457092;-0.0019618015922605;-0.0012229235144332;5.27305892319e-05;-0.0062967780977487
1768216547923192000;28.478192138671876;-0.0560123946011066;-0.0056205067628994;-0.0084347969986498;-0.0032842103391885;0.00547093199566;-0.0035510589368641
1768216547933193000;28.48819287109375;-0.0403086295127868;-0.0006797989577054;-0.0028886706462129;-0.0055574844591319;0.0069279470480978;-0.0014048174489289
1768216547943193900;28.49819384765625;-0.0208615862429141;-0.0026961437487974;-0.0341460517624393;-0.0070563117042183;0.0088131986558437;0.0008594020619057
1768216547953194000;28.508194091796874;-0.0132288994073867;0.0029145722724497;-0.0224686195807531;-0.0061127534136176;0.0089333076030015;0.0023299995809793
1768216547963195000;28.51819482421875;0.0229886613994836;0.015384323875606;-0.0140974624028429;-0.0028525118250399;0.0087194554507732;0.0019188075093552
1768216547973196000;28.528196044921874;0.0138525842636823;0.0063321256309747;-0.0240058025527745;-0.0033683660440146;0.008823319338262;-0.0011976235546171
1768216547983196000;28.53819580078125;-0.001292377898097;-0.0189056298695504;-0.0059252253305166;-0.0010671286145225;0.0108390655368566;-0.0031758195254951
1768216547993197000;28.548197021484373;0.0142512281924486;-0.0191988406624644;0.0016586539272218;0.0037723677232861;0.0043878243304789;-0.0059580239467322
1768216548003198000;28.558197998046875;0.0209878429710865;-0.0306621186368167;0.0028171397799625;0.0005139900604262;-0.0001523328101029;-0.0077061229385435
1768216548013198800;28.56819873046875;-0.0089367551714181;-0.0404077790383249;-0.0010485957374796;-5.83232285862e-05;0.0018394453218206;-0.0074675036594271
1768216548023198700;28.57819873046875;-0.0153559745639562;-0.0285683612279593;0.0045869259314611;0.0014202637830749;0.0009603358921594;-0.0056474995799362
1768216548033200000;28.5882001953125;0.0048562078595161;-0.0190961474729701;0.0261097160294651;0.000875114754308;-0.0011872372124344;-0.0074469973333179
1768216548043201000;28.598200927734375;-0.0213163442730903;-0.028636859886907;0.0028100889846682;-0.0004804342461284;-0.0002391518646618;-0.0045081991702318
1768216548053201000;28.608200927734377;-0.0224894797056913;-0.0171154950497671;-0.0269912481043487;0.0005603290628641;-0.0018524948973208;-0.0046205846592783
1768216548063201800;28.618201904296875;-0.0059843351066112;0.0029276144171133;-0.00801134742219;0.0008482168195769;5.1399008953e-05;-0.0017204020405188
1768216548073203000;28.628202880859376;-0.0055061962008476;-0.0330227468209341;-0.018770313052088;0.0017219999572262;0.0014258564915508;-0.0041095237247645
1768216548083202800;28.638202880859374;-0.0268850843161344;-0.0201636671066284;-0.0185052323751151;-0.0002740392810665;0.0032325449865311;-0.0035345472861081
1768216548093204000;28.648203857421876;-0.0593581978976726;-0.0132915893800556;0.0016918620770797;-0.0007850998663343;0.0083974795415997;-0.0068786786869168
1768216548103204900;28.658204833984374;-0.0580570521712303;-0.0326938801927492;0.0191685916546732;-0.0004394215648062;0.0124864969402551;-0.0086158588528633
1768216548113205000;28.668205078125;-0.0561725535988807;-0.034243009330891;0.0175882271280512;-0.0035465315449982;0.0122811673209071;-0.0071234232746064
1768216548123206000;28.67820581054687;-0.0213426477581262;-0.0055646849224343;0.0434627096295356;-0.0014982944121584;0.0082773705944418;-0.0028871328104287
1768216548133206800;28.688206787109376;-0.0143067577719688;0.0015550474222749;0.0689222546545788;-0.0004186489095445;0.0077487332746386;-0.0003094593121204
1768216548143208000;28.6982080078125;-0.0057505263507366;-0.0206684017583727;0.0962283773943781;0.0013014868600293;0.0021710088476538;0.0057875816710293
1768216548153208000;28.7082080078125;-0.0095715459436178;-0.0148705291345715;0.069094213688001;0.0044333641417324;-0.004471980035305;0.0075090490281581
1768216548163209000;28.718208984375;-0.017542086431384;-0.0163360716424882;0.0656001975597813;0.0051324442028999;-0.0013622068800032;0.0132881086319684
1768216548173209900;28.7282099609375;-0.0962941361069679;0.0053414340931922;0.0720997156469151;0.0087370323017239;0.0067652282305061;0.0199689138680696
1768216548183210000;28.7382099609375;-0.0263227742582559;-0.0033558497665449;0.0784756438869982;0.0085524758324027;0.0063329972326755;0.0181547682732343
1768216548193211000;28.7482109375;-0.037907998111844;-0.0306947422647848;0.0550558975938707;0.0038120488170534;0.0036277580074965;0.0161579307168722
1768216548203212000;28.7582119140625;-0.035559973680973;0.0018706527100875;0.0275277296012267;0.0032642364967614;-0.0013052152935415;0.0129786487668752
1768216548213212000;28.7682119140625;-0.0196066177457571;0.0317310265099629;0.0287508051227778;0.000398408883484;-0.0043867588974535;0.0043409527279436
1768216548223213000;28.778213134765625;0.0103881230235099;0.0295428688159212;0.0315132921060547;-0.0029651634395122;-0.0051857070066034;-0.002306031063199
1768216548233214000;28.7882138671875;0.0310848740935325;0.077378642430529;0.0327398382263258;-0.0011797803454101;-0.0053300503641366;-0.0027409254107624
1768216548243214800;28.79821484375;0.0788853206664323;0.0870745088735595;0.009327654185146;0.0007989483419805;-0.0105242803692817;-0.001620533526875
1768216548253214700;28.808214599609375;0.1313286246091127;0.0402870752681046;-0.0538777571925893;0.0040935450233519;-0.0046786414459347;-0.0015065502375364
1768216548263216000;28.818216064453125;0.1089133791834116;0.0068816858051344;-0.0991705317934975;0.0073476615361869;0.0039209718815982;-0.0008562062866985
1768216548273217000;28.828217041015623;0.1096715040743351;-0.0010635741109028;-0.1282365038126707;0.011021758429706;0.0039398805238306;0.0009454221581108
1768216548283217000;28.838216796875;0.1243698915123939;-0.0103754096724092;-0.1391346221849322;0.0090917656198143;0.0043172505684196;0.0039305593818426
1768216548293217800;28.8482177734375;0.061229836988449;-0.0068568070922046;-0.1688495596321299;0.0065569686703383;0.0164122618734836;0.0053060823120176
1768216548303219000;28.858218994140625;-0.0009182838886976;0.0001779503827914;-0.1345822926428169;0.0043220440857112;0.0265442598611116;0.0048179244622588
1768216548313218800;28.86821875;-0.040677462825179;-0.0003812178699299;-0.0953493660701438;0.0002111886715283;0.028080902993679;-0.0020106865558773
1768216548323220000;28.878219970703125;-0.0605465308994054;-0.0213535344783216;-0.0828428991857916;-0.0018903117161244;0.0232509933412075;-0.0054174023680388
1768216548333220900;28.888220947265623;-0.1115250229865312;-0.0096508947901427;-0.0413689156880602;-0.0032844764646142;0.0217998381704092;-0.002967826789245
1768216548343221000;28.898220947265624;-0.1287894615203142;-0.0512938051139935;-0.0085926544414833;-0.0052672000601887;0.018200309947133;0.0047817057929933
1768216548353222000;28.90822192382813;-0.0917015476197004;-0.0614995207753032;0.0292150616336613;-0.0059529640711843;0.0164740476757287;0.0072794845327734
1768216548363222800;28.918222900390624;-0.109522450992465;-0.0854522779665887;0.0836186327986419;-0.0021291973534971;0.0159808304160833;0.0045010084286332
1768216548373224000;28.92822387695313;-0.0645025750488042;-0.0812158094406127;0.0827136833155527;-0.0029593044891953;0.0115075185894966;-0.0017606157343834
1768216548383224000;28.93822412109375;0.0085036244511604;-0.0420615375947207;0.1143377788523212;-0.0003853593952953;0.007186806295067;-0.004914597608149
1768216548393225000;28.948224853515622;0.034366379982233;-0.0222775539880618;0.0667028981046751;-0.0009076052810996;0.0088483523577451;-0.0061465757898986
1768216548403224800;28.958224853515624;0.0327010771185159;-0.0190527101900428;0.0422670335715636;-0.0015507587231695;0.0008372978190891;-0.0087588708847761
1768216548413225000;28.968224853515625;-0.06857610809803;-0.020777999612689;0.0368403323477134;-0.0042735747992992;-0.0051217912696301;-0.0001195759323309
1768216548423226000;28.97822607421875;-0.0324240137428045;0.0120513800606131;0.0055885772546753;-0.0077556576579809;-0.0126814404502511;0.0035574506036937
1768216548433227000;28.98822705078125;0.0189057760000228;0.0456864866262301;0.0289587853176519;-0.0079167792573571;-0.0199785009026527;0.0106675578281283
1768216548443227100;28.99822705078125;0.0351063846945762;0.028611579315178;0.1079935243921354;-0.008330101147294;-0.014716095291078;0.0082304989919066
1768216548453228000;29.00822802734375;0.1052466733694076;-0.0149175831466913;0.1044003222057595;-0.0095434375107288;-0.0130774527788162;-0.0070371367037296
1768216548463229000;29.01822900390625;0.1675771650761365;-0.0065675783546641;0.1090873475108295;-0.0053018210455775;-0.0222240798175334;-0.0141794681549072
1768216548473230000;29.02822998046875;0.1029033251136541;0.0333391923589631;0.0949313963863998;-0.0076621808111667;-0.0227652341127395;-0.006884004920721
1768216548483230200;29.038230224609375;0.0648930356711149;0.0014638985401019;0.0415621732378378;-0.0056104813702404;-0.0262425225228071;-0.0001954760227818
1768216548493231000;29.048231201171873;0.0634404987752437;0.0090808032846078;0.0406680008770898;-0.0064120930619537;-0.0322215855121612;0.0041806302033364
1768216548503232000;29.05823193359375;0.0585784456968307;0.0353070948984473;0.0138963868727907;-0.0070310113951563;-0.0332508981227874;0.0032301479950547
1768216548513232000;29.06823193359375;0.0760071348816156;0.0455802132401615;0.0771585334064439;-0.0057287258096039;-0.0351414754986763;-0.001954493811354
1768216548523233000;29.07823291015625;-0.0239063607662916;0.0132171724369749;0.0653775312524288;-0.0046237800270318;-0.0315864235162735;-0.0032945964485406
1768216548533234200;29.088234130859377;0.0006488192975521;0.0242966387255117;0.0399632866738364;-0.006426740437746;-0.0270569175481796;-0.0051529505290091
1768216548543234000;29.098234130859375;0.074257076343894;0.0016936156427487;-0.0074056731466203;-0.0065788067877292;-0.0243807062506675;-0.0087767131626605
1768216548553235000;29.10823486328125;0.0816968709558248;-0.0226890573984012;-0.0722870549125596;-0.0092584798112511;-0.0261306706815958;-0.0137443076819181
1768216548563236000;29.118236083984375;0.0554658666342496;-0.0197782114529982;-0.1247164033951237;-0.0120398849248886;-0.0188756864517927;-0.0072150360792875
1768216548573237000;29.128237060546876;0.0101028763413429;-0.0182339776856824;-0.1895091570295393;-0.0096544912084937;-0.017135577276349;-0.0077628483995795
1768216548583236900;29.13823681640625;-0.0887456204235553;-0.0228345302836969;-0.2109515388350933;-0.009974337182939;-0.0081569962203502;-0.0070632356218993
1768216548593238000;29.148238037109376;-0.1131084927856922;-0.018817111335881;-0.1643239719664677;-0.0128002176061272;-0.0005137237603776;-0.0058453720994293
1768216548603239200;29.1582392578125;-0.1596738446056842;-0.0220508690927177;-0.1669150844382122;-0.01205959264189;0.0136859845370054;-0.0086752474308013
1768216548613239000;29.168239013671876;-0.1668237163603305;-0.0356612786309793;-0.1204136281672865;-0.0151057159528136;0.0249982941895723;-0.0177281312644481
1768216548623240000;29.178239990234378;-0.1210883856236934;-0.0107853787127882;-0.0521029660724103;-0.0149555131793022;0.0353713072836399;-0.0246201250702142
1768216548633240800;29.18824072265625;-0.1065332060486078;-0.0568918077841401;-0.0294318461894989;-0.0144748128950595;0.0391873493790626;-0.0267927311360836
1768216548643241000;29.19824096679687;-0.019575053563714;-0.0477638408895581;-0.0022735709551721;-0.0178586263209581;0.0332924425601959;-0.0281597319990396
1768216548653242000;29.2082421875;-0.023819851526618;-0.0700724841356277;0.0674269015302881;-0.0192621108144521;0.0171800516545772;-0.0253170747309923
1768216548663243000;29.21824291992187;-0.0342336935132741;-0.0834255579119548;0.0913096256926655;-0.021792646497488;0.0032373385038226;-0.0147443246096372
1768216548673244000;29.228243896484376;-0.0432306544393301;-0.0832200619351118;0.1137334562836214;-0.0194788929075002;0.0080728400498628;-0.0026594325900077
1768216548683244000;29.238244140625;-0.0567231732189655;-0.0639666050085797;0.1069094920150935;-0.0184706207364797;0.0227298140525817;0.0067700217477977
1768216548693245000;29.248244873046875;-0.0165343706935644;-0.0387177435921505;0.0953835606006905;-0.0165648609399795;0.0321262441575527;0.0073607107624411
1768216548703246000;29.25824609375;0.0614659838318824;-0.029162272000499;0.0658241790413856;-0.0132934348657727;0.0335430465638637;0.0016998957144096
1768216548713246200;29.26824609375;0.120156657731533;0.0033656039755791;0.0110563046086579;-0.0091748563572764;0.0271293558180332;-0.0017475662752985
1768216548723247000;29.2782470703125;0.1489472834080457;0.050960225778073;-0.0168678038990125;-0.0098696751520037;0.0141909196972846;-0.0084448838606476
1768216548733248000;29.288248046875;0.1785270136356353;0.0966766326185315;-0.0272063156271353;-0.0046184537932276;0.0046397591941058;-0.0130430972203612
1768216548743248000;29.298247802734377;0.1819131489425897;0.1033744132241234;-0.0283882188880816;-9.5074850833e-05;0.0037824877072125;-0.0208874382078647
1768216548753249000;29.3082490234375;0.1565156728357076;0.0854661603614687;-0.0440533324664458;0.0010985539993271;0.0128380339592695;-0.0275948755443096
1768216548763250200;29.318250244140625;0.1271364336162805;0.0608875994220376;-0.1153264245634898;0.0031076427549123;0.0215593539178371;-0.0360853001475334
1768216548773250000;29.32825;0.0725479343384504;0.02543280314859;-0.1597514764191582;0.0042011365294456;0.0275594554841518;-0.0428489297628402
1768216548783251000;29.3382509765625;-0.0596089577883481;-0.0128345663275569;-0.1940819083051756;0.0005049353349022;0.0338639579713344;-0.0466082468628883
1768216548793252000;29.348252197265627;-0.2034767459750175;-0.0302477656822651;-0.1867765171952545;-0.000140082265716;0.0462934635579586;-0.0399317033588886
1768216548803253000;29.3582529296875;-0.3183329592108726;-0.0312052490701898;-0.1444992910232395;-0.0023313311394304;0.0518003478646278;-0.0290502943098545
