timestamp;seconds_elapsed;acc_z;acc_y;acc_x;gyro_z;gyro_y;gyro_x
1768216467974514000;0.054513916015625;-0.0735761083424091;0.032263051027432;-0.0324713600158691;-0.0043146177195012;-0.0284144449979066;0.0084300339221954
1768216467984515000;0.06451513671875;-0.0397078140754252;0.0181662827443331;0.0124719435602426;-0.0039875814691185;-0.0296869035810232;0.0125861633569002
1768216467994515000;0.074514892578125;0.0070423197269439;-0.0411998792640864;0.0279196880608797;-0.0069537246599793;-0.0341033414006233;0.0043947491794824
1768216468004516000;0.08451611328125;-0.0325567732769995;-0.062231049920246;0.0531686956077814;-0.0084690637886524;-0.0398698896169662;-0.000930774025619
1768216468014516200;0.09451611328125;-0.077588339658454;-0.0790652803432196;0.0664291591972112;-0.0084908157587051;-0.0394870452582836;-0.0015502893365919
1768216468024517000;0.10451708984375;-0.0831447316765785;-0.0771684337459504;0.0814905347287654;-0.0074764173477888;-0.0386886298656463;-0.0017976970411837
1768216468034518000;0.11451806640625;-0.0797884069859981;-0.078084964068979;0.0811725548207759;-0.0108282677829265;-0.0316779427230358;-0.0006331345066428
1768216468044518000;0.124517822265625;-0.0319288506370037;-0.0083748835049569;0.1156026476889848;-0.0082391425967216;-0.0301370359957218;0.0027655917219817
1768216468054519000;0.13451904296875;0.0204115043878555;0.0442243416517972;0.0645733021974563;-0.0056209536269307;-0.0410152301192283;0.0115724168717861
1768216468064519000;0.144518798828125;0.0159936148803681;0.0500517326310277;0.0341413390547037;-0.0012480430305004;-0.0504337660968303;0.0132406204938888
1768216468074520000;0.15452001953125;0.014166472518444;0.0561621052701026;0.0594756867974996;0.0006827184697613;-0.0581999160349369;0.0102162798866629
1768216468084521000;0.16452099609375;-0.0069628978151828;0.0577473286349326;0.0445417370378971;0.0048598865978419;-0.0602010153234005;0.0015410326886922
1768216468094521000;0.17452099609375;0.0165899002730846;0.0331958748981356;0.06301847397089;0.0061736493371427;-0.0570521652698516;-0.0083700949326157
1768216468104522000;0.18452197265625;0.0227261380057781;0.0339960853651165;0.0626192455202341;0.0087052499875426;-0.0675383657217025;-0.0160647667944431
1768216468114521900;0.19452197265625;0.0086135145664215;-0.0386509254336357;0.0739823510557413;0.009896838106215;-0.0754689276218414;-0.027575584128499
1768216468124523000;0.20452294921875;-0.0498738187808543;-0.0770583244349807;0.0246966343611478;0.0113671692088246;-0.0855833515524864;-0.0358984917402267
1768216468134523000;0.21452294921875;-0.1161455954592674;-0.0836403331737965;-0.0091828388869762;0.0120780393481254;-0.0811526030302047;-0.0331564657390117
1768216468144524000;0.22452392578125;-0.0834544552128762;-0.0614786241177469;-0.0036409868508577;0.0116452751681208;-0.0700986236333847;-0.0260889716446399
1768216468154525000;0.23452490234375;-0.0764625504989176;-0.0603146949049085;-0.004052490261197;0.007598209194839;-0.0700960382819175;-0.0217189062386751
1768216468164525000;0.244525146484375;-0.021712723179534;-0.0412234062701463;0.0014841010779142;2.76413047686e-05;-0.0722790360450744;-0.013475090265274
1768216468174526000;0.25452587890625;-0.0310404504299163;-0.0379134049393236;-0.0358019657433033;-0.0045467549934983;-0.0652182027697563;-0.0131256934255361
1768216468184526000;0.264526123046875;-0.0118154524128884;-0.033917905562371;-0.050459436649084;-0.0114296954125165;-0.0533607453107833;-0.0179992783814668
1768216468194527000;0.27452685546875;-0.0720480950575322;-0.0288875101797282;-0.0723947896033525;-0.0158218052238225;-0.0359276235103607;-0.0137657420709729
1768216468204526800;0.28452685546875;-0.1275789166867733;-0.0007753682866692;-0.0671463675558567;-0.0160068944096565;-0.0221135411411523;-0.0052715903148055
1768216468214528000;0.294528076171875;-0.0462941336631774;0.0097183340031653;-0.0862175632506608;-0.0119122536852955;-0.0199767798185348;-0.0006195260211825
1768216468224529200;0.304529052734375;0.0032826018672436;0.0116153267309069;-0.0592068067282438;-0.0108043793588876;-0.0289060920476913;0.0055763181298971
1768216468234529000;0.314529052734375;0.0317933146238327;0.0402647173058241;0.0015694412738084;-0.0087612327188253;-0.0367414876818656;0.0042545362375676
1768216468244530000;0.324530029296875;0.0192963096875697;0.0484062304463237;0.0342249256849288;-0.0053103081881999;-0.0338186658918857;0.00478823389858
1768216468254530000;0.334530029296875;-0.0159714761137962;0.04990282567963;0.0523924505382776;-0.0027128369547426;-0.0332103408873081;0.0039452421478927
1768216468264531200;0.34453125;-0.0146879391092807;0.023284429475665;0.0267360312342643;0.0015809778124094;-0.0334478951990604;0.0078510344028472
1768216468274532000;0.354531982421875;-0.0320423209488391;-0.0133092711672186;-0.0102449151605367;0.0056671211495995;-0.0256461277604103;0.0086538586765527
1768216468284532000;0.364531982421875;-0.0380395155370235;-0.0017329612724483;-0.0060170683324337;0.0069555584341287;-0.0248786024749279;0.0031371200457215
1768216468294533000;0.374533203125;-0.0097544282298535;-0.0306725669655948;0.0205102885872125;0.0047631533816456;-0.0217696893960237;0.0022842111065983
1768216468304533000;0.384532958984375;-0.0037700931232422;-0.0504141362026333;0.0203957222968339;0.0014800084754824;-0.0201190635561943;0.0009536957368254
1768216468314534000;0.394533935546875;-0.0010931289989501;-0.0646821693994104;0.0174368724912405;-0.0010375727433711;-0.0168172493577003;-0.0003335368819534
1768216468324534000;0.404533935546875;-0.009034443392232;-0.0424181690126657;-0.0120084177017211;-0.0055937087163329;-0.0122829508036375;0.0012838006950914
1768216468334535000;0.414534912109375;-0.0319792656499892;-0.022407573575899;-0.0182288996517658;-0.0052877673879265;-0.0047329263761639;0.0013933752197772
1768216468344535800;0.424535888671875;-0.0554489154994487;-0.0049638329524546;0.0053594812065362;-0.0091331051662564;0.0024533476680517;0.006170020904392
1768216468354536000;0.434535888671875;-0.0444517206668853;0.0239105985499918;0.0024625907212495;-0.0075662117451429;-0.0026972815394401;0.0072139510884881
1768216468364536800;0.444536865234375;-0.0009914221901446;0.021599398998171;0.0103179803967475;-0.0087878033518791;-0.0056302207522094;0.0077878618612885
1768216468374536700;0.45453662109375;0.000536518029496;0.0178433344002813;-0.0117675946831703;-0.009675309062004;-0.0066277598962187;0.0126448506489396
1768216468384537600;0.46453759765625;-0.021400442359969;0.0262963246427476;-0.0042401217877864;-0.0117057021707296;-0.0074890260584652;0.0160172116011381
1768216468394537700;0.474537841796875;0.0317827201645821;-0.0031705928601324;0.0517459693282842;-0.011649128049612;-0.0113945621997118;0.0132469832897186
1768216468404539000;0.484538818359375;0.0329926804762333;-0.0044297991409897;0.0515893174618482;-0.0131977563723921;-0.0149144623428583;0.0091664874926209
1768216468414539800;0.494539794921875;-0.0219604873955249;0.0092797233901917;0.0285217456072568;-0.012706208974123;-0.0142239481210708;0.0117385340854525
1768216468424540000;0.504539794921875;-0.0052175154525786;-0.0080680095128715;0.0294014510512352;-0.0100020347163081;-0.0172924418002367;0.0127444099634885
1768216468434540800;0.514540771484375;0.0094329411905258;0.0004158142592757;0.0337374344289302;-0.0098062064498662;-0.0118839498609304;0.0141305215656757
1768216468444540700;0.524540771484375;0.0445464862782508;-0.0255070739611983;0.0228419464051723;-0.0078431908041238;-0.0114530501887202;0.0145891178399324
1768216468454541600;0.53454150390625;0.0457774893779307;-0.026331834347546;0.0227127670675516;-0.0064443373121321;-0.0146085247397422;0.0143775958567857
1768216468464541700;0.544541748046875;0.0388438907224684;-0.027248145474866;0.0273439339995384;-0.0067143817432224;-0.0233341045677661;0.0129879591986536
1768216468474542800;0.55454296875;-0.0058053983431309;-0.0251795225072652;0.0162263276576995;-0.0049346573650836;-0.0266240388154983;0.0111058307811617
1768216468484543700;0.564543701171875;-0.0290728766839951;-0.0042399025920778;-0.0155476977437734;-0.0046092187985777;-0.0266946144402027;0.0114576341584324
1768216468494544000;0.5745439453125;-0.0385539678651839;0.0044161359418183;-0.0033113165050745;-0.006205819081515;-0.0237363949418067;0.0136509966105222
1768216468504544800;0.584544677734375;-0.0364986427705734;0.0038842940874397;-0.0034703064590692;-0.0026369169354438;-0.0187650732696056;0.0099737029522657
1768216468514544600;0.594544677734375;-0.0190589207351207;0.0046650692015886;0.0059831660628318;-0.0018184565706178;-0.0176776610314846;0.0075534572824835
1768216468524545800;0.6045458984375;-0.0184416656196117;-0.0384277842022478;0.0438800582587718;-0.0022530844435095;-0.0166302397847175;0.0056277252733707
1768216468534547000;0.614546875;-0.0165454035442322;-0.0388058967996388;0.0437415265709161;-0.0050072157755494;-0.02324172668159;0.0033906996250152
1768216468544546800;0.624546875;-0.0072656801540404;-0.0320943433970212;0.0075707275152206;-0.014212698675692;-0.0512398034334182;0.0228869020938873
1768216468554547700;0.634547607421875;-0.0030815994024276;-0.0333991423852741;0.0072375500380992;-0.011163112707436;-0.0371551439166069;0.0083140861243009
1768216468564547800;0.6445478515625;0.0342611660420894;-0.0227677121251821;0.0201391171872615;-0.0111501784995198;-0.032887153327465;0.0038708760403096
1768216468574548700;0.654548828125;-0.0194668439488857;0.0106356315111741;0.0188508309423923;-0.0092251552268862;-0.03126922249794;0.0022273382637649
1768216468584548600;0.664548583984375;-0.0216530654141679;0.0381735902454704;0.0090104049295187;-0.0104161212220788;-0.0353672951459884;0.0109390709549188
1768216468594549800;0.6745498046875;-0.0067068041622638;0.03242660755869;0.012631518036127;-0.0066125337034463;-0.0389788560569286;0.0182556826621294
1768216468604551000;0.684551025390625;-0.0031283611536026;0.031745274231024;0.0123795891016721;-0.005181351210922;-0.0351353846490383;0.016081478446722
1768216468614550800;0.69455078125;-0.0651390463214367;0.006621610096842;0.0060386956423521;-0.0063138366676867;-0.0254902876913547;0.0143378768116235
1768216468624551700;0.7045517578125;-0.0634497780602425;0.0059724620057269;0.005900748476386;-0.0071380850858986;-0.0119470488280057;0.0153602650389075
1768216468634551800;0.7145517578125;-0.0981983622930944;0.0024548823388293;-0.0021142156749963;-0.0105272596701979;-0.0012638000771403;0.0172769241034984
1768216468644552700;0.724552734375;-0.0466448467969894;-0.0033877062095329;-0.0201502231031656;-0.0136093357577919;-0.0048888949677348;0.0148808788508176
1768216468654553600;0.7345537109375;-0.0077788538405671;-0.018060557347536;-0.0190606743007898;-0.0132071739062666;-0.0051701948978006;0.0111014135181903
1768216468664554000;0.744553955078125;-0.0458206709325313;-0.0163153941806405;-0.0036181904971599;-0.0171848703175783;-0.0051851086318492;0.010562390089035
1768216468674555000;0.754554931640625;-0.039247137761116;-0.010776647417061;0.0145107559114694;-0.0171562433242797;-0.0013767946511507;0.0131282228976488
1768216468684554800;0.7645546875;-0.0230757551610469;-0.0216461972819641;0.0426852955162525;-0.0172135010361671;-0.000681976089254;0.0131428698077797
1768216468694555600;0.7745556640625;0.0009177724320441;-0.0033166867999359;0.046925417304039;-0.0163878072053194;-0.0020710912067443;0.0097268251702189
1768216468704555800;0.7845556640625;0.015331972633861;0.01647949870117;0.0399415497660636;-0.0146490288898348;-0.0027672415599226;0.0093923322856426
1768216468714556700;0.794556640625;-0.0198655974755063;0.0081542630242183;0.0335527255117893;-0.0165690276771783;-0.0021888841874897;0.0159736201167106
1768216468724557800;0.804557861328125;-0.0277239097604528;0.0210808184841647;0.0316571210235357;-0.0136270336806774;-0.0001489026471972;0.0155642926692962
1768216468734558000;0.814557861328125;0.0040460239877924;0.0109797687737271;0.0309697232812643;-0.0147892562672495;-0.0034445815254002;0.0078564407303929
1768216468744558800;0.824558837890625;0.0355236602585762;-0.0095651162028312;0.0573427664220333;-0.0141391782090067;-0.0077413255348801;4.21935692429e-05
1768216468754558700;0.834558837890625;0.0114098672866821;-0.0086399276493117;0.0459808299303054;-0.0123284654691815;-0.0112768299877643;0.0036913114599883
1768216468764560000;0.844559814453125;-0.0103623309951275;-0.0113660281449556;0.021003625062108;-0.0129702873528003;-0.0117141213268041;0.0091755595058202
1768216468774559700;0.854559814453125;0.0018495003242045;0.0108912137074396;0.0074053078204393;-0.0097578428685665;-0.0089714117348194;0.0078517869114875
1768216468784560600;0.864560546875;-0.0138180244069546;0.0151088679350912;0.0104325466871261;-0.0099541172385215;-0.0102329514920711;-0.0006817807443439
1768216468794561800;0.874561767578125;0.0061245472948998;0.0029661563292145;0.0459299765259027;-0.0082191824913024;-0.014900928363204;-0.0086424928158521
1768216468804562000;0.88456201171875;0.0141349814016371;-0.0012479542344808;0.0522369677156209;-0.0061938487924635;-0.0147730968892574;-0.0087287798523902
1768216468814562800;0.894562744140625;-0.0241547825694084;-0.0156297134714201;0.0196685770660638;-0.0073702028021216;-0.0077122803777456;-0.0051644220948219
1768216468824562700;0.904562744140625;-0.0301121566038578;-0.0167559775549918;-0.0130190560489892;-0.0068887034431099;-0.0084710149094462;-0.0033761090599
1768216468834563800;0.914563720703125;-0.0161981975417584;0.0014597338216379;-0.0202981071412563;-0.0081301284953951;-0.0102072115987539;-0.0004388247616589
1768216468844564700;0.924564697265625;-0.1167336244802921;0.0333600524839013;-0.0211421567499637;-0.0101847574114799;-0.0056177861988544;0.0034776201937347
1768216468854564600;0.934564697265625;-0.0766342538040131;0.0355610331268981;-0.0161269589364528;-0.009900938719511;-0.0004891245625913;0.0050299642607569
1768216468864565800;0.944565673828125;-0.0111621030706912;0.0493963739948347;0.0023743279159069;-0.0093528600409626;0.0006837313994765;0.0051383548416197
1768216468874566000;0.95456591796875;-0.0114122419068589;0.048596930712834;0.0023410101681947;-0.0070714210160076;0.0027942275628447;0.0088439788669347
1768216468884566800;0.96456689453125;-0.0198773244459182;0.0309430910026654;0.021639584878087;-0.0023328582756221;0.0048387362621724;0.0084149437025189
1768216468894566700;0.974566650390625;0.0330067090015858;0.0125289709771052;0.0559188710987567;-0.0026794564910233;0.005521934479475;0.0059355865232646
1768216468904567800;0.98456787109375;0.0072608943810686;0.0057089887639507;0.0514338346391916;0.0003104743082076;-0.001420926535502;0.0042330278083682
1768216468914568700;0.994568603515625;-0.0073977090358734;0.0028321546860039;0.0285199920415878;-0.0002561499131843;-0.002891551470384;0.0013007482048124
1768216468924568600;1.004568603515625;-0.0008616217980161;-0.0105334497783333;0.0129319622874259;-0.0004636101657524;-0.0032191202044487;-0.0026852050796151
1768216468934569700;1.01456982421875;-0.0025496844828128;-0.0269641409017145;-0.0022112463086843;-0.0024807541631162;-0.0054054390639066;-0.0060464525595307
1768216468944569900;1.02456982421875;-0.0310743526995182;-0.0201141654090955;-0.0025508535265922;-0.0026629148051142;-0.0011174837127327;-0.0061812084168195
1768216468954570800;1.03457080078125;-0.031008813182637;-0.0204656091952696;-0.0025748189240694;-0.004713010508567;0.0018401355482637;-0.0031013004481792
1768216468964571600;1.044571533203125;-0.0483457324307411;-0.0198629305943846;0.0099842183977365;-0.0041548116132617;0.0060404734686017;-0.0029012970626354
1768216468974571800;1.05457177734375;-0.0126805448096245;-0.0208245787007734;0.0269032044947147;-0.0033533927053213;0.0056442497298121;-0.0076795280911028
1768216468984573000;1.064572998046875;-0.0280383825371041;-0.0138895187405869;0.0117968207776546;-0.0029571144841611;0.003393611870706;-0.0116947758942842
1768216468994572800;1.07457275390625;-0.065509633199498;-0.0067478668250143;0.0159872582048177;-0.0052271820604801;0.0062099979259073;-0.0095089292153716
1768216469004573700;1.08457373046875;-0.0505097785968333;0.0060819502621889;0.0444213255286216;-0.0052532809786498;0.0058315624482929;-0.0022736536338925
1768216469014573800;1.09457373046875;-0.0509527731239795;0.0054554523942992;0.0444102196127176;-0.0060970964841544;0.0027874880470335;-0.0029004774987697
1768216469024574700;1.10457470703125;0.0275439135510474;0.0272030642241239;0.0648562107920646;-0.0081221647560596;-0.0064544798806309;-0.006462721619755
1768216469034575600;1.11457568359375;0.0285364317197352;0.0261101178882643;0.0647357992827892;-0.0132583314552903;-0.0127809066325426;-0.0057021607644855
1768216469044575700;1.12457568359375;-0.0280429491143673;0.0545374997429549;0.0201227505743503;-0.0127363512292504;-0.0187256149947643;-0.003571099601686
1768216469054577000;1.134576904296875;-0.0262135051975026;0.0530853647058829;0.0199357035696506;-0.0178884416818618;-0.0199842732399702;0.0034810614306479
1768216469064576800;1.14457666015625;-0.1451204551288858;0.0373355319861322;-0.0358241775751113;-0.0249191876500844;-0.0249942112714052;0.0145118748769164
1768216469074578000;1.154577880859375;-0.1021639779884368;0.0526448543967679;0.019586159479618;-0.0282927043735981;-0.007250428199768;0.020316869020462
1768216469084578800;1.164578857421875;-0.0628653292357921;0.0789205015776678;0.0337865342676639;-0.0347213111817836;0.004598774947226;0.0331945829093456
1768216469094578700;1.17457861328125;0.0944787572480738;0.0078732541257515;0.1107265660852193;-0.0306198634207248;0.0142785068601369;0.021098606288433
1768216469104579600;1.18457958984375;0.0930757220497354;0.005061338510178;0.1106447330206632;-0.0242959223687648;0.0124425236135721;0.005642419680953
1768216469114579700;1.194579833984375;0.0927472572803497;-0.0046735813016071;0.1316845984399318;-0.0174415092915296;0.0074162306264042;-0.0016661481931805
1768216469124580900;1.204580810546875;0.0043325493115931;-0.0627857977261766;0.09690554600358;-0.0140875242650508;0.0019684680737555;-0.0042574042454361
1768216469134580700;1.214580810546875;-0.0223416687328368;-0.063767063848488;0.0390916549384594;-0.0065480736084282;-0.0016425782814621;-0.0104527371004223
1768216469144582000;1.224581787109375;-0.0092483418712392;-0.0310475377578288;-0.0083919807702302;-0.0052023781463503;-0.005702300928533;-0.0140448091551661
1768216469154582800;1.234582763671875;-0.0565817919868975;-0.0133219114530831;-0.0415144981712102;-0.0006861765868961;-0.0051607759669423;-0.0119492653757333
1768216469164582700;1.244582763671875;-0.0209761525332927;0.0151478117059916;0.0088993457704782;0.0030715437605977;-0.0027572731487452;-0.0088272411376237
1768216469174583600;1.25458349609375;-0.0179717465529218;0.0376481050666421;0.0048702363848686;0.0050403391942381;0.0011970209889113;-0.0112256575375795
1768216469184583700;1.264583740234375;-0.0459026135949417;0.0678608725007623;-0.0114110363304615;0.0034419097937643;0.0031043766066432;-0.0128272827714681
1768216469194584800;1.274584716796875;-0.0230980400580912;0.0549119225459173;0.0008937339693307;0.0052814157679677;0.0047805216163396;-0.0073298765346407
1768216469204585700;1.284585693359375;-0.0074796516982838;0.0434026134727522;0.0224812963992357;-0.0010252160718664;0.0035277707502245;-0.0047684479504823
1768216469214585900;1.2945859375;0.0230113846879452;0.04030625489261;0.0580997222691774;-0.0025280131958425;0.0014799954369664;-0.0032559456303715
1768216469224586800;1.304586669921875;-0.0271696734111756;0.0525843563811853;0.027842531171441;-0.0059059667401015;-0.003476679790765;-0.0048288088291883
1768216469234586600;1.314586669921875;-0.0478139271089807;0.0279744139228016;0.0086257895261049;-0.0065563414245843;-0.008753309957683;-0.0085213361307978
1768216469244587800;1.324587890625;-0.054165305429697;0.0369183294873684;-0.0007505261063575;-0.0086093721911311;-0.0146900285035371;-0.0078243874013423
1768216469254587600;1.334587646484375;-0.0781388862133026;0.0324292744398117;-0.0161544314652681;-0.0079644145444035;-0.0200453307479619;-0.0079904114827513
1768216469264588800;1.3445888671875;-0.0493184499204158;0.0187774734452366;0.0181055655330419;-0.0050269477069377;-0.0227186121046543;-0.0002169110812246
1768216469274589700;1.354589599609375;-0.0301741889894008;0.0286656841225922;0.0291968683898448;-0.0028661927208304;-0.0190623644739389;0.0025779535062611
1768216469284589800;1.36458984375;-0.0334183220097795;0.0293578311052173;0.0328156434088945;-0.0020986697636544;-0.0180580858141183;0.0081631345674395
1768216469294590700;1.3745908203125;-0.0027916765451431;0.0178208303075283;0.0615904869943857;-0.0033308411948382;-0.0167160630226135;0.006998015101999
1768216469304590600;1.384590576171875;-0.0015291092634201;0.023707221464999;0.0276718507796525;-0.0053905299864709;-0.0113082490861415;0.0051154266111552
1768216469314592000;1.394592041015625;0.0128875386238098;-0.0104113943012431;0.01635609151721;-0.0050943503156304;-0.0107367122545838;-0.0013291402719914
1768216469324593000;1.404593017578125;-0.0138742846388369;-0.0128178343884646;0.0081827219337224;-0.0043230988085269;-0.0113891866058111;-0.0035382322967052
1768216469334592500;1.414592529296875;-0.0330406843364238;-0.0080086805410683;0.0251531459569931;-0.0036681676283478;-0.0109402267262339;-0.0058729154989123
1768216469344593400;1.424593505859375;-0.0321638284366577;-0.0082049337655305;0.0250946937680244;-0.0004252361832186;-0.0056357425637543;-0.0070148790255188
1768216469354593500;1.434593505859375;-0.0222936648726463;0.0101694022389128;0.0029471593677997;0.000251097488217;0.0062972716987133;-0.0067749586887657
1768216469364594700;1.4445947265625;0.0116495212614536;0.0016153627747669;0.016454875716567;0.0023169114720076;0.006756667047739;-0.0076609919779002
1768216469374594800;1.4545947265625;0.0110147304892539;0.0018341931572183;0.0165022219896316;0.0006312759360298;0.0063293282873928;-0.0092106387019157
1768216469384595700;1.464595703125;0.0149731857914477;0.0128788073280826;-0.0114443540781736;0.000268287025392;0.0061261286027729;-0.0125920539721846
1768216469394596600;1.4745966796875;0.0286497559010982;0.0165779906395822;0.0243535200119018;-0.0021871835924685;0.0083557069301605;-0.0131537308916449
1768216469404596500;1.484596435546875;0.1113280391097068;-0.0223455777229741;0.0665706134945154;-0.0034527177922427;0.0030166013166308;-0.0141071425750851
1768216469414597600;1.49459765625;0.1177951527645811;-0.0552042930886149;0.0856850638091564;-0.0046473569236695;-0.0106459092348814;-0.0133378747850656
1768216469424597500;1.504597412109375;0.0508031355202198;-0.0498179604077711;0.0737625708252191;-0.0027969926595687;-0.0174707919359207;-0.0097151761874556
1768216469434598700;1.5145986328125;-0.0396153865516185;-0.0347253494877368;0.0434141943126916;0.000106657622382;-0.0207178052514791;-0.0089495554566383
1768216469444599600;1.524599609375;-0.0672667790651321;-0.0445548157151788;-0.0151899703472852;-0.0030846083536744;-0.011488621123135;-0.0094307884573936
1768216469454599700;1.534599609375;-0.0295884980559349;-0.0020388488838449;-0.0405254871338605;-0.0012755641946569;-0.0028548543341457;-0.008009972050786
1768216469464600600;1.5446005859375;-0.0247031006345525;-0.00262494167611;-0.0589355885714292;-0.0027972944080829;0.0033148908987641;-0.0114385243505239
1768216469474600400;1.554600341796875;-0.0341653409847989;-0.012002828211151;-0.0330441914677619;-0.0070725823752582;0.0074404058977961;-0.0114651480689644
1768216469484601600;1.5646015625;-0.0096130469977855;-0.0154015672713518;-0.0042962358891963;-0.0058965305797755;0.0093938345089554;-0.0067737232893705
1768216469494602800;1.574602783203125;-0.0101403222749009;0.0313532427061349;0.0340098216295242;-0.004864846356213;0.0019133510068058;-0.0022685471922159
1768216469504602600;1.5846025390625;-0.0198129539728164;0.0438856112167239;0.0441466002404689;-0.0044938679784536;-0.0055208629928529;0.0051363720558583
1768216469514603500;1.594603515625;-0.0371498001556843;0.0456506846604868;0.0396142175078392;-0.0019782586023211;-0.0015081171877682;0.0045585632324218
1768216469524603600;1.604603759765625;-0.0387315894544124;0.0453602868791669;0.029269349104166;-0.0003393492661416;-0.0026974850334227;0.007253149524331
1768216469534604500;1.6146044921875;-0.0385596669536083;0.0453441394619643;0.029259996753931;0.0020813005976378;-0.0042211804538965;0.0124999117106199
1768216469544604400;1.6246044921875;0.0072785396356135;0.0471651443440467;0.0268646260499954;0.0022256439551711;-0.0007004814688116;0.016923688352108
1768216469554605600;1.63460546875;0.0408955625552684;0.0239509305603802;0.0289776726812124;0.0082574132829904;-0.0030043120495975;0.0171816553920507
1768216469564606700;1.644606689453125;0.0412647977264598;0.024592735595256;0.0289934547722339;0.0072850929573178;-0.0052943644113838;0.0133203379809856
1768216469574606600;1.654606689453125;-0.0038578810045495;-0.0217637592470273;0.0101624975740909;0.0060945390723645;0.0001779971644282;0.0076121650636196
1768216469584607500;1.664607421875;-0.0602126958351582;-0.0474056020364165;-0.0025058453410863;0.0059190369211137;0.0056907404214143;0.0047647133469581
1768216469594607600;1.674607666015625;-0.0635760347884148;-0.0440401807239279;-0.0325093539386987;0.0051571913063526;0.0127938045188784;0.0045963381417095
1768216469604608500;1.6846083984375;-0.0768295571804046;-0.0390931893084198;-0.0189309104412794;0.0041491850279271;0.0176625959575176;0.0066573587246239
1768216469614609700;1.694609619140625;-0.0348725759387016;-0.0311326222253963;-0.0004044891476631;0.0027208165265619;0.0219862479716539;0.0061961077153682
1768216469624609800;1.70460986328125;-0.0079682389328256;-0.0311003639236092;0.0302642053604125;0.0034529194235801;0.0280124470591545;0.0092930980026721
1768216469634610700;1.714610595703125;-0.0283224236428737;-0.0149711399648338;0.0751940649330615;0.0057683927007019;0.0318968370556831;0.0052743409760296
1768216469644610600;1.724610595703125;-7.01426267623e-05;0.0017305501196533;0.0523462733089923;0.0029443765524774;0.0299268998205661;0.0012103572953492
1768216469654611700;1.73461181640625;0.0038626667775213;-0.0154477810332551;0.0704442400574684;-0.0003018956631422;0.0172818452119827;0.004460166208446
1768216469664611600;1.744611572265625;0.0300128609478473;0.015021116586402;0.0730360101163387;-0.0008853942854329;0.0050749792717397;0.0094075202941894
1768216469674612500;1.754612548828125;0.0401543887991458;0.0212498914407566;0.0122656073331832;-0.0012992435367777;-0.0140657797455787;0.0017761944327503
1768216469684613600;1.764613525390625;0.0895078369677066;0.0384290993764996;0.0101204119980335;-0.0034108636900782;0.0011584465391933;0.0145476497709751
1768216469694613800;1.77461376953125;-0.0260229510614648;0.0429681310456246;-0.0124801268666982;-0.0042310142889618;0.0023077651858329;0.0130049474537372
1768216469704614700;1.78461474609375;0.0368552741885185;0.0005676438201218;0.0265869781523942;-0.0021529495716094;0.0083491457626223;0.0064615607261657
1768216469714614500;1.794614501953125;-0.0110229868609458;-0.0023614684343338;-0.0096048636913299;-0.0010835031280294;0.0041674822568893;5.98798505961e-05
1768216469724615700;1.80461572265625;-0.0142049778979271;-0.035813656181097;-0.0188595987707376;-0.0023029646836221;0.0059448760002851;-0.0014405450783669
1768216469734616600;1.814616455078125;-0.0834615425407886;-0.0200267063213512;-0.0234627086520195;0.0005658165900968;0.0070825088769197;0.0031151515431702
1768216469744616400;1.824616455078125;-0.0126771838087588;-0.0161248765772208;-0.0057967035800218;0.0004928460111841;-0.005419700872153;0.0007920761127024
1768216469754617600;1.83461767578125;0.0482009171325713;-0.0115591030316427;0.0248269827425479;0.0012025603791698;-0.0154260145500302;0.0013336315751075
1768216469764617700;1.84461767578125;-0.0040519057393074;-0.0086853742262348;0.0730792647361755;0.0022989837452769;-0.0177831780165433;0.0056274458765983
1768216469774618600;1.85461865234375;-0.0147907418966293;0.0017499489398673;0.0553349337309598;0.0028745657764375;-0.0186691544950008;0.0054437005892395
1768216469784619500;1.86461962890625;-0.0180278971869498;0.0165045600771903;0.0377460855484008;-0.0009361513657495;-0.0139953074976801;0.0106858666986227
1768216469794619600;1.87461962890625;-0.0154126731872558;0.0344659678991884;0.0204763863176107;0.0008244946948252;-0.0109876915812492;0.0116971246898174
1768216469804620500;1.88462060546875;-0.0244786076962947;0.029243009086512;-0.0062280807346105;-0.0002503570867702;-0.0150226466357707;0.0123799592256546
1768216469814620400;1.894620361328125;-0.0114308370094746;0.0238988350469619;-0.01991816791296;0.0002992341760545;-0.0157224051654338;0.0093187186866998
1768216469824621600;1.90462158203125;-0.0143698130708187;0.0105090459894388;0.0006429740786552;-0.0029285168275237;-0.016618825495243;0.0069801975041627
1768216469834621700;1.91462158203125;-0.0194529615540057;0.0107407358534634;0.0083218381434679;-0.002177310641855;-0.0168524291366338;0.0076952218078076
1768216469844622600;1.92462255859375;-0.0399018753428012;0.002995090162754;-0.0100163671016693;0.0007646834128536;-0.0140859372913837;0.0096736839041113
1768216469854623500;1.93462353515625;-0.0417043947201222;0.0157049341320991;-0.0124836339980363;0.0025194571353495;-0.0164018161594867;0.0070381062105298
1768216469864623600;1.94462353515625;-0.0386310516893863;0.012991948846355;0.0438520012080669;0.0030811177566647;-0.0172588229179382;0.0060740420594811
1768216469874624500;1.95462451171875;-0.0371791358480229;0.0133653122033923;0.0437941335409879;0.0041389861144125;-0.0114097706973552;0.0091088227927684
1768216469884624600;1.964624755859375;0.0085574004650115;-0.0020079788215458;0.0935720176666975;0.0035512261092662;-0.0135197937488555;0.0127459019422531
1768216469894625500;1.97462548828125;-0.0282569937238469;0.0115276484474539;0.0234732300460338;-0.0014167914632707;-0.0138131957501173;0.0137946857139468
1768216469904626700;1.984626708984375;-0.044412082776241;-0.0003158244835212;-0.000109890115261;-0.0013203851412981;-0.0181110054254531;0.0114108901470899
1768216469914626600;1.99462646484375;-0.0649695349734276;-0.0041870764262974;0.0054758010625839;-0.0007201934931799;-0.0189721528440713;0.0101635288447141
1768216469924627500;2.00462744140625;-0.0631762218158692;-0.0043719680065289;0.0053705871224403;-0.0029412698931992;-0.0189849361777305;0.0078638885170221
1768216469934627600;2.014627685546875;-0.0589092120211571;-0.0011922785244882;0.0176683431595563;-0.0040424321778118;-0.0186192467808723;0.0097077433019876
1768216469944628700;2.024628662109375;-0.0505038603127002;0.0106015831110998;0.0305786781370639;-0.0045500304549932;-0.0136378025636076;0.0110129583626985
1768216469954628600;2.034628662109375;0.0128290864348411;0.0148406819855794;0.0331844767212867;-0.0051072491332888;-0.0104440208524465;0.0074622295796871
1768216469964629800;2.044629638671875;0.0037689240794628;0.0104257150875404;0.0347433966010808;-0.0028731231577694;-0.0153666073456406;0.0038030459545552
1768216469974630700;2.054630615234375;-0.0187643217027187;0.0098237306063994;0.0169710085451602;-0.0039057335816323;-0.0187995880842208;0.001646616263315
1768216469984630500;2.064630615234375;-0.009595547873713;-0.0042080096164718;0.0255313316196203;-0.0037115891464054;-0.0188949294388294;0.0024522226303815
1768216469994631400;2.07463134765625;-0.0243336828002706;-0.0133479957424104;0.0255658184111118;-0.0027224123477935;-0.0176816247403621;0.0029363599605858
1768216470004631600;2.084631591796875;-0.0225228705186396;-0.0135749728986993;0.0254594354271888;-0.002806834410876;-0.0188736543059349;0.0017459269147366
1768216470014632700;2.0946328125;-0.0456991269120946;-0.0120827615795657;0.0092038816750049;0.0008114568190649;-0.0133370403200387;0.0057800374925136
1768216470024633600;2.104633544921875;-0.0415209279119968;0.0036652079766616;0.0246995569705963;0.0011227803770452;-0.0121561959385871;0.0081380000337958
1768216470034633700;2.1146337890625;-0.040491000342369;0.00374853887856;0.0246510416537523;0.000930379203055;-0.01077551394701;0.0074128676205873
1768216470044634600;2.124634521484375;-0.0544891670892015;0.007989537449181;0.0117354459792375;0.000692026282195;-0.011144895106554;0.0042724679224193
1768216470054634500;2.134634521484375;-0.0126116808244958;0.0023080577466636;0.0167629187524318;-0.0011878503719344;-0.0147347096353769;0.003991690929979
1768216470064635400;2.144635498046875;0.0031564182043075;0.0159993505014106;0.0250508546262979;-0.0014807981206104;-0.0191781930625438;0.005903307814151
1768216470074636800;2.15463671875;-0.0041045857746154;0.003089709643647;0.0389952088266611;-0.0040060863830149;-0.0217875279486179;0.0059605911374092
1768216470084636700;2.16463671875;0.0041945290803909;0.0255299433801323;0.030794951236248;-0.0016784836770966;-0.0203219894319772;0.0094096511602401
1768216470094637600;2.174637451171875;-0.000792611682415;0.0202634742192924;0.0175134448587894;-0.0042475746013224;-0.0185345262289047;0.0029928740113973
1768216470104637700;2.1846376953125;0.0308264788856729;0.0107073815731331;0.00932487770617;-0.0006839988054707;-0.017606945708394;-0.0068602892570197
1768216470114638600;2.194638671875;-0.0143242934286594;-0.0115212917719036;-0.0054208560049533;0.0008167469059117;-0.0157893002033233;-0.0093957362696528
1768216470124638500;2.204638427734375;-0.0457680639624595;-0.031052104335092;0.0075204586327075;0.0003885106416419;-0.0161754582077264;-0.0026552760973572
1768216470134639600;2.2146396484375;-0.032456089381501;-0.0248054650304839;0.0147848966777324;0.0021432430949062;-0.0142342112958431;0.0001643858850002
1768216470144640800;2.224640869140625;0.0059084203261882;-0.0126032052570953;-0.0030874446213245;0.000577837054152;-0.0155234467238187;-0.0018052877858281
1768216470154640600;2.234640625;0.0123872609514743;-0.0060215618444606;0.0131616793900728;-0.0016705243615433;-0.010444700717926;-0.0007887128740549
1768216470164641500;2.2446416015625;-0.0164157492825761;-0.0007112170092761;0.016249708533287;-0.004450065549463;-0.0043319468386471;-0.0046569546684622
1768216470174641700;2.2546416015625;-0.024178236510232;0.0035959786653518;0.0328244112372398;-0.0045549878850579;-0.0018371858168393;-0.0045904139988124
1768216470184642600;2.264642578125;-0.0300491743702441;0.0003050838937982;0.0380313322305679;-0.0045733638107776;-0.002762634307146;0.0002818391658365
1768216470194643500;2.2746435546875;-0.0134417384404689;0.0079373688705265;0.0272410581469535;-0.0026143728755414;0.0020360071212053;0.0068853585980832
1768216470204643600;2.2846435546875;-0.0252163473863154;0.0162644677110016;0.0166407536774873;0.000471165520139;0.0092233456671237;0.0088899200782179
1768216470214644700;2.294644775390625;-0.0173193835914134;0.034297077605687;-0.022648469659686;0.0002535246312618;0.0166866369545459;0.0101713240146636
1768216470224644600;2.30464453125;0.0226759421885013;0.0006467004057019;-0.0447147555172443;0.0007241051644086;0.0149774216115474;0.0066229277290403
1768216470234645500;2.3146455078125;0.0433516504704952;0.019358451670967;-0.0054348845303058;0.0021858536638319;0.0101875085383653;0.0038296945858746
1768216470244646700;2.324646728515625;0.0498597171902656;-0.0075189973279833;-0.0066015902221202;0.000496078049764;0.0012933500111103;-0.0002737040631473
1768216470254646500;2.334646484375;-0.0593020837962627;-0.0321099428249523;0.0308165785461664;-0.0002281867200508;0.0040124277584254;-0.0014697383157908
1768216470264647400;2.3446474609375;-0.0593383241534233;-0.0370066288253292;0.0307008432120084;-0.0036697895266115;0.0138762425631284;-0.0009810482151806
1768216470274647800;2.354647705078125;-0.0609480974376201;-0.0373564651763066;0.0307622180104255;-0.0045984275639057;0.0189944840967655;-0.0015603243373334
1768216470284648700;2.364648681640625;-0.0427765174636617;-0.0355766325548291;0.0413134226411581;-0.0030146460048854;0.0226289015263319;0.0018176292069256
1768216470294649600;2.374649658203125;-0.0081225161790847;0.0031864845490083;0.0316793328553438;-0.0034793131053447;0.0221005678176879;0.0037448410876095
1768216470304649500;2.3846494140625;-0.0217441412311047;0.003061616060324;0.0049853871971368;-0.0023717046715319;0.0229647643864154;0.0020793001167476
1768216470314650600;2.394650634765625;-0.0378407050292938;0.0247726222068071;-0.0011807342171669;0.0003208303824067;0.0284673571586608;0.0035514703486114
1768216470324650500;2.404650390625;0.0022528204280883;0.0323276041636243;0.0169335991442203;0.0010012680431827;0.0317177437245845;0.0040082023479044
1768216470334652400;2.41465234375;0.0914624416342005;0.0271770164674147;0.0570212793827056;0.0003682649694383;0.0173333194106817;-0.0020799953490495
1768216470344652300;2.42465234375;0.0462403211167082;-0.0025322218913584;0.0527419946283102;0.0031288978643715;0.0034886109642684;-0.008568787947297
1768216470354653400;2.4346533203125;0.0463841135015711;-0.0021854542803019;0.0527536850661039;0.002915329998359;-0.0039221649058163;-0.0091119203716516
1768216470364654300;2.444654296875;-0.0434008233744651;-0.0039253932828083;0.0023141221612691;0.0039696753956377;-0.0069523090496659;-0.0086495960131287
1768216470374654200;2.454654296875;-0.042796391207911;-0.0036470877980813;0.0022989245921373;0.0014317616587504;-0.004846045281738;-0.0062069687992334
1768216470384655400;2.4646552734375;-0.003884732478857;-0.0084548534059897;0.0339893633633852;-0.0018907982157543;-0.006301462650299;-0.0027424627915024
1768216470394655500;2.474655517578125;-0.0212602301716804;0.0069607789233326;0.0008732757031917;-0.0029406766407191;-0.0045354720205068;-0.0041327429935336
1768216470404656400;2.484656494140625;-0.0531623023996129;0.0214834079356864;-0.0203968913406133;-0.0020013800822198;-0.0011604479514062;-0.0063740592449903
1768216470414657300;2.4946572265625;-0.0594237008819356;0.0171716822164133;-0.017404139265418;-0.0004495255416259;0.0046879625879228;-0.0059167398139834
1768216470424657400;2.504657470703125;-0.0288800940582528;0.0234487166592851;0.0109060094177722;-0.00185008184053;0.0089940279722213;-0.0040370803326368
1768216470434658300;2.514658203125;-0.00315174202919;0.0356130921076983;0.0064577978372573;0.0021830694749951;0.0056405263021588;-0.0054156892001628
1768216470444658200;2.524658203125;-0.0129950906515121;0.0497314511680975;0.0216039290428161;0.0017742743948474;0.0048170769587159;0.0015615266747772
1768216470454659600;2.53465966796875;-0.0067559405336156;0.0343024844331666;0.0324111542612314;0.0011958299437537;0.0052864137105643;0.0007761986926198
1768216470464660500;2.544660400390625;0.0065161769609898;0.012546250905469;0.0259995336532592;-0.0004958099452778;0.0017984714359045;-0.0028675384819507
1768216470474660400;2.554660400390625;-0.0104431411463767;0.0088684026429429;0.0273445185214281;0.0019179281080141;-0.0019209100864827;-0.0007085222750902
1768216470484661200;2.5646611328125;-0.0067267509717494;-0.020571809516102;0.0108726916700601;-0.0007654729997739;-0.0039446461014449;0.0033197752200067
1768216470494661400;2.574661376953125;-0.0227659950921311;-0.0140578975774347;0.0166904380381107;1.34652946144e-05;0.0006322255358099;0.0013064285740256
1768216470504662300;2.584662353515625;-0.0230746591825038;-0.0141117831891402;0.0167032975196838;0.0007857819437049;0.0038791517727077;0.0035269723739475
1768216470514662400;2.594662353515625;-0.021277765828371;0.0027697204416617;0.010274141255021;-0.0007654248038306;0.0043333680368959;0.0056622317060828
1768216470524663600;2.60466357421875;-0.0063525108318775;0.0137061980629339;0.0101426238298416;0.0002050310140475;0.0067041139118373;0.0006674730684608
1768216470534664400;2.61466455078125;-0.0134919707903638;0.0035173239385709;0.005216273343563;-0.0012441702419891;0.0027110297232866;-0.0083178672939538
1768216470544664300;2.624664306640625;-0.0126876686701551;-0.0126829194298014;0.0195686238229274;0.0003641127841547;-0.0032938658259809;-0.0074749770574271
1768216470554665200;2.634665283203125;-0.0078992288172245;-0.021078480396606;0.0572609333574771;0.0023912440519779;-0.0046484777703881;-0.0091757429763674
1768216470564665300;2.644665283203125;0.0014472761988639;-0.0084029405556619;0.074590838342905;0.0028732761275023;-0.0101716071367263;-0.0091933198273181
1768216470574666500;2.65466650390625;0.021024083328247;-0.0246421642275527;0.0639180531591177;0.0015974101843312;-0.0100416056811809;-0.0060256076976656
1768216470584667400;2.66466748046875;-0.0054863224565982;-0.0141419225990772;0.0273562089592218;-0.0015752135077491;-0.007953954860568;-0.0003275084309279
1768216470594667500;2.67466748046875;-0.0207142867267131;0.0064470207149162;0.0120563484966754;-0.0007988355355337;-0.0027880915440618;0.0065203495323657
1768216470604668400;2.68466845703125;-0.0067535659134387;0.0357952437415719;0.0187649062246084;0.0003780154511332;-0.0053079747594892;0.0061760027892887
1768216470614668300;2.694668212890625;-0.0067371993005275;0.0417484895901754;-0.0086444942265748;-0.0015331716276705;-0.0037408545613288;0.0022413600236177
1768216470624669400;2.70466943359375;-0.0433563266456127;0.0316556597188115;0.0046592239826917;-0.0035563751589506;0.0031348946504294;-0.0006987699307501
1768216470634670600;2.714670654296875;-0.029833924184367;0.0283696237854659;0.0164858553767204;-0.0005900195101276;0.0018270965665578;-0.0028107417747378
1768216470644670500;2.72467041015625;-0.0146702573221176;0.0025689006399363;0.0125964467227458;-0.0005149183562025;0.0006332015618681;-0.0028743911534547
1768216470654671400;2.73467138671875;-0.0317173267781734;-0.0048561347942799;-0.0203144737541675;-0.0012620438355952;0.005857712123543;-0.0031721629202365
1768216470664671500;2.74467138671875;-0.0339374139804393;-0.0107195104023441;-0.0169867906361818;0.000168073689565;0.0081206001341342;-0.0005678576417267
1768216470674672400;2.75467236328125;-0.0038555429169908;-0.0094706793850287;-0.0112596451610326;-0.0019185858545824;0.0082585122436285;-0.0016427421942353
1768216470684673300;2.76467333984375;0.0363677829325199;0.0003069105247035;-0.0042161563903093;-0.0022032777778804;0.0034935837611556;0.0010952537413686
1768216470694673400;2.77467333984375;0.0187478820245712;0.0160413264796137;-0.0075099372386932;-0.0033239661715924;0.0061126942746341;0.0044848700053989
1768216470704674600;2.784674560546875;0.0216086782831698;0.0243731014952063;0.011505144354701;-0.0025029135867953;0.0054045594297349;-0.0006995052099227
1768216470714674400;2.79467431640625;-0.0021978388378396;0.0024914514895528;0.0421861138224601;-0.0016591938911005;0.0051181125454604;-0.0009396676905453
1768216470724675300;2.80467529296875;-0.0116074722180143;-0.0202810098759829;0.0664484484195709;-0.0002692901762202;0.0065050865523517;-0.0013191681355237
1768216470734676500;2.814676513671875;0.0277354906003922;-0.0245167112169787;0.0322112477749586;0.0015454239910468;0.0017425762489438;0.0024915658868849
1768216470744676400;2.82467626953125;-0.0003578004617244;-0.0233884743720293;-0.0033919805258512;0.0027134865522384;-0.0006614592857658;0.0059105320833623
1768216470754677200;2.83467724609375;0.0122550859391689;0.0026168314348906;-0.0128156424313783;-0.0018400405533611;0.0021468051709234;0.0056496602483093
1768216470764677400;2.844677490234375;0.0209375740885734;0.0095303371503949;-0.0180523740410804;-0.0016701307613402;0.0049354010261595;0.0005196130368858
1768216470774678500;2.854678466796875;0.0079646952688694;0.0002691357975825;-0.01533025560081;-0.0038854936137795;0.0115471314638853;-0.0067183724604547
1768216470784678400;2.864678466796875;0.0067839610517024;-0.0001342939041554;-0.015291092634201;-0.0043518128804862;0.0131873730570077;-0.0110715758055448
1768216470794679300;2.87467919921875;-0.0313864873886108;0.000980462404713;-0.0119493809908628;-0.0046249683946371;0.0154719809070229;-0.0123632717877626
1768216470804680400;2.884680419921875;-0.0384545626113191;-0.006455934673734;-0.0250508546262979;-0.0035554431378841;0.0190486051142215;-0.0099981185048818
1768216470814680300;2.894680419921875;-0.0228244472810998;-0.0049775692168623;-0.0059650458842515;-0.0037571652792394;0.0185421705245971;-0.0073711294680833
1768216470824681200;2.90468115234375;0.0281482361197471;0.0037490868678316;0.0258411282211542;-0.0025933641009032;0.0193413868546485;-0.0039215376600623
1768216470834681600;2.914681640625;0.0368834043044596;0.0275273642750456;0.034737551382184;-0.0011907378211617;0.0133471917361021;-0.0015026982873678
1768216470844682500;2.9246826171875;0.0388462288100272;0.0294930748574435;0.0177180275201797;-0.0044150268658995;0.0077803861349821;-0.0044377683661878
1768216470854683400;2.934683349609375;0.0132592580130323;0.0128505676142871;0.0513917490631341;-0.0031769103370606;0.001478370744735;-0.0094342017546296
1768216470864683300;2.944683349609375;-0.0364005161583423;-0.0036291502825915;0.0470411526381969;-0.0062073217704892;0.0057255802676081;-0.0140539873391389
1768216470874684400;2.954684326171875;-0.0369500032672658;-0.0043241102768108;0.0470329693317413;-0.00713348435238;0.0069478526711463;-0.0129946451634168
1768216470884684300;2.964684326171875;-0.0302396554410457;0.0183082850309088;0.0028998130947351;-0.0055220057256519;0.0127647295594215;-0.0077791097573935
1768216470894685400;2.974685546875;-0.0147544284742325;0.0056860097471624;-0.0103688338011503;-0.0062535945326089;0.0193315502256155;-0.0095340181142091
1768216470904686300;2.984686279296875;-0.0288028275709599;-0.0086353610720485;0.0118663788825273;-0.0045502367429435;0.0262371264398098;-0.0125630982220172
1768216470914686500;2.9946865234375;-0.0168844993054866;-0.0050723713608458;0.0187222361266613;-0.0024200100451707;0.0259816907346248;-0.0123902559280395
1768216470924687400;3.004687255859375;-0.0146715724963694;-0.0189455965537577;-0.0281388837695121;0.00027271208819;0.023759551346302;-0.0133202318102121
1768216470934687500;3.0146875;-0.021052140378952;-0.0409151440385729;0.007445055308938;-0.0003715065540745;0.0220308899879455;-0.0153596810996532
1768216470944688400;3.0246884765625;-0.0345381563525646;-0.0314234583981335;0.014880758267641;0.0004018754698336;0.0184827633202075;-0.014551943168044
1768216470954689500;3.034689453125;-0.030507293401286;-0.017058248437196;0.0113707043200731;-0.0019988862331956;0.0169301107525825;-0.0135993547737598
1768216470964689400;3.044689453125;-0.0319534005563706;-0.017177490902692;0.0114437695562839;-0.0022476254962384;0.0138850510120391;-0.0129519402980804
1768216470974690600;3.054690673828125;-0.0082989687245339;-0.0048202597633004;0.0427718047559261;-0.0017621975857764;0.0120524019002914;-0.0165102612227201
1768216470984690400;3.0646904296875;0.0031680721094831;0.0140521254237741;0.0535907204121351;-0.0010737704578787;0.0072738914750516;-0.0241812299937009
1768216470994691300;3.07469140625;0.0065618427336215;-0.0075496847271919;0.051220484149456;0.0004745669430121;0.0050664679147303;-0.0272647328674793
1768216471004691500;3.08469140625;-0.019341829329729;0.0079452233834192;0.0217804546535015;0.0017669990193098;0.0063557033427059;-0.0298376120626926
1768216471014692400;3.0946923828125;-0.0235422401616349;-0.0092235727561637;0.0128378542631864;0.0008943055290728;0.0041848910041153;-0.0299573615193367
1768216471024693500;3.104693603515625;-0.018565511194989;-0.0077195979340001;0.0424888961613178;-0.000304383225739;0.0018527610227465;-0.0281469449400901
1768216471034693400;3.114693359375;-0.0327928470551967;-0.0128422381773591;0.0399596699446439;-0.0004578963853418;0.0040104645304381;-0.0258923042565584
1768216471044694500;3.124694580078125;-0.0659269818287342;-0.0176981172433122;0.0365431394994258;-0.0012973247794434;0.006329811643809;-0.022921547293663
1768216471054694400;3.1346943359375;-0.0394587346851825;0.009344970646128;0.0344791927069425;0.0031977160833775;0.0029035764746367;-0.0262068528681993
1768216471064695300;3.1446953125;-0.0067394643228501;0.0169866445057094;0.0307581263571977;0.0027998397126793;0.0018236646428704;-0.0280614793300628
1768216471074696200;3.1546962890625;-0.0213537536740303;-0.0021424919214099;0.0298918649166822;0.0039343582466244;0.0040416517294943;-0.0264961682260036
1768216471084696300;3.1646962890625;-0.0466740728914737;0.0054076677298173;0.0259065946727991;0.0037045278586447;0.009441478177905;-0.0241435319185256
1768216471094697500;3.174697509765625;-0.0256768775701522;0.0132940005328506;0.0105710783749818;0.0038479627110064;0.0109993489459156;-0.0259816758334636
1768216471104697300;3.184697265625;0.0024841814985498;0.0168873488496989;0.0064537061840295;0.003176313592121;0.0084890536963939;-0.0243861768394708
1768216471114698500;3.194698486328125;0.0084498484373092;0.0162888349672779;0.0234217921197414;0.0040517793968319;0.0058015384711325;-0.0290907137095928
1768216471124699400;3.204699462890625;0.0378466963786631;0.0051814942911267;0.0258686007499694;0.0036238096654415;0.0067613418214023;-0.0300875343382358
1768216471134699300;3.21469921875;-0.019815218995139;-0.0067742799079045;0.0106505733519792;0.001609987579286;0.0091602690517902;-0.0284104347229003
1768216471144700400;3.224700439453125;-0.0292506809363141;-0.0143819419000297;0.0342114816814661;0.0021519409492611;0.0151033792644739;-0.0252087786793708
1768216471154700300;3.2347001953125;-0.0952408641943708;0.0005902575107291;-0.0021907880425453;-0.000414716778323;0.0221996083855628;-0.0168370064347982
1768216471164701400;3.244701416015625;-0.0762462773997336;0.0174159758336842;-0.0138993460148572;-0.002490384504199;0.0244989823549985;-0.0159206129610538
1768216471174702300;3.254702392578125;-0.0237503299543634;0.0208957077082246;0.0118108493030071;-0.0042972965165972;0.0266909785568714;-0.0250933803617954
1768216471184702500;3.264702392578125;-0.0473802118668332;0.039431883210875;-0.0218728091120719;-0.0064251623116433;0.0340937674045562;-0.0217883978039026
1768216471194703400;3.274703369140625;-0.0024538228929042;0.0491955541931092;0.0003127192109823;-0.0051511791534721;0.0447135977447032;-0.0182978045195341
1768216471204703200;3.284703125;0.0419826636722311;0.0335770927680656;0.0057873512297868;-0.0009087633807212;0.0447463542222976;-0.0159382447600364
1768216471214704400;3.294704345703125;0.0399730774154886;0.0225735777925699;0.0269692554682493;-0.003803395666182;0.0409388989210128;-0.0226794816553592
1768216471224704500;3.30470458984375;-0.0121102341083809;0.0204175322698429;0.0396036961138248;-0.0003479439765214;0.0390384681522846;-0.0265559814870357
1768216471234705400;3.314705322265625;0.0283855520069599;-0.0345678573710843;0.056571197527647;0.0029650772921741;0.0301047377288341;-0.0256431084126234
1768216471244706300;3.324706298828125;0.0408032080966979;-0.0334868937339633;0.0598556260257959;0.0030154108535498;0.017487745732069;-0.0299054980278015
1768216471254706400;3.33470654296875;-0.0088449852347373;-0.0312500745926052;0.0771732560515403;0.0072715352289378;0.0116853471845388;-0.0338412225246429
1768216471264707300;3.344707275390625;-0.0349334758130833;-0.0386269965687766;0.0859627117067575;0.0098928846418857;0.0127311702817678;-0.0313825905323028
1768216471274707200;3.354707275390625;0.0082967037022113;-0.0009074702337384;0.0878799435049295;0.0089430380612611;0.0117568699643015;-0.0297640990465879
1768216471284708600;3.36470849609375;0.0078150211324915;1.7681787163e-05;0.0879594384819269;0.0062135644257068;0.0009582852944731;-0.0262186340987682
1768216471294709500;3.37470947265625;-0.0137912094652652;0.0054554158616811;0.0116658878743648;0.0037184185348451;-0.000430128769949;-0.0240950845181942
1768216471304709400;3.38470947265625;-0.0290811330556869;0.0306096577972173;0.0038946693509817;0.0008576507098041;0.0005248808301985;-0.0229302179068326
1768216471314710300;3.394710205078125;-0.0164064334649592;0.0571886353062465;-0.0062730889201164;-0.0001474739983677;0.0020520742982625;-0.0237740948796272
1768216471324710400;3.40471044921875;-0.0161842420816421;0.0572333877634257;-0.006283025792241;-0.0018873170483857;-0.0033131297677755;-0.0220955032855272
1768216471334710800;3.414710693359375;-0.0360965647757053;0.0245131310204043;-0.0021259061127901;-0.0011000024387612;-0.0051468340680003;-0.0227813310921192
1768216471344711700;3.424711669921875;-0.0280944601058959;0.0122969523195177;-0.0014051906228065;-0.0008696388686075;-0.0026682300958782;-0.0240540541708469
1768216471354712000;3.434712158203125;-0.0026338556349277;-0.0155111285930499;0.0235579857200384;-0.0001886870013549;-0.0043497513979673;-0.0243189260363578
1768216471364713000;3.444712890625;-0.0043885172825306;-0.0001917231798171;0.0170797296166419;-0.0015082833124324;-0.0097927199676632;-0.0223314091563224
1768216471374712800;3.454712890625;-0.003041888446547;-9.02720993384e-05;0.0170066643804311;0.0007086588302627;-0.016090216115117;-0.0167596265673637
1768216471384714000;3.4647138671875;0.0126045569639652;0.0068099357431754;0.0119669166475534;0.000838887412101;-0.0213789884001016;-0.01373241096735
1768216471394715000;3.47471484375;0.0171006993394345;0.0198642823012545;0.01331599316895;-0.0006471438100561;-0.0285593159496784;-0.009886085987091
1768216471404714800;3.48471484375;0.0203390967387706;0.0196587497917935;0.0131166712045669;-0.0012189244152978;-0.0384220667183399;-0.0135436709970235
1768216471414716000;3.4947158203125;0.0149789579451084;-0.0108420773360878;0.0502747277319431;-0.0021818690001964;-0.0465699657797813;-0.0183145757764577
1768216471424716000;3.504716064453125;0.012086707102321;-0.0253466957677155;0.0371183090388774;-0.0057955128140747;-0.0480786487460136;-0.0190011374652385
1768216471434717000;3.514717041015625;-0.0123475134629756;-0.0058122299427166;0.0281575884699821;-0.0064988834783434;-0.0425673462450504;-0.0172597505152225
1768216471444717800;3.5247177734375;-0.0085270053267478;-0.0064049351388588;0.0279085821449756;-0.0064216516911983;-0.0348657481372356;-0.0143920602276921
1768216471454718000;3.534718017578125;0.0010462941825389;-0.0116107236210256;0.039814123994112;-0.0073147071525454;-0.03202785551548;-0.0145288072526454
1768216471464718800;3.54471875;0.0169745887417346;0.0124343514962121;0.0291337400257587;-0.0061264047399163;-0.0314555428922176;-0.0117796249687671
1768216471474718700;3.55471875;-0.00196508952789;0.0169524134425446;0.021600421911478;-0.004402364604175;-0.0362373068928718;-0.0115137407556176
1768216471484719900;3.564719970703125;0.0095510876774787;0.0053208296965807;0.0131505734741687;-0.0051504466682672;-0.0359358377754688;-0.0125382589176297
1768216471494720000;3.574719970703125;-0.0154770436603575;0.0190432847745716;0.0060702598243951;-0.0052800821140408;-0.0284627899527549;-0.0101626086980104
1768216471504721000;3.584720947265625;-0.0610229527721181;0.029756986490637;-0.0201221660524606;-0.0042435796931385;-0.0159528572112321;-0.009182833135128
1768216471514721800;3.5947216796875;-0.0896575841693207;0.0261570257699117;-0.022129998743534;-0.0028084265068173;0.0005476255901157;-0.0114127900451421
1768216471524722000;3.604721923828125;-0.0872832562534138;0.0071397156868129;-0.0516004233777523;-0.0019871075637638;0.0051889829337596;-0.0070337546057999
1768216471534722800;3.614722900390625;-0.0121032198457047;-0.0027893749902024;-0.0321294147104024;-0.0031487541273236;0.0062200888060033;-0.0042770230211317
1768216471544722700;3.62472265625;0.0312741861205548;-0.0098750954674556;-0.0033761984348297;-0.000877610524185;0.0075985412113368;-0.0009137173183262
1768216471554724000;3.63472412109375;0.0445253704249858;0.0017544424518942;0.0050450084298849;-0.0036574900150299;0.0114464834332466;-0.0009395633824169
1768216471564725000;3.64472509765625;0.0504816484808921;0.0095042528610676;-0.0016477672070264;-0.0073632784187793;0.0130110904574394;-0.0025180191732943
1768216471574724900;3.654724853515625;0.0345627793371677;0.0138968983294442;0.0161731361657381;-0.0120660942047834;0.0129788173362612;-0.0038534849882125
1768216471584725800;3.664725830078125;0.0124222591996192;0.0194354258973151;0.0555278259545564;-0.0133838262408971;0.0128909321501851;-0.0031791725195944
1768216471594726000;3.674725830078125;0.0483294388830661;0.0158500051585957;0.0336649537146091;-0.0142770688980817;0.010667460039258;-0.001532157883048
1768216471604726800;3.684726806640625;0.0737573831934481;0.0243421218350529;0.0221264916121959;-0.0121220396831631;0.0102128582075238;-0.0008924668654799
1768216471614728000;3.69472802734375;0.1166121169924735;0.0107758436994627;0.0316869316399097;-0.0084661971777677;0.004650215152651;-0.0017074402421712
1768216471624728000;3.70472802734375;0.1301309392571449;-0.016285766227357;0.0340478155523538;-0.0087471604347229;0.0020062290132045;-0.0035218517296016
1768216471634729000;3.71472900390625;0.1062556312162429;-0.0251669187540188;-0.0194195707410573;-0.011379943229258;0.0012808018364012;-0.0103476690128445
1768216471644728800;3.724728759765625;0.094039050656557;-0.030018304307945;-0.0381546663492918;-0.008862723596394;0.0083259278908371;-0.0155759872868657
1768216471654729700;3.734729736328125;0.1203483809113502;-0.0346217064501717;-0.0683604195207357;-0.0088135097175836;0.0148104205727577;-0.0222723875194787
1768216471664731000;3.74473095703125;0.1220224516034126;-0.0467089980743825;-0.0464864413648843;-0.0101530794054269;0.0137419607490301;-0.0226633381098508
1768216471674730800;3.754730712890625;0.1205260755658149;-0.0476757972799241;-0.0464548771828412;-0.0122823007404804;0.0200960673391819;-0.0276110526174306
1768216471684732000;3.76473193359375;0.1560415525179356;-0.0549659177554771;-0.0477332265555858;-0.0131803192198276;0.0265054963529109;-0.0329184681177139
1768216471694732000;3.77473193359375;0.1624573378443717;-0.0535020192153751;-0.0778746823191642;-0.0158305875957012;0.0324343033134937;-0.037647146731615
1768216471704733000;3.78473291015625;0.1385926242627203;-0.0434296476101502;-0.1051625022172927;-0.0168918576091527;0.0322904922068119;-0.0408506616950035
1768216471714733800;3.79473388671875;0.1415267780184745;-0.0531911631679162;-0.0957867711067199;-0.0168610755354166;0.0346742086112499;-0.0453575626015663
1768216471724734000;3.80473388671875;0.1566331252029165;-0.075425024144724;-0.0935632498383522;-0.01609967648983;0.0401954762637615;-0.0482138022780418
1768216471734735000;3.814735107421875;0.1840144320707768;-0.0847499749161303;-0.0589811812788248;-0.0157468728721141;0.0473251603543758;-0.053493320941925
1768216471744735000;3.82473486328125;0.196667139025405;-0.0847598387230187;-0.0530868625432252;-0.0152762923389673;0.054578810930252;-0.0587946139276027
1768216471754735900;3.83473583984375;0.1917114528467878;-0.0857873186072334;-0.0528524692654609;-0.0124485371634364;0.052820686250925;-0.0661324933171272
1768216471764736000;3.844736083984375;0.188117921866849;-0.0765643669055774;-0.0523047722548246;-0.0136901028454303;0.0555839799344539;-0.0716782659292221
1768216471774737000;3.85473681640625;0.18873861104846;-0.0617898454913869;-0.0331920755058526;-0.0122237354516983;0.0543177537620067;-0.0766849443316459
1768216471784737800;3.86473779296875;0.1842589083511382;-0.0623348025556653;-0.0329524215310811;-0.0096916025504469;0.0458318591117858;-0.0818810388445854
1768216471794738000;3.874738037109375;0.0838005652368068;-0.063237852342613;0.0242728559911251;-0.0085697695612907;0.0456090308725833;-0.0866973400115966
1768216471804739000;3.884739013671875;0.0835948135316371;-0.0689258713837712;0.1051683474361896;-0.0087940078228712;0.0507188364863395;-0.0842437744140625
1768216471814739000;3.894739013671875;0.0830757580935955;-0.0405567590549588;0.0578413635939359;-0.0051241060718894;0.0503812804818153;-0.0844695270061492
1768216471824739800;3.90473974609375;0.0494890572469681;-0.0081389558572322;0.0270119255661964;-0.0043595125898718;0.0538433864712715;-0.0844801813364029
1768216471834741000;3.914740966796875;0.0361163654547184;-0.0076894219914451;0.0395639486253261;-0.0057355975732207;0.0492117740213871;-0.0838027372956276
1768216471844740900;3.924740966796875;-0.0135480848917737;0.014750446418859;0.038348143094778;-0.008009404875338;0.0541016049683094;-0.079244464635849
1768216471854741800;3.93474169921875;0.005585691177845;0.0343118733160197;0.0748643945872783;-0.0084127224981784;0.0580388307571411;-0.0790322050452232
1768216471864742000;3.944741943359375;-0.0119628249943256;0.0163891900692135;0.0745867466896772;-0.0087368283420801;0.0591762699186801;-0.0858024954795837
1768216471874743000;3.954742919921875;-0.0174047968525439;0.0160261654431;0.0749164170354604;-0.0084759537130594;0.0607536695897579;-0.0890760421752929
1768216471884744000;3.964743896484375;0.0149077193398028;0.0214698178017511;0.0636111791670322;-0.0092011326923966;0.0691463500261306;-0.083830676972866
1768216471894743800;3.974743896484375;0.1044832877814769;0.0312200082479044;0.1020189434945583;-0.0078778751194477;0.0677398070693016;-0.0827199444174766
1768216471904745000;3.984744873046875;0.0986124229867011;0.0311360928241163;0.102401805332303;-0.0041041751392185;0.0602123886346817;-0.0846387520432472
1768216471914744800;3.994744873046875;0.1273169778149575;0.0168744163028895;0.0844908855885267;-0.0060361111536622;0.0538647696375846;-0.0874816551804542
1768216471924745700;4.004745849609375;0.13887531366162;0.0017831570897251;0.0271872821331024;-0.0025998342316597;0.048198364675045;-0.0895059257745742
1768216471934747000;4.014746826171875;0.1805330927610397;0.0115063499310985;-0.0012491232782602;-0.0039306581020355;0.0476082749664783;-0.0919589400291442
1768216471944747000;4.0247470703125;0.2396772825818508;-0.0108855146190151;-0.0280418531358242;-0.0035223956219851;0.0487984418869018;-0.0988456085324287
1768216471954748000;4.034747802734375;0.2681937674921005;0.0043984176220372;-0.0404255338907241;-0.0006673231255263;0.0526239201426506;-0.1029613465070724
1768216471964748000;4.044748046875;0.3496142326593399;0.0162389314109459;-0.0830143832951784;0.0028722842689603;0.0516521334648132;-0.1104472279548645
1768216471974749000;4.0547490234375;0.4416167359869927;0.0305891264658421;-0.0648299073070287;0.0018595014698803;0.0582722201943397;-0.1203574910759925
1768216471984748800;4.064748779296875;0.5682195741832256;0.0037675358399748;-0.0747118343740701;0.0049093533307313;0.0634091943502426;-0.129339799284935
1768216471994749700;4.074749755859375;0.6704922001779079;0.0178901692166924;-0.0821919609963893;0.0040304497815668;0.0633977949619293;-0.1259593069553375
1768216472004750800;4.084750732421875;0.6973416286587715;-0.0151289243424311;-0.186185419434309;0.0065974709577858;0.0609386265277862;-0.1299830675125122
1768216472014751000;4.0947509765625;0.7736322566568851;-0.0174543716153129;-0.1881511665493249;0.0013643291313201;0.0549021996557712;-0.1358005255460739
1768216472024751900;4.104751953125;0.7850362787246704;-0.0557568124048411;-0.2699064896941184;0.0035654318053275;0.0537256151437759;-0.1395049840211868
1768216472034752000;4.114751953125;0.7672423364240676;-0.078283226587437;-0.3811205470353365;3.52604547515e-05;0.0627902075648307;-0.1379060447216034
1768216472044753000;4.1247529296875;0.7852969754874706;-0.0644848567290231;-0.507570751953125;-0.0005527654429897;0.057547241449356;-0.1397329717874527
1768216472054753800;4.13475390625;0.7879342651885003;-0.0626990327581763;-0.5810884081065655;-0.0007759140571579;0.0573365166783332;-0.1393467038869857
1768216472064754000;4.14475390625;0.6892061799328774;-0.0871404502492398;-0.539999441871047;0.0096202678978443;0.0831353589892387;-0.1372824907302856
1768216472074755000;4.154755126953125;0.5374922813557088;-0.126726939499937;-0.5554325733244418;0.0240945890545845;0.1311805695295334;-0.1366468220949173
1768216472084755000;4.1647548828125;0.5024643687248229;-0.0590384278913959;-0.5079734875351191;0.0291000008583068;0.1557125449180603;-0.1253334432840347
1768216472094755800;4.174755859375;0.5680722746670246;-0.0060617477243766;-0.530695022431016;0.0291092675179243;0.1653166711330413;-0.1180200204253196
1768216472104756700;4.1847568359375;0.6595464432716369;0.0601419686865061;-0.5236351670473813;0.0348289385437965;0.1850911676883697;-0.123371385037899
1768216472114756900;4.1947568359375;0.7235199529450387;0.0589557911092415;-0.4376251090675592;0.0372765213251113;0.2103514522314071;-0.1334164589643478
1768216472124758000;4.204758056640625;0.6467781471133232;0.0267032980084419;-0.3991735055983066;0.0361832939088344;0.2211633473634719;-0.1271151602268219
1768216472134758000;4.2147578125;0.5743699135065078;0.0066268342612311;-0.4295101916730404;0.046000599861145;0.2422540485858917;-0.1105067208409309
1768216472144759000;4.224759033203125;0.6165875915110111;0.0031744287850335;-0.4617728773742914;0.0594554208219051;0.2621766328811645;-0.1006016284227371
1768216472154760000;4.234760009765625;0.5984755962371826;0.0572159617045894;-0.3806751413553953;0.0653671771287918;0.2663329839706421;-0.093958668410778
1768216472164759800;4.244759765625;0.5416062925457954;0.0381795085296034;-0.2843149542748928;0.0818859711289405;0.2676155567169189;-0.098408542573452
1768216472174760700;4.2547607421875;0.4949963709317147;0.0096131200630217;-0.4011760775923729;0.0814102217555046;0.2783766090869903;-0.0981270372867584
1768216472184760800;4.2647607421875;0.5366880523007362;-0.0180072197251021;-0.4080138146579265;0.0789217576384544;0.2868662178516388;-0.1016839519143104
1768216472194762000;4.274761962890625;0.6238054139353335;-0.1062774411892518;-0.3741682436794042;0.071930430829525;0.2962522506713867;-0.1132881492376327
1768216472204763000;4.284762939453125;0.687031977698952;-0.1505127060938626;-0.4883288758665323;0.0689213275909423;0.3024345338344574;-0.1191313862800598
1768216472214763000;4.294762939453125;0.7136335688985884;-0.1879954645309597;-0.5319803860664367;0.0725632160902023;0.3153987228870392;-0.128440111875534
1768216472224764000;4.304763916015625;0.6500771886587142;-0.209222742281109;-0.5395908610701561;0.0684156119823455;0.3359804451465606;-0.1366346627473831
1768216472234763800;4.314763671875;0.5563444274723529;-0.210240248760581;-0.5683657046556473;0.0672633871436119;0.3637274801731109;-0.1340461522340774
1768216472244765000;4.324764892578125;0.4334334295313805;-0.1874239482533186;-0.5090875862568617;0.0743194371461868;0.3758400678634643;-0.1308857798576355
1768216472254764800;4.334764892578125;0.3277696267284453;-0.1965260500542819;-0.5411369214683771;0.0737757310271263;0.3801940381526947;-0.1244595795869827
1768216472264766000;4.344765869140625;0.1933854139409959;-0.1675602139413356;-0.6172662214249373;0.0731251239776611;0.3887054920196533;-0.1171097829937934
1768216472274766800;4.354766845703125;0.1554055196367204;-0.1594240345630794;-0.6118383511573076;0.0635571405291557;0.409449964761734;-0.1106348037719726
1768216472284767000;4.36476708984375;0.2162954571463167;-0.0795713301692157;-0.6615490152657032;0.067419521510601;0.4253272116184234;-0.1164167895913124
1768216472294767900;4.374767822265625;0.6041090720795095;-0.0041121845591813;-0.3702496089309454;0.0798141881823539;0.4354029595851898;-0.1315638273954391
1768216472304767700;4.384767822265625;0.5286344366393984;0.0578739506892859;-0.3307511267572641;0.0999298393726348;0.4411175847053528;-0.1322498470544815
1768216472314769000;4.394768798828125;0.3837862591132521;0.0245408592775464;-0.3933142581760883;0.115060843527317;0.4727946519851684;-0.1453147530555725
1768216472324770000;4.40477001953125;0.2221431602612137;0.0396405940581113;-0.4590905064225196;0.1369866579771042;0.5218945741653442;-0.1551221013069152
1768216472334770200;4.414770263671875;0.1731714779518544;0.0339422362860292;-0.4981546888321638;0.1509478241205215;0.5484194159507751;-0.156646728515625
1768216472344771000;4.42477099609375;0.1338860540069639;0.0370342109519988;-0.5149269599348306;0.1662785708904266;0.5476909875869751;-0.1566187739372253
1768216472354771200;4.434771240234375;0.2003787799596786;-0.0069365943301469;-0.5723708486437797;0.1684048175811767;0.5622122883796692;-0.1635682582855224
1768216472364772000;4.444772216796875;0.146726538618654;0.0119490156646817;-0.5616016173481941;0.16337251663208;0.5789467692375183;-0.1835960298776626
1768216472374773000;4.45477294921875;0.1604525738932192;-0.0315504457786679;-0.512649078130722;0.1627388149499893;0.6142621636390686;-0.202584758400917
1768216472384773000;4.464773193359375;-0.0178920689128339;-0.0626025135811418;-0.4441553876191377;0.1569032967090606;0.6469582915306091;-0.1976563185453415
1768216472394774300;4.474774169921875;-0.1546757440574467;-0.0209382316756993;-0.5803074868619441;0.1568358838558197;0.6668750643730164;-0.1867064386606216
1768216472404774100;4.484774169921875;-0.184363172443211;0.002614566412568;-0.7764958293944597;0.1503708064556121;0.6910973191261292;-0.1602399349212646
1768216472414775000;4.494775146484375;-0.1850702977992594;0.0585877980470657;-0.94503570202291;0.1516856402158737;0.7020037174224854;-0.1334307193756103
1768216472424776200;4.504776123046875;-0.0702758977532386;0.1288534666672348;-0.7430740367859602;0.1656275540590286;0.70404452085495;-0.1132953539490699
1768216472434776000;4.514776123046875;-0.0057046413823962;0.1416687437724322;-0.5791261681228875;0.1804614514112472;0.7028135657310486;-0.105070874094963
1768216472444777000;4.52477685546875;-0.1098737486481666;0.2136637204032391;-0.4865542674094438;0.1995661705732345;0.710317850112915;-0.1080498844385147
1768216472454777000;4.534777099609375;-0.2202408337712287;0.2816903779249638;-0.4995674782395362;0.2183250784873962;0.7172631025314331;-0.1251038163900375
1768216472464778200;4.5447783203125;-0.2388365209087729;0.2752721814457327;-0.4140343901216983;0.231110394001007;0.7200559377670288;-0.1477691829204559
1768216472474779100;4.554779052734375;-0.0718669663369655;0.2645752847339958;-0.0227332253336906;0.2539875507354736;0.7113380432128906;-0.1798480600118637
1768216472484779000;4.564779052734375;0.0526496401697397;0.2126705446474254;-0.0106955815374851;0.2623866200447082;0.7203496098518372;-0.2238847613334655
1768216472494780200;4.5747802734375;0.1597632764548063;0.1253445086982101;-0.1207125380486249;0.265721321105957;0.7197656035423279;-0.2564766407012939
1768216472504780000;4.584780029296875;0.17627105140239;0.0863060452517122;-0.0420715475320816;0.2753920555114746;0.6610455513000488;-0.2728974223136902
1768216472514781000;4.594781005859375;0.217028885987401;0.0927457229103893;0.0814244837552309;0.2787404060363769;0.620486319065094;-0.2534830570220947
1768216472524781000;4.604781005859375;0.0125087684392929;0.0950909708622843;0.2431716275036335;0.2879190146923065;0.5711097121238708;-0.2173620462417602
1768216472534782200;4.6147822265625;0.0057002574682235;0.1425967453375458;0.3314659970283508;0.304424524307251;0.5465680360794067;-0.2071267813444137
1768216472544783000;4.624783203125;-0.0381783394858241;0.1243637540325522;0.569140196159482;0.3008446991443634;0.555356502532959;-0.2188494801521301
1768216472554783200;4.634783203125;-0.0920282953560352;0.1171218200802803;0.6120768360882998;0.288321316242218;0.5681232213973999;-0.2419638335704803
1768216472564784000;4.6447841796875;-0.1149918223142623;0.1664350093036889;0.3455722637921571;0.2968740463256836;0.5524608492851257;-0.2637538313865661
1768216472574784000;4.654783935546875;-0.160772745758295;0.2098427738755941;0.1049275244176387;0.2874938547611236;0.5379483699798584;-0.2611288428306579
1768216472584785000;4.664784912109375;-0.3236518161460757;0.1377592421784997;0.0199117381721735;0.2777051329612732;0.5184742212295532;-0.2534272372722626
1768216472594786000;4.6747861328125;-0.77366031370759;0.1470282980442047;-0.2795949400156736;0.2828949689865112;0.4919697344303131;-0.236106663942337
1768216472604786200;4.6847861328125;-1.0393462630972266;0.1377117497749626;-0.4126923278629779;0.2954025268554687;0.4500691592693329;-0.2135046869516372
1768216472614787000;4.694787109375;-1.2098173960492014;0.1520566476002335;-0.5457762717068195;0.3002645969390869;0.4227980971336365;-0.1747724711894989
1768216472624787200;4.704787109375;-1.2449705424949526;0.1847939650759101;-0.5285018963009118;0.3081004023551941;0.3887708783149719;-0.1397130191326141
1768216472634788000;4.7147880859375;-0.7296309101060032;0.2751411754772067;-0.5264560696870089;0.3148971199989319;0.3222337961196899;-0.1230193451046943
1768216472644789200;4.724789306640625;-0.3470391214743256;0.2356141978614032;-0.3196668381631374;0.3234668970108032;0.2209702879190445;-0.1200089082121849
1768216472654789000;4.7347890625;-0.1309232586786151;0.1667548889078199;-0.1665343780249357;0.3294090330600738;0.1058094054460525;-0.1426243036985397
1768216472664790300;4.744790283203125;-0.29722587377429;0.1490171337738633;-0.2858785503298044;0.3390326499938965;0.0975946187973022;-0.1489293426275253
1768216472674790100;4.7547900390625;-0.3903054317489266;-0.042726358179003;-0.236652454867959;0.3151088356971741;0.0802807360887527;-0.1688688993453979
1768216472684791000;4.764791015625;-0.6303221023529768;0.0709955903299152;-0.1940133365809917;0.3100786507129669;0.1020414233207702;-0.1531184315681457
1768216472694792000;4.7747919921875;-0.5494318716049194;0.0583436140276491;-0.2555214059889316;0.3124323487281799;0.0986494198441505;-0.1182473599910736
1768216472704792000;4.7847919921875;-0.2387760228931903;0.0032424890525639;-0.3421154013365507;0.3104229867458343;0.0497591160237789;-0.118484117090702
1768216472714793200;4.794793212890625;0.0316670578956604;-0.0287310044437646;-0.4148977289527654;0.3032522797584533;-0.0469892956316471;-0.1541138887405395
1768216472724793000;4.80479296875;0.0447962963208556;0.0044699850209057;-0.4128834665209054;0.2937666177749634;-0.1692725867033004;-0.2177565246820449
1768216472734794200;4.814794189453125;-0.0264148364558815;0.0688109397672116;0.3203472216427326;0.3239715993404388;-0.3095433712005615;-0.2777728140354156
1768216472744794000;4.824794189453125;-0.0484337760403752;-0.0610235007613897;0.6403934145122766;0.3802692294120788;-0.3935011029243469;-0.3065309822559356
1768216472754795000;4.834794921875;0.1186383621230721;-0.2372990822084248;0.7803899142235518;0.3987257480621338;-0.4169470369815826;-0.2907910048961639
1768216472764796000;4.8447958984375;0.2240349653571844;-0.3504508296139538;0.5897492689460515;0.3920153677463531;-0.4161568582057953;-0.2782938480377197
1768216472774796000;4.854796142578125;0.2110726079314947;-0.4341673698291182;0.3742822254478931;0.3578157126903534;-0.374992161989212;-0.235432967543602
1768216472784797200;4.864797119140625;0.2477370357230305;-0.3961503583848476;0.370815426120162;0.3285494148731231;-0.3294060230255127;-0.210544928908348
1768216472794797000;4.874797119140625;-0.1817147037610411;-0.3440564524017274;-0.1584141999334097;0.2854337394237518;-0.2557137310504913;-0.1874421536922454
1768216472804798200;4.884798095703125;-0.1573778426229953;-0.3146593852646648;-0.1593856753140687;0.2374574393033981;-0.1908140778541565;-0.1985030472278595
1768216472814799000;4.894799072265625;-0.7616714774891734;0.013238690149039;-0.4176964197605848;0.1905356645584106;-0.1318733990192413;-0.2207373231649398
1768216472824799000;4.904799072265625;-0.9126678023815156;0.1679031821601092;-0.5038374106436968;0.1835653781890869;-0.1234341040253639;-0.2456141710281372
1768216472834800000;4.914800048828125;-0.9530603107854724;0.2253932480983436;-0.5257803623825311;0.1811266243457794;-0.1308046281337738;-0.2704205811023712
1768216472844800000;4.924800048828125;-0.933041897368431;0.2500172556146979;-0.5260393055796623;0.1856028586626052;-0.1708774864673614;-0.2872951626777649
1768216472854801200;4.93480126953125;-0.9368398283466696;0.2383183422535657;-0.3863596167325973;0.1970179975032806;-0.1990589648485183;-0.2956384122371673
1768216472864802000;4.944802001953125;-0.8587292914450169;0.2167335563026368;-0.1125678100377321;0.2110611051321029;-0.1920170336961746;-0.2840632498264313
1768216472874802200;4.95480224609375;-0.7995487882018089;0.1330795599296688;0.159717099225521;0.2163110524415969;-0.1459218561649322;-0.2412110418081283
1768216472884803000;4.964802978515625;-0.7301426590204239;0.0743983845107257;0.2187052947670221;0.2153171598911285;-0.1277777403593063;-0.206155851483345
1768216472894803000;4.974802978515625;-0.4335080291375517;0.1161490295253694;0.1440712018042802;0.2241201400756836;-0.1332658678293228;-0.1991664618253708
1768216472904804000;4.98480419921875;-0.1107034774705767;0.0832356248304247;0.1035229183167219;0.2290656268596649;-0.1361335515975952;-0.1981728374958038
1768216472914805200;4.99480517578125;-0.02921528082937;0.1194165068887174;0.1134685582697391;0.2379855811595916;-0.1270696222782135;-0.2011925131082534
1768216472924805000;5.00480517578125;0.0365606751561164;0.1920472972050309;0.2228285121768712;0.2443569153547287;-0.1130099892616272;-0.1996976882219314
1768216472934806000;5.014805908203125;0.1112204870820045;0.2365747134566307;0.3031412352979183;0.2405267655849456;-0.1110596656799316;-0.195183590054512
1768216472944806100;5.02480615234375;0.1183946164950728;0.1933387983202934;0.1194698445111513;0.2002483159303665;-0.1179647073149681;-0.1849426627159118
1768216472954807000;5.03480712890625;0.0906730813547968;0.1546174379989504;-0.1241156244903802;0.1688756346702575;-0.1339030116796493;-0.1792898774147033
1768216472964808000;5.044807861328125;0.1171253272116184;0.1307411801099777;-0.1107598838329315;0.1625871062278747;-0.1816809177398681;-0.1940328776836395
1768216472974808300;5.054808349609375;0.2398316694259643;0.0026472996383905;-0.061560091856122;0.1544223129749298;-0.2342189252376556;-0.2118142545223236
1768216472984809200;5.064809326171875;0.2582394327759743;-0.0914659852981567;0.097675945854187;0.1370803415775299;-0.2767868936061859;-0.2260291278362274
1768216472994809000;5.07480908203125;0.2830091323733329;-0.2730231604099273;0.0246574713945388;0.1050887107849121;-0.3310415148735046;-0.2296045273542404
1768216473004810000;5.08481005859375;0.2981950110673904;-0.3155079649180173;0.0034083471387624;0.0641109198331832;-0.384176105260849;-0.2106617391109466
1768216473014810000;5.09481005859375;0.1907867757499217;-0.2301730297207832;0.0696872842103242;0.0121678169816732;-0.4606612026691437;-0.1876711547374725
1768216473024811000;5.10481103515625;-0.0021896189987659;-0.0907008461445569;0.0382592957675457;-0.0452262312173843;-0.5274666547775269;-0.1560304015874862
1768216473034812200;5.114812255859375;-0.0870633664250373;0.0893400791853666;-0.1405138015836477;-0.0969336777925491;-0.6000587344169617;-0.1418514251708984
1768216473044812300;5.124812255859375;-0.1312277945831418;0.2070706788137555;-0.3802519475072622;-0.140088602900505;-0.6751422882080078;-0.1361567974090576
1768216473054813200;5.134813232421875;-0.1029281672939658;0.324721783465147;-0.30423838288486;-0.1582792550325393;-0.7492883801460266;-0.1268405020236969
1768216473064813000;5.14481298828125;-0.1514937530204653;0.3102119043365121;-0.1387953072279691;-0.1697673350572586;-0.7965149879455566;-0.1078841239213943
1768216473074814200;5.154814208984375;-0.0747320003792643;0.2958297432407736;-0.160548873874545;-0.1833432763814926;-0.8104673624038696;-0.0820590779185295
1768216473084815000;5.164815185546875;0.1214651099815964;0.0531271945536136;0.2401525719434022;-0.1833528578281402;-0.7992543578147888;-0.0652404204010963
1768216473094815000;5.17481494140625;0.2632537538066506;-0.0571902062088251;0.2766407663851976;-0.1804500371217727;-0.7613134980201721;-0.0516199991106987
1768216473104816000;5.184816162109375;0.3896329393148422;-0.1124050206914544;0.1585533161431551;-0.1730637699365615;-0.7186076045036316;-0.0409532412886619
1768216473114816300;5.194816162109375;0.5800618415378034;-0.1602200803115963;-0.0239461082547903;-0.1714455187320709;-0.6821028590202332;-0.0402124896645545
1768216473124817200;5.204817138671875;0.7161011280559003;-0.1439241945490241;-0.2188029099225998;-0.180884301662445;-0.6627336740493774;-0.0462072640657424
1768216473134818000;5.214818115234375;0.8132391676411033;-0.0275654677957296;-0.3781681269705295;-0.1893011033535003;-0.6608970165252686;-0.0546961352229118
1768216473144818200;5.224818115234375;0.7984216838680207;0.107511987952888;-0.3747983582764864;-0.2144826203584671;-0.6875126361846924;-0.0725704729557037
1768216473154819000;5.234819091796875;0.8670178118407725;0.0873874838128686;-0.3916489553123712;-0.2458324432373047;-0.7318210005760193;-0.1040514409542083
1768216473164819000;5.24481884765625;0.4840693187259137;0.1007350411638617;-0.3549094164580106;-0.2877548635005951;-0.7831632494926453;-0.1521891504526138
1768216473174820000;5.254820068359375;0.3058008098959923;-0.0460699695184826;-0.3067483198791742;-0.3482834696769714;-0.8313271999359131;-0.2186911255121231
1768216473184821200;5.2648212890625;-0.0064824938870966;-0.1466473359026014;-0.1958411365300416;-0.4081510901451111;-0.8708229660987854;-0.2810535728931427
1768216473194821000;5.274821044921875;-0.2758676631208509;-0.1981646110415458;0.0216670574069023;-0.4566215872764587;-0.8974027633666992;-0.3195420205593109
1768216473204822000;5.284822021484375;-0.2985832066673785;-0.1718954666666686;0.3295090177416801;-0.4880793690681457;-0.9206084609031676;-0.3432428240776062
1768216473214822100;5.294822265625;-0.2125659152291715;-0.2184542426154017;0.7671615993380546;-0.5220047235488892;-0.9380964636802672;-0.3618195056915283
1768216473224823000;5.304822998046875;-0.0482556429944932;-0.1870849986225366;1.426947696584463;-0.5263805389404297;-0.9573844075202942;-0.3770144283771515
1768216473234824200;5.31482421875;-0.036859950363636;-0.2828032345376908;1.3204226738423108;-0.5261408090591431;-0.9840639233589172;-0.3896857500076294
1768216473244824000;5.324823974609375;-0.0393359120231121;-0.4900105453431606;1.6792454643517731;-0.5500736236572266;-0.9480798244476318;-0.378387302160263
1768216473254825200;5.3348251953125;0.0043733197133988;-0.5489528559163213;2.7574679860711098;-0.5226907134056091;-0.945534884929657;-0.3725850582122803
1768216473264825000;5.3448251953125;-0.2057796891551464;-0.5833008234590291;2.6861633297920227;-0.5144168138504028;-0.9331203103065492;-0.3621068596839905
1768216473274826000;5.354825927734375;-0.4488800415208563;-0.5663644478358328;2.9480794052541253;-0.5212616920471191;-0.9354067444801332;-0.3073096871376037
1768216473284827000;5.364826904296875;-0.2890963067999109;-0.5618040080524981;3.7583500784784554;-0.5098156929016113;-0.9584904909133912;-0.2419176399707794
1768216473294827000;5.374826904296875;-0.2248188457438722;-0.6190623110614717;4.0113177083313465;-0.4856005609035492;-0.9996846914291382;-0.1784367263317108
1768216473304828200;5.384828125;-0.1243722387331072;-0.6650451868183911;4.000575949564576;-0.4720757007598877;-1.0250600576400757;-0.1170948073267936
1768216473314828000;5.394828125;-0.0509177018105983;-0.8845056838668882;3.845172621884942;-0.4365478456020355;-1.019623875617981;-0.073698841035366
1768216473324829200;5.4048291015625;0.0481903135401662;-0.9251173879794776;3.8379263040184974;-0.4057443737983703;-1.016311764717102;-0.0196172315627336
1768216473334829000;5.4148291015625;0.0036035774499177;-0.8554694128662347;3.234259568879008;-0.3747799098491668;-0.9970292448997498;0.0174536909908056
1768216473344830000;5.424829833984375;-0.0151893858253955;-0.7226289223894476;2.6106822646111247;-0.3607530295848846;-1.0027296543121338;0.0444421656429767
1768216473354831000;5.4348310546875;-0.0911111805111169;-0.4749224279351532;1.8524574204444884;-0.3654071986675262;-1.031453013420105;0.0762354657053947
1768216473364831000;5.4448310546875;-0.1591512820363044;-0.1148778405457735;1.1889894198149442;-0.3814647197723388;-1.0580977201461792;0.1055259704589843
1768216473374831900;5.454831787109375;-0.3017419629592448;0.1711475709088146;0.622179127907753;-0.391521692276001;-1.060236573219299;0.130580648779869
1768216473384832000;5.46483203125;-0.5019540080498903;0.3896897840686142;0.2344640049129724;-0.3933150470256805;-1.033572793006897;0.1344475597143173
1768216473394833200;5.474833251953125;-0.6287492270130663;0.4661847024671733;-0.1179594399482011;-0.3931330144405365;-0.9764597415924072;0.1230830624699592
1768216473404834000;5.484833984375;-0.7196966683298349;0.5027702198036015;-0.4874982702612876;-0.3865422308444977;-0.8889613151550293;0.1102687269449234
1768216473414834000;5.494833984375;-0.7797625761054455;0.5012186064474284;-0.7317898417055606;-0.3723899126052856;-0.7711995244026184;0.0956056267023086
1768216473424835000;5.5048349609375;-0.6955114175569266;0.4100891596272587;-0.9644079264909028;-0.3528830707073211;-0.6574268937110901;0.081399530172348
1768216473434835000;5.5148349609375;-0.5558797325700521;0.347734118001163;-1.2023644496947523;-0.3333166837692261;-0.5560575723648071;0.05473468080163
1768216473444835800;5.5248359375;-0.4078688532292843;0.2507711427219212;-1.3958435332685708;-0.311840146780014;-0.4761126339435577;0.0184525698423385
1768216473454837000;5.5348369140625;-0.2968313214987516;0.1649558766618371;-1.4724106401205062;-0.280816376209259;-0.4188116788864136;-0.0140712112188339
1768216473464837000;5.544837158203125;-0.1800876140158623;0.0443399308554828;-1.4759388142466543;-0.2510110735893249;-0.3869677186012268;-0.0434661172330379
1768216473474838000;5.554838134765625;-0.1665016447991132;-0.101668814882636;-1.34899585737586;-0.2339654415845871;-0.3779186010360718;-0.0534486025571823
1768216473484838000;5.564837890625;-0.238549959052354;-0.1334146371029317;-1.1769336558401584;-0.2258555889129638;-0.3709965050220489;-0.0610559247434139
1768216473494839000;5.574839111328125;-0.3045874885834753;-0.1570795172635465;-0.8223989179134369;-0.2072390019893646;-0.3734204471111297;-0.069073311984539
1768216473504840200;5.584840087890625;-0.3654290569067001;-0.1800607990741729;-0.429128498879075;-0.1989533752202987;-0.3650293350219726;-0.0759234949946403
1768216473514840000;5.594840087890625;-0.4232639907598495;-0.2790035499937832;-0.1481973418235778;-0.1995363980531692;-0.3702523708343506;-0.073908694088459
1768216473524841000;5.604841064453125;-0.2285036352038383;-0.2714764424245804;0.0117687637269496;-0.2032576352357864;-0.3780759274959564;-0.0780033022165298
1768216473534841000;5.614841064453125;-0.0327880247496068;-0.2695937704831361;0.0192395379990339;-0.2090168893337249;-0.3960523903369903;-0.0782896652817726
1768216473544842000;5.624842041015625;0.1298230423517525;-0.2881951567091048;0.0530950458496808;-0.2187653928995132;-0.4263101518154144;-0.0807706639170646
1768216473554842000;5.634842041015625;0.2651585645146668;-0.3348205681532621;0.1565460679739713;-0.2282988578081131;-0.4629693925380707;-0.0814883857965469
1768216473564843000;5.644843017578125;0.2757951093412935;-0.3241512901008129;0.2719423794358968;-0.2262439727783203;-0.4937384724617004;-0.088216595351696
1768216473574844200;5.65484423828125;0.1556353828698396;-0.2711767288256436;0.3530085512727499;-0.2097539007663726;-0.5183113813400269;-0.0862310677766799
1768216473584844000;5.664843994140625;-0.040450083810091;-0.1796567483179271;0.3760141638070344;-0.202962577342987;-0.5359417796134949;-0.0770221203565597
1768216473594845200;5.67484521484375;-0.1189870294302701;-0.1185317599434405;0.3935223479688167;-0.2067967504262924;-0.5517799854278564;-0.0623601414263248
1768216473604845000;5.684844970703125;-0.1474897780761122;-0.0513319086346775;0.4193102846980094;-0.2154818475246429;-0.583493709564209;-0.0507117435336113
1768216473614846000;5.694845947265625;-0.1908463969826698;0.0148760820925235;0.4432967249631881;-0.2198884785175323;-0.6163656115531921;-0.0478305667638778
1768216473624846800;5.704846923828125;-0.2691676540255546;0.0906372793890535;0.4844838908761739;-0.2263493090867996;-0.6362826228141785;-0.0397657230496406
1768216473634847000;5.714846923828125;-0.3157727533340453;0.1728662844602018;0.4628285239070653;-0.2317084074020385;-0.655997633934021;-0.0259830243885517
1768216473644848000;5.72484814453125;-0.3780862939059734;0.2197687592800706;0.3536497717857361;-0.2328242659568786;-0.6521182060241699;-0.0178209692239761
1768216473654848000;5.734847900390625;-0.4154197070002555;0.2382216769460588;0.2924678655922412;-0.2293538302183151;-0.6258350610733032;-0.0129933841526508
1768216473664849200;5.74484912109375;-0.3449199373632669;0.2610729026362299;0.1213841536998748;-0.2203606069087982;-0.5965203046798706;-0.0173489842563867
1768216473674850000;5.75485009765625;-0.2896235820770264;0.2400014730349182;0.1321428636014461;-0.2137122899293899;-0.5568365454673767;-0.0191751141101121
1768216473684850000;5.764849853515625;0.0064415773548185;0.3524878153342753;-0.4701292023092508;-0.2090706378221511;-0.5193772912025452;-0.0130157386884093
1768216473694850800;5.774850830078125;0.0556499910295009;0.3322228798102587;-0.4600403544932603;-0.2086983770132064;-0.5158501267433167;-0.0268957130610942
1768216473704851000;5.784850830078125;-0.1013996425524353;0.44554523454234;-0.530821863681078;-0.2145860940217971;-0.5128868222236633;-0.0459010936319828
1768216473714852000;5.79485205078125;-0.1847999564252793;0.4019853481486439;-0.368027256706357;-0.2109752595424652;-0.5005959272384644;-0.0624983645975589
1768216473724853000;5.80485302734375;-0.3619235330037772;0.4229927726030349;-0.0671241557240486;-0.2016222327947616;-0.4875456392765045;-0.0732878893613815
1768216473734853000;5.81485302734375;-0.4601338779956102;0.3200966078825294;0.0504518378645181;-0.1770837306976318;-0.4525216221809387;-0.0775674507021904
1768216473744854000;5.82485400390625;-0.4666238245368003;0.2609161777045578;0.0125461778402328;-0.1607883721590042;-0.3984450697898865;-0.072122611105442
1768216473754854000;5.83485400390625;-0.3582888297632336;0.2282745756883174;-0.0542331099689006;-0.1479034125804901;-0.3396481871604919;-0.0559663623571395
1768216473764854800;5.844854736328125;-0.3277478532880544;0.2134407983675599;-0.0469090506911277;-0.1411704123020172;-0.3061200380325317;-0.0368472635746002
1768216473774856200;5.854856201171875;-0.1799684446156025;0.1027056105844676;-0.1212695874094963;-0.1361026167869568;-0.2776277363300323;-0.0253887716680765
1768216473784856000;5.86485595703125;-0.1413198572695255;-0.0037676819704473;-0.1764969691127538;-0.136909544467926;-0.2634501159191131;-0.0285925548523664
1768216473794857000;5.87485693359375;-0.0619546441316604;-0.0968994450563564;-0.2268465156465768;-0.1494739651679992;-0.258116215467453;-0.0414238423109054
1768216473804857000;5.884857177734375;-0.050287879474461;-0.1126604202246293;-0.2372825694650411;-0.1596914529800415;-0.2454789727926254;-0.0548168793320655
1768216473814858000;5.89485791015625;-0.1033674354940652;-0.140767593681626;-0.1608370431661605;-0.1699739843606948;-0.2307668179273605;-0.0668555423617363
1768216473824857900;5.90485791015625;-0.1480421512618661;-0.1160049083469435;-0.0244552268207073;-0.1728813499212265;-0.2067027688026428;-0.0649974569678306
1768216473834859000;5.91485888671875;-0.1992065213099122;-0.1123689264647662;0.0613999328583478;-0.1724706292152404;-0.1848354935646057;-0.0681426376104354
1768216473844860200;5.924860107421875;-0.1979810711681842;-0.0830470434557646;0.0939788449019193;-0.1735100597143173;-0.1717931926250457;-0.0690592974424362
1768216473854860000;5.934860107421875;-0.1818918138936162;-0.0238409673798829;0.0157744922369718;-0.1793662011623382;-0.1630947738885879;-0.0670463293790817
1768216473864861000;5.94486083984375;-0.241846516379714;-0.0281983223391696;-0.0398877737522125;-0.1836871802806854;-0.1636817455291748;-0.0632257610559463
1768216473874861000;5.954861083984375;-0.339003991317749;-0.0204949814202263;-0.1243874271690845;-0.1843427419662475;-0.1515484750270843;-0.0618801191449165
1768216473884862000;5.964862060546875;-0.3744505677521229;-0.0265253110930323;-0.1630477049529552;-0.1761516481637954;-0.1314410865306854;-0.0676700919866561
1768216473894863000;5.974863037109375;-0.345637730243802;-0.0093685707174241;-0.2114192294120788;-0.1606261134147644;-0.1208134815096855;-0.0787302106618881
1768216473904863200;5.98486328125;-0.23217443267107;-0.0136306486086919;-0.1921095487862825;-0.1445382088422775;-0.1212534308433532;-0.0895154774188995
1768216473914864000;5.994864013671875;-0.1508753288611769;-0.0167204313175752;-0.0983802947312593;-0.1210425123572349;-0.1261633485555648;-0.0987529754638671
1768216473924864000;6.004864013671875;-0.1879652885884046;0.0412026557430624;0.0140039754331111;-0.0995002016425132;-0.1339059621095657;-0.0972208604216575
1768216473934865000;6.014864990234375;-0.1891372549772262;0.0949515989242121;0.0758937376350164;-0.0837103128433227;-0.1459120959043502;-0.0949255228042602
1768216473944866000;6.024865966796875;-0.2166585913702845;0.0239611231608316;0.1800876870810985;-0.0729801729321479;-0.1497531831264495;-0.085173025727272
1768216473954866000;6.034865966796875;-0.2673930455684661;0.0217457851989194;0.2191851872384548;-0.0588111877441406;-0.1350543797016143;-0.0781461298465728
1768216473964867000;6.0448671875;-0.2076741976648569;0.0452657769961282;0.1619727691978216;-0.0459313429892063;-0.1185315921902656;-0.0816295444965362
1768216473974867200;6.0548671875;-0.0892933174341917;0.0193048948528245;0.0693447543829679;-0.0268018133938312;-0.1033191457390785;-0.0870067551732063
1768216473984868000;6.0648681640625;-0.0361976870626211;-0.0603671192118898;0.1258008010983467;-0.0049910559318959;-0.0812604501843452;-0.0857132598757743
1768216473994869000;6.074868896484375;-0.0800660548835992;-0.1193979483187198;0.1340922441035509;0.009824332781136;-0.0530063733458519;-0.074036605656147
1768216474004868900;6.084868896484375;-0.0653261663913726;-0.1485971547961235;0.1185609129726886;0.0202807001769542;-0.0391688533127307;-0.0640441626310348
1768216474014870000;6.0948701171875;-0.1306824356600642;-0.1414310260264203;0.0206640178442001;0.0212911125272512;-0.025115443393588;-0.0557226203382015
1768216474024870000;6.104869873046875;-0.1286129359096288;-0.1411425279412418;0.0213309573203325;0.0193533953279256;-0.0182157251983881;-0.0533276386559009
1768216474034871000;6.11487109375;-0.170731829714775;0.0307952800298109;-0.0910392843186855;0.0218379124999046;-0.0189312770962715;-0.0550058148801326
1768216474044872000;6.124871826171875;-0.2535597505271434;0.0741749875510111;-0.1260994917839765;0.0231913309544324;-0.023599000647664;-0.0602727495133876
1768216474054872000;6.1348720703125;-0.3471221235826611;0.0993947324708104;-0.03151858933568;0.022337969392538;-0.0218846034258604;-0.0675705447793006
1768216474064873000;6.144873046875;-0.3988397435992956;0.105262418927811;0.0619902999669313;0.022313468158245;-0.0225429367274045;-0.0697508752346038
1768216474074873000;6.154873046875;-0.403175142455101;0.0996458211550489;0.1072112514406442;0.0212455634027719;-0.0141007862985134;-0.060199350118637
1768216474084874000;6.1648740234375;-0.3748322605460882;0.0984437884215265;0.149981887152791;0.022802447900176;-0.0013330592773854;-0.0432523265480995
1768216474094875100;6.174875244140625;-0.2327688914328813;0.1403665751326829;0.107752518710494;0.0280028879642486;0.0084661897271871;-0.0237780287861824
1768216474104875000;6.184875;-0.0007139934882521;0.1900723438702523;-0.046349078720808;0.0319478288292884;0.0047968854196369;-0.0182969756424427
1768216474114876000;6.1948759765625;0.2100117007017135;0.1935590534748509;-0.1478261704236269;0.0277793873101472;-0.006935887504369;-0.0357069671154022
1768216474124876000;6.2048759765625;0.2111462576895952;0.2064972628399729;-0.1304752226501703;0.0275168009102344;-0.0276438295841217;-0.0594895258545875
1768216474134877000;6.214876953125;0.0613981792926788;0.2191653134942054;-0.0813064103335142;0.0283691696822643;-0.0419818311929702;-0.0683967694640159
1768216474144877000;6.224876953125;-0.1026730234891176;0.2505165103737264;-0.0400058471739292;0.0334776453673839;-0.0409037843346595;-0.0691973119974136
1768216474154878000;6.2348779296875;-0.2015583451330661;0.2661690567314624;0.0615554156810045;0.0367174036800861;-0.039273202419281;-0.0576047487556934
1768216474164879000;6.244879150390625;-0.1981973442673683;0.2501961558455601;0.0907856018185615;0.0405331812798976;-0.0353636816143989;-0.0468935146927833
1768216474174879000;6.25487890625;-0.1627200804337859;0.2162936670480295;0.0472451507776975;0.041053682565689;-0.0242208484560251;-0.0458155125379562
1768216474184880000;6.264880126953125;-0.0955672831371426;0.1913390028052032;0.0120323830991983;0.0393995940685272;-0.0020428409334272;-0.0494011938571929
1768216474194880000;6.2748798828125;-0.0356798006683588;0.1783443870777264;-0.0042728550136089;0.0459954440593719;0.0195535309612751;-0.0591361112892627
1768216474204881000;6.284880859375;-0.0062877019673585;0.1631179571775719;-0.0147469027549028;0.0545338056981563;0.0409744009375572;-0.0642509758472442
1768216474214882000;6.294882080078125;-0.0315884397014975;0.1220993527645245;-0.0638081630438566;0.059424452483654;0.0526467859745025;-0.0668985620141029
1768216474224882200;6.304882080078125;-0.0810977360188961;0.0926522724732756;-0.036333880662918;0.0509990118443965;0.0638283342123031;-0.0649227648973465
1768216474234883000;6.314883056640625;-0.1568415437892079;0.0888513823529705;0.0116050975978374;0.0383947305381298;0.0713458508253097;-0.0631144940853118
1768216474244883000;6.324883056640625;-0.1632788833603262;0.0902552943341434;0.0096036946475505;0.0294947139918804;0.068926103413105;-0.0576124005019664
1768216474254884000;6.334884033203125;-0.2158373381152749;0.1511805588854476;0.0496206477373838;0.0258284527808427;0.0633584856986999;-0.0550658963620662
1768216474264885000;6.344885009765625;-0.2337222466349601;0.1920056500203907;-0.0136029934167861;0.0216054785996675;0.0471345074474811;-0.0551790781319141
1768216474274884900;6.354884765625;-0.2281014841437339;0.20798304441832;-0.0969692588895559;0.0136365322396159;0.0289407018572092;-0.0541875287890434
1768216474284886000;6.364885986328125;-0.2298199784994125;0.2265716442279517;-0.1313636959224939;0.0028600511141121;0.0130879674106836;-0.0557510703802108
1768216474294886100;6.37488623046875;-0.2797390246614814;0.2165290832391008;-0.1586795728713274;-0.0022735791280865;0.0040351832285523;-0.058616854250431
1768216474304887000;6.384886962890625;-0.3449041552722454;0.1864743924435228;-0.1906646106749772;-0.0066574085503816;-0.0064361002296209;-0.056592583656311
1768216474314888000;6.394887939453125;-0.3845513982668518;0.1617961339892819;-0.1760948180526494;-0.0077427313663065;-0.0069201444275677;-0.0483833216130733
1768216474324888000;6.40488818359375;-0.4443836434170603;0.1720582560129463;-0.1304752226501703;-0.0089861620217561;-0.0023046198766678;-0.0312983468174934
1768216474334888400;6.414888427734375;-0.4505453809171915;0.1553460080018266;-0.090887308627367;-0.0101468749344348;0.0030162972398102;-0.019561294466257
1768216474344888600;6.424888671875;-0.3793231422245502;0.1438497410733252;-0.1364239019215107;-0.0109450249001383;0.00908590760082;-0.0146163366734981
1768216474354889700;6.4348896484375;-0.3286141147285699;0.145931186989881;-0.1341694009929895;-0.0147853270173072;0.0163569562137126;-0.0101575190201401
1768216474364890600;6.444890625;-0.2419289339661598;0.1242049102090299;-0.0778793584942817;-0.0145067609846591;0.0181343499571084;-0.0150097990408539
1768216474374890500;6.454890380859375;-0.1602928532868623;0.1023156979514285;-0.0438274512887001;-0.0207077376544475;0.0221455469727516;-0.018025042489171
1768216474384891400;6.464891357421875;-0.1026952353209257;0.0848761585790663;-0.0172124160856008;-0.0316701084375381;0.0232438333332538;-0.0139807667583227
1768216474394891500;6.4748916015625;-0.0587637391358613;0.0935822833323851;-0.0045136780321598;-0.0428213328123092;0.0214959811419248;-0.0093764439225196
1768216474404892400;6.484892333984375;-0.0470250782862305;0.0844290358660742;0.0344908831447362;-0.0505594126880168;0.0217982493340969;-0.0115146972239017
1768216474414892500;6.494892578125;0.0126347329065203;0.0447616999315097;0.0563186840713024;-0.0583043284714221;0.0209879092872142;-0.0166669487953186
1768216474424893700;6.504893798828125;0.0206739547163248;0.0246857111083343;0.0794224962830543;-0.0620985329151153;0.016745226457715;-0.0168235432356596
1768216474434894600;6.51489453125;-0.013584580977261;0.0355120611523278;0.0831856482088565;-0.0607909746468067;0.013164035975933;-0.0150199327617883
1768216474444894500;6.52489453125;-0.0537286675781011;-0.0005467654288746;0.0690922409266233;-0.0532891191542148;0.0079916454851627;-0.0097170453518629
1768216474454895600;6.5348955078125;-0.0845879162222146;-0.028062238336727;0.010085925206542;-0.0450109727680683;0.0051943287253379;0.0012257897760719
1768216474464895500;6.5448955078125;-0.1319362351134419;-0.0070415890745818;0.0385427888840436;-0.0360510349273681;0.0076806563884019;0.0105662941932678
1768216474474896400;6.554896484375;-0.1004953871890902;-0.0063254584281705;0.0572895749300718;-0.030856167897582;0.0143437851220369;0.0167078785598278
1768216474484897500;6.5648974609375;-0.0746443220958113;0.0004207826953381;0.042995676639676;-0.0230760090053081;0.0269043184816837;0.0281530804932117
1768216474494897700;6.574897705078125;-0.0470814846485853;-0.019162308044359;-0.0053583121627569;-0.0239757448434829;0.0314493663609027;0.0346203446388244
1768216474504898600;6.584898681640625;0.0015887304961681;-0.0041652481869794;-0.0266243875533342;-0.0302043445408344;0.0358510389924049;0.0395591780543327
1768216474514898400;6.5948984375;0.0289227276235818;-0.0404237803250551;-0.0158066409409046;-0.0376509130001068;0.0373217388987541;0.041304811835289
1768216474524899600;6.604899658203125;0.0851636702835559;-0.0846198457304388;0.0323749139040708;-0.0348122492432594;0.0388943329453468;0.0385242067277431
1768216474534900500;6.614900390625;0.1193108545571565;-0.1372769933531992;0.0775415048420429;-0.0327351428568363;0.0386717729270458;0.0357353761792182
1768216474544900400;6.624900390625;0.0782800482496619;-0.1649078545353375;0.1099403841435909;-0.0232953019440174;0.0431908927857875;0.033465027809143
1768216474554901500;6.634901611328125;0.0102715109065175;-0.1863735076186247;0.0820054985135793;-0.0189227405935525;0.0526950284838676;0.035128504037857
1768216474564901600;6.644901611328125;-0.006868716725707;-0.1658958061267621;0.0395890830665826;-0.0146353198215365;0.0610152781009674;0.0343711003661155
1768216474574902500;6.654902587890625;-0.044842181289196;-0.1207014503990299;-0.0071574705392122;-0.0123190097510814;0.0640208423137664;0.033944696187973
1768216474584903400;6.6649033203125;-0.0393517671793699;-0.0944144781065173;-0.0246416893035173;-0.0085964435711503;0.057748831808567;0.0382651463150978
1768216474594903600;6.674903564453125;-0.0300052621632814;-0.0709904574970714;0.0339268195211887;-0.0057219550944864;0.0507411807775497;0.0404375717043876
1768216474604904400;6.684904541015625;-0.0307160407811403;-0.0404868904228322;0.0681377166807651;-0.0085672764107584;0.0443727634847164;0.0462483204901218
1768216474614904300;6.694904296875;0.0143698861360549;0.0217035169597715;0.0962935515850782;-0.0121043119579553;0.0371233113110065;0.0470305941998958
1768216474624905500;6.704905517578125;0.0918529387891292;0.0397081063363701;0.1261070905685424;-0.0101514160633087;0.0324846170842647;0.044753324240446
1768216474634905600;6.714905517578125;0.0830681593090295;-0.0081428283147513;0.1461152748525142;-0.0076636960729956;0.0333346500992774;0.0343852154910564
1768216474644906500;6.724906494140625;0.00956745429039;0.010298051853571;0.0785749395430088;-0.0056367646902799;0.0411305204033851;0.0249911807477474
1768216474654907400;6.734907470703125;0.0070262453749775;0.0005042049287818;0.0232803378224372;-0.0054729552939534;0.0487281829118728;0.0238168202340602
1768216474664907500;6.744907470703125;0.0707961222350597;0.0005697627119719;0.0515986698120832;-0.0079369125887751;0.0497289970517158;0.016599653288722
1768216474674908400;6.754908447265625;0.0581052752271294;0.0315663374675437;0.0234942728340625;-0.0050874687731266;0.0404996275901794;0.0163918398320674
1768216474684908500;6.764908447265625;0.0196130474865436;0.0523062152932398;0.0044341830551624;-0.0024267048574984;0.0359623990952968;0.0134224165230989
1768216474694909700;6.77490966796875;0.0167307700484991;0.0525555869444273;0.0035638299614191;-0.0009309522574767;0.0244406685233116;0.0123935919255018
1768216474704910600;6.78491064453125;-0.001581423972547;0.0694697872684337;0.017931962531805;0.0006435086252167;0.0152993667870759;0.0127382036298513
1768216474714910500;6.794910400390625;-0.0028133038550615;0.0700069994176738;0.0175730660915374;0.0006892177625559;0.009890517219901;0.0178705230355262
1768216474724911400;6.804911376953125;-0.0088783029824495;0.0763242014741525;-0.011838906353712;0.0006436777184717;0.0065216184593737;0.020586147904396
1768216474734911500;6.814911376953125;0.0071557169735431;0.0878418034516274;-0.0119464583814144;0.0019310194766148;9.15741547942e-05;0.0230026431381702
1768216474744912600;6.82491259765625;0.021714111419022;0.1112487998610362;0.0271866976112127;-0.0004269432974979;-0.0061854962259531;0.0198372099548578
1768216474754913500;6.83491357421875;0.0506523288726806;0.0947774479337036;0.0489426023453474;-0.0025311913341283;-0.0093311034142971;0.0130699165165424
1768216474764913700;6.84491357421875;0.0746925451517105;0.0623304551741108;0.0444943907648324;-0.0097121391445398;-0.0149636892601847;0.0083308210596442
1768216474774914600;6.85491455078125;0.0919657515138387;0.0636013336264528;0.0351139834791421;-0.0122706498950719;-0.0203140713274478;0.0098579544574022
1768216474784914400;6.86491455078125;0.0735822458222508;0.0522381732920184;0.0325040932416915;-0.0108258845284581;-0.0210496354848146;0.0108326710760593
1768216474794915300;6.874915283203125;0.0451683445036411;0.0210041365187615;0.028241759622097;-0.0127824973315;-0.0188348609954118;0.0080405361950397
1768216474804916700;6.884916748046875;0.036636078479886;0.0125266694221645;0.0032715690165758;-0.0126956785097718;-0.0178771875798702;0.002940316684544
1768216474814916600;6.89491650390625;0.0502568998143076;-0.0262806886821985;0.0255026900470256;-0.0071197575889527;-0.0097114518284797;-0.0052408040501177
1768216474824917500;6.90491748046875;0.0494637036100029;-0.0244768541306257;0.0684007515311241;-0.0029295398853719;0.0001675435341894;-0.0075665428303182
1768216474834917600;6.914917724609375;0.006661795976758;-0.0207213009893894;0.0485258382380008;-0.0041878288611769;-0.0039738989435136;-0.0059021851047873
1768216474844918500;6.92491845703125;-0.0049549920588731;-0.0374974810821935;0.0297124166965484;-0.0013337193522602;-0.0088203195482492;0.0006606427486985
1768216474854919400;6.93491943359375;-0.0576236291900277;-0.0532495240253396;0.0117763625115156;0.001207202556543;-0.0146571695804595;0.0029645434115082
1768216474864919600;6.94491943359375;-0.0719412006169557;-0.0444278831335715;0.002545592829585;0.0057652024552226;-0.0099889151751995;0.0013261665590107
1768216474874920700;6.954920654296875;-0.0962628641858696;-0.0360141471892595;0.0074245970427989;0.0091917598620057;0.0056177312508225;-0.0012154127471148
1768216474884920600;6.964920654296875;-0.0640457711920142;-0.015671616384387;0.0056885670304298;0.0088737783953547;0.0106819989159703;-0.004715871065855
1768216474894921500;6.97492138671875;-0.0261234522938728;0.0277436739068478;0.0080541271179914;0.0078204311430454;0.0138909798115491;-0.0086073521524667
1768216474904922400;6.98492236328125;-0.0344300928682088;0.0795590004106052;0.0307236395657062;0.0107278041541576;0.0156806241720914;-0.0121213942766189
1768216474914922500;6.994922607421875;-0.0425280591279268;0.0565442181891761;0.0850742384344339;0.0209868866950273;0.0266078785061836;-0.014165487140417
1768216474924923400;7.00492333984375;-0.0366831324920058;0.027790179929696;0.0547381368815898;0.0344153456389904;0.0294199138879776;-0.0128645338118076
1768216474934923500;7.014923583984375;0.0106517423957586;-0.019098540359456;0.0600192921549081;0.0460311025381088;0.0256901439279317;-0.0145071800798177
1768216474944924700;7.024924560546875;0.0762298377215862;-0.040546109796781;0.044989480805397;0.0508421026170253;0.008179860189557;-0.0119345672428607
1768216474954924500;7.034924560546875;0.097985450194776;-0.0577372090997174;0.0138198510378599;0.0499254129827022;-0.0041323080658912;-0.0135663393884897
1768216474964925400;7.044925537109375;0.1067392500147223;-0.0386207677573896;0.002416998013854;0.0477863624691963;-0.0167575553059577;-0.0204399581998586
1768216474974926600;7.054926513671875;0.0574710689768195;-0.0231206720150075;0.0065536594271659;0.0450241342186927;-0.0211286898702383;-0.0237473770976066
1768216474984926500;7.064926513671875;0.0171726685971021;0.0082533942834474;-0.0094289226025342;0.0433306321501731;-0.0221582688391208;-0.0272486358880996
1768216474994927400;7.07492724609375;-0.0196671157613396;0.0550180132688954;-0.0153723411768674;0.0412159524857997;-0.0124486405402421;-0.0259523503482341
1768216475004927700;7.084927734375;-0.0354269949510693;0.0557994277038611;-0.0293219560742378;0.0395458824932575;0.0023175217211246;-0.0249307639896869
1768216475014928600;7.0949287109375;-0.0545014055162668;0.0702433106578886;-0.0517728573352098;0.0373335517942905;0.0181993339210748;-0.022988211363554
1768216475024929500;7.104929443359375;-0.0522115410134196;0.056974627229385;-0.0575257217735052;0.0400102958083152;0.035033706575632;-0.0280255824327468
1768216475034929400;7.114929443359375;-0.0687248689189553;0.0321321181241422;-0.0405839393228292;0.0390630401670932;0.0433194413781166;-0.0285597555339336
1768216475044930600;7.1249306640625;-0.0891340352192521;0.0306367649998515;-0.0578361028969287;0.0367500856518745;0.0507672354578971;-0.0262934062629938
1768216475054930400;7.134930419921875;-0.0870256647631526;0.0175574666636064;-0.0238251122236251;0.0390606895089149;0.0492954365909099;-0.0208920612931251
1768216475064931600;7.144931640625;-0.0484203320369124;0.0012651610976085;0.0538864884883165;0.0393589660525321;0.046713501214981;-0.0138626480475068
1768216475074932500;7.154932373046875;-0.0309577405825257;-0.0040868674548342;0.0547118333965539;0.0404552668333053;0.0412762239575386;-0.0132048008963465
1768216475084932600;7.1649326171875;-0.0272907425075769;-0.0362419280631467;0.0138724580079317;0.0391979850828647;0.0417713075876235;-0.0160967260599136
1768216475094933500;7.17493359375;-0.028017887738347;-0.0182565548436716;0.0312684139668941;0.0379100032150745;0.0399215072393417;-0.0148785728961229
1768216475104933400;7.184933349609375;-0.0522013118803501;-0.0090451109167188;-0.0065361237704753;0.0384466312825679;0.0406078025698661;-0.0150444880127906
1768216475114934500;7.1949345703125;-0.0842164525613188;-0.015702486446686;-0.0458890599936246;0.0407431051135063;0.0434585586190223;-0.0159435160458087
1768216475124935700;7.204935791015625;-0.1118435874164104;-0.0165046696750447;-0.0261140999436378;0.035634096711874;0.0495819635689258;-0.0114182736724615
1768216475134935600;7.214935546875;-0.1075897293642163;-0.01982599611748;-0.0194242469161748;0.0367503724992275;0.0597753077745437;-0.0064588873647153
1768216475144936400;7.2249365234375;-0.1102662550970911;-0.0271166645823046;0.0027075053930282;0.0367423854768276;0.0665402710437774;-0.0052743139676749
1768216475154936600;7.2349365234375;-0.1023205567896366;-0.0075500135207548;0.0296457812011241;0.0332269296050071;0.0692067518830299;-0.0026262691244482
1768216475164937500;7.2449375;-0.073210782161355;0.0031722368279471;0.0077700494796037;0.0305086374282836;0.0678687766194343;-0.004191409330815
1768216475174938400;7.2549384765625;-0.0642056379288435;0.0210578394673764;-0.0249503168612718;0.0318843051791191;0.0651428624987602;-0.0018363292329013
1768216475184938500;7.2649384765625;-0.070532502862811;0.0240151183703914;-0.0267097277492284;0.0311423502862453;0.0704148560762405;0.0001352089457213
1768216475194939600;7.274939697265625;-0.0566553686797618;0.0116986211001873;-0.0357341612040996;0.0320444293320179;0.0744302347302436;-0.0023814067244529
1768216475204939500;7.284939453125;-0.0605874474316835;0.0172934088999405;-0.0230786777704954;0.0341619104146957;0.0788683965802192;-0.0021164221689105
1768216475214940700;7.294940673828125;-0.0722831459224224;0.0265153742209076;-0.0159323131471872;0.0322120264172554;0.0820819064974784;-0.0056102871894836
1768216475224941600;7.304941650390625;-0.0478881248563528;0.0180768143625929;-0.0352191974192857;0.0235426388680934;0.086737647652626;-0.0112338177859783
1768216475234941400;7.31494140625;-0.0571875758603215;-0.0122626116584986;-0.0618003303527832;0.0216528289020061;0.0907051190733909;-0.0209634657949209
1768216475244942300;7.3249423828125;-0.0693137747228145;-0.0195850269684568;-0.0576122310131788;0.0159424785524606;0.0917088612914085;-0.0302459131926298
1768216475254942500;7.3349423828125;-0.0822173876985907;-0.0347078868962824;-0.0475005868434906;0.0140352677553892;0.0924413278698921;-0.0337979905307292
1768216475264943600;7.344943603515625;-0.1006371337473392;-0.0060605421479791;-0.0496972201049327;0.0153793655335903;0.0938570648431778;-0.0392574705183506
1768216475274944500;7.354944580078125;-0.1156131690829992;0.0016834230422973;-0.0209504335701465;0.0151126617565751;0.0973490998148918;-0.0408470630645751
1768216475284944600;7.364944580078125;-0.0907584215506911;-0.0078499097827821;-0.0094838676601648;0.0155747206881642;0.1005025506019592;-0.0432652123272419
1768216475294945500;7.374945556640625;-0.1008729883298277;-0.0196647776737809;-0.0168283852040767;0.0155565813183784;0.1047749519348144;-0.0445377267897129
1768216475304945400;7.3849453125;-0.0706324561059475;-0.0385518489733338;-0.0271118788093328;0.0148790730163455;0.1073185428977012;-0.0461057983338832
1768216475314946300;7.3949462890625;-0.0602124766394495;-0.0488450602550059;0.0031026421904563;0.0127958878874778;0.1093591004610061;-0.0447197332978248
1768216475324946400;7.404946533203125;-0.0634554040834307;-0.0296483750170096;0.0283785377442836;0.0129343718290328;0.1083295196294784;-0.0440629944205284
1768216475334947600;7.414947509765625;-0.01505991422683;-0.0276832124238833;0.0256862299203872;0.0122133092954754;0.1086455434560775;-0.0398579128086566
1768216475344949800;7.42494970703125;0.0194745157986879;-0.0307897270718589;0.0530810173243284;0.0119880056008696;0.0984818562865257;-0.033572319895029
1768216475354949600;7.43494970703125;0.0339873175367713;-0.021291977016814;0.0656692807406187;0.0135633321478962;0.0996702834963798;-0.0253619886934757
1768216475364950800;7.44495068359375;0.0552370263144373;-0.0340698812536895;0.0154810622483491;0.0096602039411664;0.1008380800485611;-0.020865773782134
1768216475374950700;7.45495068359375;0.1057967084676027;-0.0500201319163665;0.0231342073500156;0.0083645759150385;0.0955314636230468;-0.0211238339543342
1768216475384951600;7.46495166015625;0.0909559899494052;-0.0381800199862569;0.0305810162246227;0.0068673463538289;0.0917447134852409;-0.0126206278800964
1768216475394952400;7.474952392578125;0.039297406643629;-0.0035022724999114;0.0145598557502031;0.0070513235405087;0.0821441560983657;-0.0088348649442195
1768216475404952600;7.48495263671875;-0.009563654898107;-0.0042312443615868;-0.013344050219655;0.0035609845072031;0.0749893113970756;-0.0066297673620283
1768216475414953700;7.49495361328125;-0.0335433731615543;0.0081085607189685;0.0121253220796585;0.0010213202331215;0.0610071383416652;-0.0005543297156691
1768216475424953600;7.50495361328125;-0.0157049341320991;0.0133602707020938;0.0363981780707836;-0.0049809119664132;0.0515225604176521;0.0004635301884263
1768216475434954800;7.514954833984375;0.0267819162026047;0.0061404389837756;0.0708452220737934;-0.0082026831805706;0.0387616604566574;-0.0012654410675168
1768216475444955600;7.52495556640625;0.0493000374808907;-0.0065416767284274;0.0701958182543516;-0.0087462337687611;0.0320627465844154;-0.0026444257237017
1768216475454955500;7.53495556640625;0.0749170015573501;-0.0232702548198401;0.0753431180149316;-0.0046150544658303;0.0328282825648784;-0.0074000949971377
1768216475464956700;7.544956787109375;0.0949085269674658;-0.0301069324394687;0.0964051952660083;-0.005492566153407;0.0395762026309967;-0.0080906525254249
1768216475474956800;7.554956787109375;0.0889236073389649;-0.0112629330966621;0.0994043770819902;-0.0039142011664807;0.0401572473347187;-0.0141247417777776
1768216475484957700;7.564957763671875;0.0289332490175962;0.0188241255985572;0.0354810632258653;-0.0044103479012846;0.0414033383131027;-0.0098314592614769
1768216475494958600;7.57495849609375;0.0266354934692382;0.0289013560419902;-0.014977788901329;-0.0013155192136764;0.0414381176233291;-0.0010838299058377
1768216475504958700;7.584958740234375;0.0654950932174921;0.0264592601194977;-0.0145657009690999;0.0023660347796976;0.0320896208286285;0.0028355442918837
1768216475514959600;7.594959716796875;0.0763566789716482;-0.0033358664244413;0.0001636661291122;0.0041097644716501;0.0231501087546348;0.0015649201814085
1768216475524959500;7.60495947265625;0.0644274639859795;-0.001162760169059;0.0255962135493755;0.0031869790982455;0.0144817875698208;0.0021039438433945
1768216475534960600;7.614960693359375;0.0190881468296051;-0.0149625913321971;0.0206003049582242;-0.0010671478230506;0.0151618681848049;0.000893764430657
1768216475544961800;7.6249619140625;-0.0062277884736657;-0.0161993665855377;0.0237754278630018;-0.0035598664544522;0.016164282336831;0.0004708545748144
1768216475554961700;7.634961669921875;-0.0248442261382937;0.000642572219856;0.0138648592233657;-0.0102483723312616;0.019697431474924;0.0034158716443926
1768216475564962600;7.644962646484375;-0.0417015451759099;0.0655933294275775;0.0173234752446413;-0.0099935075268149;0.0208100974559783;0.0076526943594217
1768216475574962700;7.654962646484375;-0.0312497092664241;0.073283226343058;0.0032961189359426;-0.0092970915138721;0.018550407141447;0.0040635522454977
1768216475584963600;7.664963623046875;-0.05042962603271;0.0810084503002464;-0.0115419692337512;-0.0050914268940687;0.0164678134024143;0.001243531005457
1768216475594964700;7.67496484375;-0.0253679577514529;0.0593741991844028;0.0142103116601705;-0.0028118919581174;0.0159072056412696;0.0012332864571362
1768216475604964600;7.684964599609375;-0.004106558535993;0.0471072401443496;0.0274199218451976;-0.0034039127640426;0.0146504612639546;-8.73752869665e-05
1768216475614965800;7.6949658203125;0.00632218875885;0.0327984730783849;0.0147568396270275;-0.0063016209751367;0.0149971768260002;-0.000958252698183
1768216475624965600;7.704965576171875;0.0192103119045496;0.0293317833485081;0.0061140989661216;-0.0033439146354794;0.0156262163072824;-0.0014528017491102
1768216475634966500;7.714966552734375;0.0430433151736855;0.0242887476800009;-0.0096282445669174;-0.007468587718904;0.0074618714861571;-0.0034911301918327
1768216475644967700;7.7249677734375;0.042656361682713;0.0236140267562121;-0.0097574239045381;-0.0038144649006426;0.0028815008699893;-0.0035984558053314
1768216475654967600;7.734967529296875;-0.0194467510089278;0.020544775378704;-0.0155389299154281;-0.0040611773729324;0.0044488906860351;-0.0005319127812981
1768216475664968700;7.74496875;0.0036304654568433;0.0394699501989409;-0.0028302549898624;-0.001018515904434;0.006996470503509;-0.0020712199620902
1768216475674968800;7.75496875;0.0081254387885332;0.0410931309539824;0.0313484934657812;0.0010846797376871;0.0125864157453179;-0.003622917458415
1768216475684969700;7.7649697265625;-0.0164440620616078;0.0505371415277942;0.0317260946065187;0.0002476482186466;0.0170858278870582;-0.0049283988773822
1768216475694970600;7.774970703125;-0.0204363465681672;0.0375427815286442;0.0209708918362855;-0.0004046981921419;0.0162760373204946;-0.0015060571022331
1768216475704970500;7.784970458984375;-0.0476151531338691;0.025284480719082;0.0138034844249486;-0.0036817179061472;0.0158051904290914;0.0047595622017979
1768216475714971600;7.7949716796875;-0.0431876920804381;0.0038529125684872;0.0237356803745031;-0.0105897895991802;0.013617699034512;0.0050049796700477
1768216475724971500;7.804971435546875;-0.0244455822095274;-0.0160048303941264;0.0202069217264652;-0.0146124949678778;0.0111785102635622;0.0086393952369689
1768216475734972700;7.81497265625;-0.045694414204359;-0.0155708959562703;0.0260176538318395;-0.0143797332420945;0.0110943540930747;0.0068137990310788
1768216475744973600;7.8249736328125;-0.0812044112637639;-0.0177627799773588;0.0185322665125131;-0.0117751630023121;0.0200359188020229;0.0054726307280361
1768216475754973700;7.8349736328125;-0.0813213156417012;-0.0022921660577878;-0.007219429859519;-0.0033206609077751;0.02552480250597;0.0006952416151762
1768216475764974600;7.844974609375;-0.0469751016646623;0.0022750687925145;0.0200625448197126;0.0015782241243869;0.030668431892991;-0.0041152257472276
1768216475774974500;7.854974365234375;-0.0186912564665079;-0.0086315982123836;0.0196481187999248;0.0069538448005914;0.0371378883719444;-0.0046893493272364
