timestamp;seconds_elapsed;acc_z;acc_y;acc_x;gyro_z;gyro_y;gyro_x
1767708902727220700;0.051220703125;-0.0037672344458755;-0.0009129866590723;-0.0029278701454401;0.0077800927683711;0.0171248968690633;-4.14657406508e-05
1767708902737220900;0.061220947265625;0.0072907415300607;-0.0371875657496508;-0.0010036240845918;0.0069236201234161;0.0111985635012388;0.0036350281443446
1767708902747221800;0.0712216796875;0.0064981389808002;-0.0363322823608759;-0.001018237131834;0.0097324475646018;0.005662384442985;-0.001322366297245
1767708902757221600;0.0812216796875;0.0472697098302189;-0.0310090597778093;0.0574748683691024;0.0163938123732805;0.0030562151223421;-0.0110735306516289
1767708902767221800;0.0912216796875;-0.0300035085976123;-0.037571477900166;0.0668850862711668;0.01874834112823;0.0005917269736528;-0.0160552151501178
1767708902777221600;0.1012216796875;-0.0646218266474548;-0.0138802394555881;0.041731355792284;0.018794946372509;-0.00180858024396;-0.0106122456490993
1767708902787221800;0.1112216796875;-0.0642991705643478;-0.0119330326442606;0.0417161582231521;0.0215562507510185;-0.0027832998894155;-0.0034373635426163
1767708902797222700;0.12122265625;-0.0422568409711122;0.0275242864019703;0.0066845923304557;0.0229189898818731;-0.0007622269913554;0.000340862898156
1767708902807222800;0.131222900390625;0.0108978261113166;0.0208964566268958;0.0053168111085891;0.0223749466240406;0.0069546825252473;0.0025261575356125
1767708902817223000;0.141222900390625;0.0097504096418619;0.0046361079685855;0.0177092596918344;0.0207874365150928;0.0163998492062091;0.0073179830797016
1767708902827222800;0.151222900390625;0.0105360070616006;0.0213436432719696;0.011846505138278;0.0166112761944532;0.0118025671690702;0.0048377704806625
1767708902837223700;0.1612236328125;0.0667459700614213;0.0073128254977054;0.0158662621736526;0.015438687056303;0.0091130398213863;-0.0036454629153013
1767708902847223800;0.171223876953125;0.0532581365900579;0.0181432078294223;0.0011836568266153;0.0112746469676494;0.0102914907038211;-0.0068845888599753
1767708902857223700;0.1812236328125;-0.0370475818902254;0.0003504619720624;-0.0471679938882589;0.0084168091416358;0.0188109427690505;-0.0075471838936209
1767708902867223800;0.191223876953125;-0.0448322444170713;0.0145760853657964;-0.0298310746401548;0.0105779683217406;0.018235832452774;-0.0073352362960577
1767708902877223700;0.2012236328125;0.025084761462477;-0.0086632811254356;0.0006780453920364;0.0076897703111171;0.0122312037274241;-0.0097909374162554
1767708902887224600;0.211224609375;0.0348690688073635;-0.00786484705701;0.014282207852602;0.0080023892223835;0.0085555082187056;-0.0099314972758293
1767708902897224700;0.221224609375;0.0090676926412852;0.0069014453849522;0.0208539874583482;0.0119526563212275;0.0049442620947957;-0.0070685991086065
1767708902907224600;0.231224609375;0.0016132804155349;0.0171873181769624;0.0123123690843582;0.0120746251195669;0.0058594569563865;-0.0045015378855168
1767708902917224700;0.241224609375;-0.0147094887873856;0.0488152405054774;0.0003267477363348;0.0126780970022082;0.0095338206738233;-0.0019305227324366
1767708902927224600;0.251224609375;-0.0283504669938469;0.0425834425769746;-0.0002881692916154;0.0107670482248067;0.0118465106934309;-0.0014381585642695
1767708902937225700;0.261225830078125;-0.009763269123435;0.0329895889034261;0.002388940963149;0.0100775556638836;0.017055120319128;-0.0032368577085435
1767708902947225900;0.271225830078125;-0.040606735676527;0.0596117844996741;0.0025210429102182;0.0086777852848172;0.0221530757844448;0.0020608231425285
1767708902957225700;0.281225830078125;-0.0587315858653513;0.0252272980385925;-0.0160556472659111;0.0071464674547314;0.0295401513576507;0.0073573179543018
1767708902967225900;0.291225830078125;-0.048166348142689;0.0161921331271529;-0.0379249492466449;0.0034966599196195;0.0301950257271528;0.0151833333075046
1767708902977226800;0.301226806640625;-0.030299281240371;0.0375675963094923;-0.0560474659144878;-0.0057727387174963;0.0328981354832649;0.0226412490010261
1767708902987226600;0.3112265625;-0.0020025719940662;0.0379253648051759;-0.1052928505986929;-0.009106745943427;0.0443365462124347;0.0218233540654182
1767708902997226800;0.321226806640625;0.0408387908667325;0.0147335866156034;-0.0705950467050075;-0.006782338488847;0.0526717044413089;0.0156312361359596
1767708903007226600;0.3312265625;0.0394862117805751;-0.0114874214683426;0.0232084416300058;-0.0055156964808702;0.0569150522351264;0.0098438262939453
1767708903017226800;0.341226806640625;0.0085077161043882;-0.0163457345199771;0.0767588300317525;-0.0014357335167005;0.0579219944775104;0.008079482242465
1767708903027227600;0.3512275390625;-0.058568508824706;0.0098567560931667;0.1033773723661899;-0.0012751591857522;0.0535231158137321;0.0203266814351081
1767708903037227500;0.3612275390625;0.0014992963637574;0.0115244107441743;0.0872042362004518;-0.0049133040010929;0.0498548820614814;0.0335237123072147
1767708903047227600;0.3712275390625;-0.0032721535384654;0.0110151323480531;0.0871954683721065;-0.0034502004273235;0.0465147420763969;0.0249358676373958
1767708903057227800;0.381227783203125;0.0184632906462415;0.0345034229659009;0.0870411545932293;-0.0019191491883248;0.0309352502226829;0.0108259096741676
1767708903067228700;0.391228759765625;-0.1042564932882785;0.0746294533202424;0.057110126709938;0.0003823779989033;0.0275928508490324;0.0162039622664451
1767708903077228800;0.401228759765625;-0.1043891797572374;0.0896683978242799;0.0122159229725599;-0.0019825091585516;0.0308056864887475;0.028931476175785
1767708903087228700;0.411228759765625;-0.0973176339358091;0.0902169076856691;-0.0436006567955017;-0.0028633251786231;0.0361160300672054;0.0449803844094276
1767708903097228800;0.421228759765625;-0.1015507414609193;0.0898886895114556;-0.0436012413173913;-0.00437120674178;0.0499072074890136;0.0488363727927207
1767708903107228700;0.431228759765625;0.0079705404877662;0.0616214027224574;-0.0413560927391052;-0.0019062105566263;0.0560388676822185;0.0474581606686115
1767708903117229800;0.441229736328125;0.0663221916913986;0.0206601134206401;-0.038210195928812;-0.0010425474029034;0.0582253262400627;0.0349274575710296
1767708903127229700;0.451229736328125;0.0469452910482883;-0.0043173745753476;-0.0138122522532939;-0.0017348905093967;0.0646131858229637;0.0233872570097446
1767708903137229600;0.4612294921875;0.0304781403720378;-0.0329868626568;0.0146305828988552;-0.0036552958190441;0.0661221295595169;0.0162614360451698
1767708903147229700;0.471229736328125;0.024283379668428;-0.0334322957362048;0.0146481185555458;-0.0044960053637623;0.0584190711379051;0.0176801942288875
1767708903157230600;0.481230712890625;0.0081575874924659;0.0433007514003198;0.0721259095340967;-0.004421170335263;0.0388269945979118;0.0256606228649616
1767708903167230700;0.491230712890625;-0.0533598296991316;0.0960543816674966;0.1177776536405086;0.0047993753105401;0.0362543798983097;0.0405681766569614
1767708903177230800;0.50123095703125;-0.1034744029998779;0.0925387199630495;0.1047638582885265;0.0183966774493455;0.0399990491569042;0.0519518591463565
1767708903187230700;0.511230712890625;-0.1075894371032714;0.095200212523574;0.1047621047228574;0.0349456742405891;0.0441795513033866;0.0593797415494918
1767708903197230800;0.52123095703125;-0.0970505074322223;0.044418695180118;0.0751309365689754;0.0318923592567443;0.0426796562969684;0.0574295073747634
1767708903207231700;0.531231689453125;0.0746469524443149;-0.0258097238693153;-0.0252758955538272;0.0265851151198148;0.0377904921770095;0.0578191764652729
1767708903217232000;0.54123193359375;0.086066172081232;0.0447251810131361;-0.0460702617794275;0.0251025334000587;0.0418736487627029;0.0500182434916496
1767708903227231700;0.551231689453125;0.0375929499464575;0.0294447011044947;-0.0457592961341142;0.024739846587181;0.0481664314866066;0.0358653515577316
1767708903237231600;0.561231689453125;-0.0632183713240083;0.0026787907551974;-0.019254151046276;0.0295766796916723;0.0646817609667778;0.0295368824154138
1767708903247231700;0.571231689453125;-0.0705435996455606;0.0054799566478934;-0.0192190797328948;0.0274517741054296;0.0854236632585525;0.0368842631578445
1767708903257232600;0.581232666015625;-0.1592296079695224;-0.0195095414462964;-0.0103314244002103;0.030504023656249;0.1099569648504257;0.0628122687339782
1767708903267232800;0.591232666015625;-0.1819675094783306;0.0457786081893602;0.0491571218788623;0.0349625051021575;0.1131616830825805;0.0744658410549163
1767708903277232600;0.601232666015625;-0.0051589901983737;0.0364232166139176;0.0410042105615139;0.0374131426215171;0.0792508497834205;0.0598275102674961
1767708903287232500;0.611232421875;0.1944470518231391;0.0065808922106749;0.0139618898570537;0.0287882108241319;0.0245724264532327;0.0280593559145927
1767708903297234000;0.62123388671875;0.2966355066657066;-0.0268727157416171;-0.0144786072075366;0.0148976948112249;-0.0236939061433076;-0.0074882516637444
1767708903307233800;0.63123388671875;0.249517178871762;-0.0033781415134551;-0.0124164139807224;0.0088157458230853;-0.0242743417620658;-0.0192392207682132
1767708903317234000;0.64123388671875;0.0098141133946832;0.0873397174146957;-0.0366787485778331;0.0070956102572381;-0.0190108716487884;-0.0001994823105633
1767708903327233800;0.65123388671875;-0.0994715970993042;0.0481752712346613;0.0167214176982641;0.0078112655319273;-0.0159567575901746;0.0249423272907733
1767708903337233700;0.661233642578125;-0.1228197394609451;0.0381982269298052;0.0288303731650114;-0.0013974125031381;-0.003317128168419;0.054686639457941
1767708903347235000;0.671235107421875;-0.1543465121030807;0.0315990455771912;0.0042903906702995;-0.0007934493478387;0.0032149394974112;0.0721930265426635
1767708903357235000;0.68123486328125;-0.0780512079298496;0.0158405865929904;0.0330237332016229;0.0018942127935588;0.0012753591872751;0.0748500600457191
1767708903367235000;0.691235107421875;0.0223240691440645;0.0368212166552897;0.0660877984136343;0.0069046793505549;-0.0124578969553112;0.0657543390989303
1767708903377235000;0.70123486328125;0.1554161871612072;0.0306343903796747;0.1314595575124025;0.0093585159629583;-0.0196644105017185;0.0475002378225326
1767708903387235800;0.71123583984375;0.1498994695663452;0.0171222992498893;0.0958253495514392;0.0056017898023128;-0.017825499176979;0.0267543196678161
1767708903397236000;0.721236083984375;0.1931856535851955;-0.0134769558843225;0.0411859968692064;0.0056846141815185;-0.0250519886612892;0.0014891773462295
1767708903407235800;0.73123583984375;0.2071370220482349;-0.0545985914135817;0.0211105925679206;-0.0005275908624753;-0.0280745364725589;-0.0080318832769989
1767708903417236000;0.741236083984375;0.1111199493169784;-0.052079292935878;-0.0006131634622812;-0.0042930347844958;-0.0314775258302688;-0.0055431593209505
1767708903427235800;0.75123583984375;0.0635819622057024;-0.0678441496948246;0.0050491000831127;-0.0091970488429069;-0.0299524683505296;-0.0045947381295263
1767708903437236700;0.76123681640625;0.0347252764225006;-0.0571238995069637;-0.0039501989305019;-0.0145377535372972;-0.0279242042452096;-0.008658455684781
1767708903447236900;0.77123681640625;0.0121557172179222;-0.1005856592884287;-0.0678606533050537;-0.018644681200385;-0.0231357105076313;-0.0040444587357342
1767708903457236700;0.78123681640625;-0.0758639361517969;-0.0224706539909238;-0.1043733976662159;-0.0179213657975196;0.0018727048300206;0.0045207999646663
1767708903467236900;0.79123681640625;-0.1064987283902708;0.0404840728446608;-0.1285971538186073;-0.0140182012692093;0.0231947731226682;0.0157395768910646
1767708903477238000;0.801238037109375;-0.0793020847737789;0.0337361831867601;-0.1107610528767108;-0.0140205984935164;0.0308750625699758;0.0246113650500774
1767708903487238000;0.81123779296875;0.00954874958992;0.0190066334254574;-0.0233411280989646;-0.0118138110265135;0.0294998064637184;0.0278489664196968
1767708903497238000;0.821238037109375;0.0068096800148487;0.0180551733529428;-0.0233136555701494;-0.0066145211458206;0.0288681052625179;0.0163888521492481
1767708903507238000;0.83123779296875;-0.0607481909513473;0.0409498865583911;0.1223135435044765;-0.004470438696444;0.0318551063537597;0.0075902747921645
1767708903517238000;0.841238037109375;-0.0483083960950374;0.0464646679244935;0.1328197399497032;-0.002999042160809;0.0345270559191703;0.000931040616706
1767708903527239000;0.851239013671875;0.0122808049023151;0.0564347390658687;0.1440723708480596;-0.0015305706765502;0.0238657556474208;-0.010177843272686
1767708903537238800;0.86123876953125;0.007695824332768;0.0562990432224934;0.0888701235860586;-0.0030272672884166;0.0041088298894464;-0.0157499741762876
1767708903547239000;0.871239013671875;0.00794482152462;0.0559222914651269;0.0888689545422792;-0.0046119079925119;-0.0086563676595687;-0.0134828370064497
1767708903557238800;0.88123876953125;0.022757784386212;0.0240071314267581;0.0450093545496463;-0.0033154813572764;-0.0235141441226005;-0.0123355481773614
1767708903567239000;0.891239013671875;-0.009373393023014;0.0008601741930237;0.0635381139308214;0.0013713937951251;-0.0334396101534366;-0.0048164441250264
1767708903577239800;0.90123974609375;-0.066793316334486;-0.001006994218612;0.052727381581068;0.0042598582804203;-0.042207270860672;0.0047805230133235
1767708903587239700;0.91123974609375;-0.1213853227436542;0.0120750531971454;0.0339846871882677;0.006704369559884;-0.0374893508851528;0.0125194434076547
1767708903597240000;0.921239990234375;-0.1180617312788963;0.0128519649869296;0.0339525384843349;0.0084993401542305;-0.0316383838653564;0.0132193220779299
1767708903607240000;0.931239990234375;-0.0920201120495796;0.0109806409899843;-0.0256318693846464;0.0071150553412735;-0.0334637127816677;0.0072541330009698
1767708903617240800;0.94124072265625;-0.1114706624507904;0.0172905456559965;-0.0445148490309715;0.0067656487226486;-0.0327233523130416;0.0006018227431923
1767708903627241000;0.951240966796875;-0.1044423712491989;0.0129138010096503;-0.0116202951669692;0.0092881210148334;-0.0282943863421678;-0.0061451457440853
1767708903637240800;0.96124072265625;-0.0476864648044109;-0.0393236370634287;-0.0014689035087823;0.0051125502213835;-0.0336715728044509;-0.0158875212073326
1767708903647241000;0.971240966796875;-0.0440612509114202;-0.0389069003555458;-0.0014952069938182;0.0031217630021274;-0.0384721830487251;-0.0209180545061826
1767708903657240800;0.98124072265625;-0.0819148976206779;-0.0341189628261141;0.0014735796838998;-0.0026482418179512;-0.0351517535746097;-0.0203252360224723
1767708903667241700;0.99124169921875;-0.0726198350974591;-0.0109200196768157;0.0645978521168231;-0.005509668495506;-0.0439459159970283;-0.0156609565019607
1767708903677241900;1.001241943359375;-0.1268061787486076;-0.0006242145792581;0.057540919342637;-0.0110714137554168;-0.0521441921591758;-0.0012093125842511
1767708903687241700;1.01124169921875;-0.1023661494970321;-0.0075843313488876;0.0254950912624597;-0.0176725555211305;-0.0592020973563194;0.008473353460431
1767708903697241900;1.021241943359375;-0.0961608651161193;-0.0094514632279053;0.0254746329963207;-0.0216941945254802;-0.0653273686766624;0.0109122768044471
1767708903707243000;1.031242919921875;-0.0427729692331282;-0.0008194540235679;0.0615215134114026;-0.0222635958343744;-0.0650125816464424;0.0044127260334789
1767708903717243000;1.041242919921875;-0.0862871213555336;-0.0026458565999753;0.0202098443359136;-0.0233978368341922;-0.0641957893967628;0.003760518040508
1767708903727243000;1.051242919921875;-0.0799789611220359;-0.0049549920588731;0.0202045836389064;-0.0221409164369106;-0.0635538399219513;0.0091380169615149
1767708903737243000;1.061242919921875;-0.1410053844928741;0.0160016429231967;0.0104758013069629;-0.0195653736591339;-0.052749928086996;0.015435860492289
1767708903747243000;1.071242919921875;-0.1425403389751911;0.0378564642874291;0.0076338558793067;-0.0198813527822494;-0.0530896112322807;0.0213489644229412
1767708903757244000;1.081243896484375;-0.1597439872324466;0.0147530174018582;-0.0139086983650922;-0.0175516195595264;-0.0609864182770252;0.0286399014294147
1767708903767243800;1.091243896484375;-0.1534521936118602;0.0201595023881644;-0.0258709388375282;-0.020951235666871;-0.0632479786872863;0.0350570566952228
1767708903777244000;1.101243896484375;-0.1773860269069671;0.0254467814415926;-0.0162789346277713;-0.0273856986314058;-0.0614234432578086;0.0363960936665535
1767708903787243800;1.111243896484375;-0.1927209586828946;0.0406749968734569;-0.0141612118214368;-0.032630305737257;-0.055651307106018;0.0352465435862541
1767708903797244700;1.12124462890625;-0.188846747598052;0.0309254457481205;-0.0409159477561712;-0.0380157493054866;-0.0521412603557109;0.0427132472395896
1767708903807244800;1.131244873046875;-0.1781084959626197;0.0205422957272501;0.0150835873633623;-0.0399683713912963;-0.0471206717193126;0.0595062598586082
1767708903817244700;1.14124462890625;-0.1675900245577097;0.0067938659577863;0.0719867933243513;-0.0437476634979248;-0.0412713065743446;0.094648003578186
1767708903827244800;1.151244873046875;-0.1908767921209335;0.0052073137189727;0.0606599281460046;-0.0536007992923259;-0.0257733054459095;0.1278816163539886
1767708903837244700;1.16124462890625;-0.0826508106797933;0.0451505805180873;0.0068412441968917;-0.0539829656481742;-0.0188067406415939;0.143822506070137
1767708903847245800;1.171245849609375;0.0789028563231229;0.0242987850168254;-0.0149526544600725;-0.0575143322348594;-0.0151456929743289;0.1367647647857666
1767708903857246000;1.181245849609375;0.1437280874550342;0.069431428019423;-0.0250713128924369;-0.0579196624457836;-0.0037034219130873;0.1220348104834556
1767708903867245800;1.191245849609375;0.1340109955608844;0.0229908259571064;-0.0257663094192743;-0.0645412802696228;0.0396086350083351;0.1524386703968048
1767708903877246000;1.201245849609375;-0.0832902776271104;-0.041692558151856;-0.0064016837358474;-0.0942405834794044;0.1123219802975654;0.2678989470005035
1767708903887246800;1.211246826171875;-0.2197831531316041;0.0078202726963441;0.0117968207776546;-0.1102113500237464;0.1181058436632156;0.352610319852829
1767708903897246700;1.221246826171875;0.1474649358958006;0.1301978304808959;0.093929160541296;-0.1143301948904991;0.0870528519153595;0.3185420930385589
1767708903907246800;1.231246826171875;0.3316717487335205;0.1027627932649571;0.0910790318071842;-0.0946557447314262;0.0945626944303512;0.2560641467571258
1767708903917246700;1.241246826171875;0.2477168697178363;0.112316346894158;-0.0594844546258449;-0.0651793405413627;0.0894073471426963;0.1868382096290588
1767708903927246800;1.251246826171875;0.3093254768908023;0.1188587816744111;-0.164441205137968;-0.0403294116258621;0.0457367002964019;0.1119692400097847
1767708903937247700;1.261247802734375;0.2984966243624687;0.0719599418500438;-0.2028437087684869;-0.0262900255620479;-0.0108890291303396;0.0547672025859355
1767708903947247600;1.27124755859375;0.1776853021144867;0.0100689375391229;-0.0540653521865606;-0.0313479080796241;-0.0421639904379844;0.0399113297462463
1767708903957248000;1.281248046875;-0.0424783747673034;-0.1014081181198358;0.2531868255615234;-0.0349152125418186;-0.0514986366033554;0.044573463499546
1767708903967248000;1.291247802734375;-0.0656874009191989;-0.118034952869825;0.2520540221393108;-0.048432633280754;-0.0743554830551147;0.0446971952915191
1767708903977249000;1.3012490234375;-0.093315412557125;-0.1108442559144459;0.1678875461995601;-0.0470627024769783;-0.0885069891810417;0.0427062138915061
1767708903987249000;1.311248779296875;0.0049859728606708;-0.1003141488706693;0.0289607215464115;-0.0451009757816791;-0.0988835990428924;0.0366112068295478
1767708903997248800;1.321248779296875;0.0157721587159903;-0.1042915098027326;0.0290495688736438;-0.0373322702944278;-0.1206818372011184;0.0142425186932086
1767708904007249000;1.331248779296875;0.1227846681475639;-0.0308432473573833;-0.0603366875410079;-0.0303533375263214;-0.1384114325046539;-0.011963790282607
1767708904017248800;1.341248779296875;0.1714940462589264;-0.0175097185317426;-0.0701081399708986;-0.0185837615281343;-0.1422519832849502;-0.0377495847642421
1767708904027250000;1.35125;0.1061059205472469;0.0234586717977188;-0.0495130957096815;-0.0008552927756682;-0.1333731412887573;-0.0542501471936702
1767708904037249800;1.361249755859375;0.1514239026546478;0.0283262595677748;-0.0434574489325284;0.0164792221039533;-0.1299800127744674;-0.0694842264056205
1767708904047250000;1.37125;0.1658066482722759;0.0296586224163882;-0.0433639254301786;0.0075152842327952;-0.176801711320877;-0.0890970379114151
1767708904057249800;1.381249755859375;-0.0295352974308189;0.0294520669936202;0.3209942873746156;-0.0297138430178165;-0.2721945345401764;-0.1095080375671386
1767708904067251000;1.3912509765625;-0.3852963348826393;0.03175113771623;-0.0233545721024274;0.0127849392592906;-0.1686315238475799;0.0212539825588464
1767708904077251000;1.4012509765625;0.0730974031810648;0.0515024246296845;-0.0861293004453182;0.0180497411638498;-0.1857479214668274;0.025201054289937
1767708904087251000;1.4112509765625;0.0119762872640974;0.0362384391981177;-0.0124070616304874;0.0292978957295417;-0.182098314166069;0.0180749930441379
1767708904097250800;1.421250732421875;0.0289478803311474;0.039233273632545;-0.0121563017398118;0.0289218574762344;-0.1544587016105651;0.0441516004502773
1767708904107251000;1.4312509765625;-0.0921422771245241;0.0893297769870609;0.0319949746757745;0.0324446521699428;-0.0703297182917594;0.0957139134407043
1767708904117251800;1.441251953125;0.1536339799195528;0.0645696854682639;0.0016834230422973;0.0245635583996772;-0.0538551397621631;0.0838721692562103
1767708904127252000;1.451251953125;0.0391945490573532;0.0170153956761583;-0.0690109923839569;0.0087810344994068;-0.0569104515016078;0.0723080486059188
1767708904137251800;1.461251953125;-0.0516962849676609;-0.0138702477845363;-0.148340549686551;-0.0128869768232107;-0.0586657412350177;0.075853519141674
1767708904147252000;1.471251953125;-0.0455833185127005;-0.0160664426545612;-0.1481663621634245;-0.0345791094005107;-0.062874861061573;0.0772234722971916
1767708904157252900;1.4812529296875;0.1088397476916201;-0.0767766214167699;-0.2528273445993662;-0.0492933392524719;-0.0793294683098793;0.072500355541706
1767708904167252700;1.491252685546875;0.1446417317012324;-0.081103946563974;-0.1937029554575681;-0.0599668063223362;-0.1016508936882019;0.0774004757404327
1767708904177252900;1.5012529296875;0.2064584104006178;-0.1005454186095856;0.0291793327331542;-0.0658843517303466;-0.1048853024840354;0.0698474869132042
1767708904187252700;1.511252685546875;0.2263275150074623;-0.0671796305046416;0.1564659884750843;-0.0572274699807167;-0.1151278167963028;0.0490177609026432
1767708904197252900;1.5212529296875;0.2359013442397117;-0.0721305674429051;0.1568219623059034;-0.0408391766250133;-0.0765372812747955;0.0133894570171833
1767708904207254000;1.53125390625;0.1672118571613915;-0.0263391774037852;0.257908008864522;-0.0241729374974966;-0.0516770742833614;-0.022346656769514
1767708904217254000;1.54125390625;0.0721001905709505;-0.0580814376938156;0.233082779687643;-0.014942156150937;-0.0401815399527549;-0.033036321401596
1767708904227254000;1.55125390625;0.0682750427922233;0.0044479923848062;0.1809650544375181;-0.0050442423671483;-0.0192344449460506;-0.0392689928412437
1767708904237254000;1.56125390625;0.1824017727097496;0.0565883313255384;0.2149532487571239;0.0010211069602519;0.0964676514267921;-0.1178247928619384
1767708904247254800;1.5712548828125;0.4106570226430893;0.0782591515921056;0.0932820948094129;-0.0116453431546688;0.0241524428129196;-0.0869118049740791
1767708904257255000;1.5812548828125;-0.1195528831521049;0.0185137992740608;-0.0616916092813015;-0.022105174139142;-0.0260718427598476;-0.0095379222184419
1767708904267254800;1.5912548828125;-0.2321405669340863;0.1224659758535213;0.173225400096178;-0.0227656699717044;-0.0369134396314621;0.0276805665343999
1767708904277255000;1.6012548828125;-0.0064922846287488;0.0929018450538627;0.2299380519211292;-0.0177488066256046;-0.0408471971750259;0.0368535593152046
1767708904287254800;1.6112548828125;0.0454044548144564;0.1279951510711573;0.1537777723044157;-0.0107422610744833;-0.0544540807604789;0.0265257656574249
1767708904297255700;1.621255615234375;0.0694627912720665;0.0935733145746402;0.1216764146447181;-0.0023951148614287;-0.0913766846060752;0.026349464431405
1767708904307255800;1.631255859375;0.0250514391481876;0.0174184235190972;0.0588262829780578;0.0031716772355139;-0.1095102801918983;0.0266039166599512
1767708904317256000;1.641255859375;-0.0073117843180894;0.033818098449707;0.0422439814895391;0.0096586048603057;-0.1116160377860069;0.0187454614788293
1767708904327256000;1.651256103515625;0.0042097631821408;-0.0065496408391743;-0.0231622644007205;0.0150544801726937;-0.0795784816145896;0.0043810345232486
1767708904337257000;1.661257080078125;0.0491530302256345;-0.0105398795191198;-0.0327490079134702;0.0261702481657266;-0.0384454205632209;-0.0299159530550241
1767708904347257300;1.67125732421875;0.178113793192245;-0.0276090694754384;0.0606482377082109;0.0417680479586124;-0.0216185078024864;-0.0653081908822059
1767708904357257500;1.681257568359375;0.2058206787526607;-0.0528556476032361;0.0990875662177801;0.0437774024903774;-0.0245415922254323;-0.0751264616847038
1767708904367257300;1.69125732421875;0.0482329927712678;-0.0320790910289622;0.0103588969290256;0.0476943887770175;-0.0355649515986442;-0.0665205419063568
1767708904377257500;1.701257568359375;0.0203788076946511;-0.0114483909324742;0.0273141233831644;0.0549384504556655;-0.0547194704413414;-0.0744983032345771
1767708904387258400;1.71125830078125;0.1278711776316166;0.0134869110227562;0.068242346099019;0.0658823922276496;-0.0587529614567756;-0.0956286340951919
1767708904397258200;1.72125830078125;0.1248474824288859;0.0201768188491463;0.0400385803997516;0.0646679922938346;-0.0550650134682655;-0.0981471911072731
1767708904407258400;1.73125830078125;-0.010303915338777;0.0385755951751023;-0.0216968680232763;0.0628709644079208;-0.0492879524827003;-0.0692396014928817
1767708904417258200;1.74125830078125;0.0101414913186803;0.0738854300199076;-0.0057657239198684;0.0572192072868347;-0.0485830120742321;-0.0528007075190544
1767708904427259100;1.751259033203125;-0.0269148949325084;0.0240068802650086;-0.1734387505859136;0.0492352992296218;-0.0343979522585868;-0.0472201593220233
1767708904437259300;1.76125927734375;-0.0376233359515666;0.0266373201001435;-0.184659817302227;0.0435707569122314;-0.00993921328336;-0.055448792874813
1767708904447259400;1.77125927734375;-0.0382429291546344;0.0302427424472756;-0.1847416503667831;0.0323971882462501;0.0216040648519992;-0.0509743392467498
1767708904457259500;1.781259521484375;-0.1625058896938338;0.0558950152991339;-0.3076005527943372;0.0120162852108478;0.043375939130783;-0.0242479182779788
1767708904467259400;1.79125927734375;-0.2173591408550739;0.1745623660546727;-0.5477034403771162;-0.0485934875905513;0.1110021248459816;0.011942708864808
1767708904477260300;1.80126025390625;-0.1447200576344504;-0.2540083893437869;-0.0264297417640686;-0.0437886118888855;0.0527713038027286;0.054387904703617
1767708904487260400;1.811260498046875;0.0889163008153438;-0.2022528119369409;0.2717372122526169;-0.0347716808319091;0.0239021070301532;0.0402414575219154
1767708904497260300;1.82126025390625;0.0864127935618162;-0.2048430658921599;0.2716951266765594;-0.0192481186240911;0.0288489293307065;0.0397221446037292
1767708904507260400;1.831260498046875;0.1672199856689199;-0.0094613635674118;0.3497194465994834;0.003728540148586;0.026902025565505;0.0272926501929759
1767708904517261300;1.84126123046875;0.1992096996476873;0.0222666124689392;0.1980593971014022;0.0128362840041518;0.0069610732607543;0.0151923112571239
1767708904527261200;1.85126123046875;0.1481943826815113;0.0476560513998381;0.1404424899131059;0.0192614719271659;-0.0205381959676742;0.0026436285115778
1767708904537261300;1.86126123046875;-0.0144324299782514;-0.0035745340185239;0.0461123473554849;0.016882736235857;-0.0534892193973064;0.005336616653949
1767708904547261200;1.87126123046875;-0.0078097969681024;-0.0021694529935717;0.046319268104434;0.0096751116216182;-0.0788110867142677;0.0270028989762067
1767708904557261300;1.88126123046875;-0.0114040220677852;0.0268583241733722;-0.043357495689392;0.0073360581882297;-0.0754419192671775;0.0407788977026939
1767708904567262500;1.891262451171875;0.0616238047420978;-0.0408013814657926;-0.0651058016389608;0.0053043412044644;-0.070851169526577;0.0423921607434749
1767708904577262300;1.901262451171875;0.074340626441501;-0.0555051757313311;-0.0533235939085483;0.0059216618537902;-0.0789152160286903;0.0331432670354843
1767708904587262500;1.911262451171875;-0.0440875635296106;-0.0308148980457335;-0.076519176056981;0.0038922987878322;-0.0859661996364593;0.0316058807075023
1767708904597262300;1.921262451171875;-0.0354927901962772;-0.0301761982833966;-0.0761971044957637;0.004483254160732;-0.0861670076847076;0.0428801067173481
1767708904607263200;1.93126318359375;-0.0903758154412731;0.0193720052722841;-0.0763414814025163;0.0051000854000449;-0.0730986073613166;0.0548511482775211
1767708904617263400;1.941263427734375;-0.0065320321172475;0.0423221247596666;-0.0361292980015277;0.0072540501132607;-0.0653703808784484;0.0573310814797878
1767708904627263200;1.95126318359375;-0.007775346709229;0.024723029177729;-0.0291571209013462;0.0102497674524784;-0.0616649910807609;0.0523604415357112
1767708904637263400;1.961263427734375;-0.0116974520564079;0.0164679543938487;-0.0371527958303689;0.0084273666143417;-0.0627057552337646;0.0506861135363578
1767708904647264300;1.97126416015625;-0.0047749958494678;0.0175073621778748;-0.0368774860203266;0.0069829230196774;-0.077403075993061;0.0615118741989135
1767708904657264000;1.98126416015625;-0.0869201585620641;0.0195903607307001;-0.0239525379955768;0.0014488741289824;-0.0948955118656158;0.0806679874658584
1767708904667264300;1.99126416015625;-0.0566086069285869;0.0072937920036725;0.0031143326282501;-0.0077526308596134;-0.1032075062394142;0.0908286496996879
1767708904677264100;2.00126416015625;-0.0458265161514282;0.0066710021965205;0.0036088381469249;-0.0144100012257695;-0.1091484874486923;0.0957776010036468
1767708904687264300;2.01126416015625;-0.0148843019315972;-0.000236366039142;0.0705237350344657;-0.0146627211943268;-0.0898992866277694;0.0901765823364257
1767708904697265400;2.021265380859375;0.0858411676863208;-0.013685429269541;0.1283785426318645;-0.0111052710562944;-0.0739988833665847;0.0634432360529899
1767708904707265300;2.031265380859375;0.1571065514009446;-0.0081292199145071;0.1358914024800062;-0.0126718264073133;-0.0593254044651985;0.0435235947370529
1767708904717265400;2.041265380859375;0.0690215137779712;-0.0137324832816608;0.0396557185620069;-0.0126827452331781;-0.0521425977349281;0.0341133177280426
1767708904727265300;2.051265380859375;0.0094487963467836;-0.0134960624435916;0.0234516027361154;-0.0093404334038496;-0.0465303808450698;0.0365597866475582
1767708904737266200;2.06126611328125;-0.0375678794372826;-0.0149350640044547;0.0458200864106416;-0.0035659009590744;-0.0389118753373622;0.0309644863009452
1767708904747266300;2.071266357421875;-0.048560909551382;-0.0271108376297168;0.0443523519456386;-0.0036076828837394;-0.0330466628074646;0.0258775688707828
1767708904757266200;2.08126611328125;-0.04067917985823;-0.0621928550680167;0.0287847804576158;-0.0025267056189477;-0.0226853694766759;0.0178878176957368
1767708904767266300;2.091266357421875;-0.0406774262925609;-0.04905998164732;-0.0194505504012107;-0.0017868489958345;-0.018142681568861;0.0132842622697353
1767708904777266200;2.10126611328125;-0.0546013587594032;-0.0209588726049289;-0.0718897626906633;-0.0013058821205049;-0.0122107565402984;0.0102714281529188
1767708904787267300;2.111267333984375;-0.0904891761552542;0.0030325726289302;-0.0973024363666772;0.0003902460448443;0.0033819181844592;0.0087884096428751
1767708904797267200;2.12126708984375;-0.0323480258971452;0.009895334537886;-0.067410571449995;0.000627799949143;0.0085923932492733;-0.0028666481375694
1767708904807267300;2.131267333984375;0.0121066904444247;-0.016792802434042;0.0034784897655248;-6.53135357424e-05;0.0058650518767535;-0.0126565927639603
1767708904817267500;2.141267333984375;-0.0223257770439609;-0.0250516766102053;0.0555167200386524;-0.0029702894389629;0.0090999938547611;-0.0193717554211616
1767708904827268400;2.151268310546875;-0.0558587384093552;-0.0186033407210372;0.0261421569943428;-0.0032468414865434;0.0111703313887119;-0.0196045357733964
1767708904837268500;2.1612685546875;-0.0814051945328712;0.0028920499133877;0.0298199687242507;0.0022536513861268;0.0146942269057035;-0.021064480766654
1767708904847268400;2.171268310546875;-0.0402443321049213;0.0031287082134746;0.0627992782622575;0.0012211437569931;0.0208232253789901;-0.0218149591237306
1767708904857268200;2.181268310546875;-0.0271207197029143;-0.0030345271239988;0.0330699104309082;0.0027708371635526;0.0185488853603601;-0.0143895335495471
1767708904867268400;2.191268310546875;-0.0616864216495305;-0.0054391771129332;0.0059141924798488;0.0028781332075595;0.0113259935751557;-0.0028527048416435
1767708904877269200;2.201269287109375;-0.0434766650896519;0.0032631482481025;0.0040957448810338;0.0028200764209032;-0.004274804610759;-0.0059190681204199
1767708904887269400;2.211269287109375;0.0411697033215314;-0.0013510858153924;0.0111702133119106;0.0069267698563635;-0.0150799127295613;-0.0067130820825695
1767708904897269200;2.221269287109375;0.0331073198318481;0.011773038043268;0.0057148705154657;0.0052697514183819;-0.0194850470870733;-0.0052249077707529
1767708904907269000;2.23126904296875;0.0112678284674882;-0.0045496261283755;0.0264379250705242;0.0075363279320299;-0.0111992880702018;-0.0082320533692836
1767708904917270500;2.2412705078125;0.0589040609220042;-0.0239956099523231;0.0604483312219381;0.01039869338274;-0.0121849235147237;-0.0255141053348779
1767708904927270400;2.2512705078125;-0.043917540724948;-0.0489804866703227;0.0382049352318048;0.009547796100378;-0.0152132054790854;-0.0273560546338558
1767708904937270500;2.2612705078125;-0.0494412725824862;-0.0399544640465639;0.0220996036052703;0.0092455269768834;-0.01258812751621;-0.0167604014277458
1767708904947270400;2.2712705078125;-0.0481008908241987;-0.039345903694164;0.0221574712723493;0.0049594528973102;-0.0169242862612009;-0.0073007470928132
1767708904957271300;2.281271240234375;0.0121177232950925;-0.0118050406167283;0.0108539869695901;0.007693454157561;-0.0150491539388895;-0.0119879096746444
1767708904967271400;2.291271484375;0.0271428584694862;-0.0146736548556014;-0.0036059155374765;0.004509279038757;-0.012721287086606;-0.0196946654468774
1767708904977271300;2.301271240234375;0.0058078094959259;-0.0196386751181446;-0.0203027833163738;-0.0002609750954434;-0.013123158365488;-0.0155816804617643
1767708904987271400;2.311271484375;0.0125023752311244;0.0014031813288107;-0.0229185187727212;-0.0031994949094951;-0.0194746628403663;-0.0076546352356672
1767708904997271300;2.321271240234375;0.0144938047766685;0.0010508972924202;-0.0228109667450189;-0.0038133538328111;-0.0199156831949949;-0.0008025886490941
1767708905007272200;2.331272216796875;0.0132061395863071;0.0052465771502815;-0.0212093767672777;-0.009553232230246;-0.0224677883088588;-0.0003136876039206
1767708905017272300;2.341272216796875;0.0094471158463507;-0.017615882319957;0.0190554136037826;-0.0148699674755334;-0.0315704755485057;0.0004043006338179
1767708905027272200;2.351272216796875;0.000623136867024;-0.0267894053893163;0.0116360772579908;-0.0179144460707902;-0.0397257395088672;-0.0031224321573972
1767708905037272300;2.361272216796875;-0.0245225199032574;-0.0139887047987431;3.09796601533e-05;-0.0179477352648973;-0.0338382869958877;-0.0028390721417963
1767708905047273500;2.3712734375;-0.0212608146935701;-0.0156955635155551;0.0002303016245365;-0.0162251684814691;-0.0342915579676628;-0.0017951680347323
1767708905057273300;2.3812734375;-0.010824139820598;0.0181854989014565;0.0094002810299396;-0.0192313436418771;-0.0336497351527214;0.0031673663761466
1767708905067273500;2.3912734375;-0.0094552991528064;0.0309280760966241;-0.0037368484407663;-0.0139804761856794;-0.0252304207533597;0.0063040419481694
1767708905077273300;2.4012734375;-0.00056285804715;0.0417203777405433;0.0028355156868696;-0.0147519931197166;-0.0210183635354042;0.0077693131752312
1767708905087274200;2.411274169921875;0.0052033407967537;0.0340380978759378;0.0316723185926675;-0.0141255967319011;-0.0166991166770458;0.0088458284735679
1767708905097274400;2.4212744140625;0.0065548284709453;0.0326974969219416;0.0317675956606864;-0.0141977686434984;-0.0098966043442487;0.0042319013737142
1767708905107274200;2.431274169921875;-0.0147743387511;0.0017133067239075;0.0557651418417692;-0.0157181210815906;-0.0117289908230304;0.0064120558090507
1767708905117274400;2.4412744140625;0.0309019187420606;0.0129408945125527;0.0479161819070577;-0.0153577933087944;-0.0098298899829387;0.0063651842065155
1767708905127274200;2.451274169921875;0.0356645300339907;0.0451741897225379;0.017305355066061;-0.0144473118707537;-0.0059443395584821;0.0036963797174394
1767708905137275100;2.461275146484375;0.0360298562150448;0.0437786071782931;0.0173503632515668;-0.0142454439774155;-0.002825777977705;0.0050982679240405
1767708905147275300;2.471275146484375;0.001689195195958;0.0657354778446257;-0.0270440742701292;-0.0158627424389123;-0.0030996829736977;0.0090154167264699
1767708905157275100;2.481275146484375;-0.0258340774258598;0.0367400868436321;-0.0481079050868749;-0.0142062557861208;0.0027606030926108;0.01576972566545
1767708905167275500;2.491275634765625;-0.0325227614095434;0.0053993200265802;-0.041242695492506;-0.0094501208513975;0.0116871185600757;0.0175580792129039
1767708905177276400;2.5012763671875;-0.0564309122741222;-0.0097831794003024;-0.0062619830042123;-0.0048047695308923;0.0051533193327486;0.017191095277667
1767708905187276300;2.5112763671875;0.017984642567113;-0.0391963026230223;0.0293365691214799;-0.0034380690194666;0.0044537060894072;0.0128661757335066
1767708905197276400;2.5212763671875;0.1268845412144437;-0.0397068642273545;0.0679208590596914;-0.0024340576492249;0.0057898140512406;0.0139410281553864
1767708905207276300;2.5312763671875;0.0684002400744706;-0.0054535344318486;0.0373696534514427;-0.0050000296905636;0.0070412335917353;0.0141699546948075
1767708905217276400;2.5412763671875;0.0085568890083581;0.010032898111362;-0.002771218279004;-0.0068197674117982;0.0106804426759481;0.0122546087950468
1767708905227277300;2.55127734375;-0.0503301842462271;0.0133607456261292;0.0163344642072916;-0.0072000506334006;0.0110620744526386;0.0113311298191547
1767708905237277200;2.561277099609375;-0.0741238053530454;-0.0087342366029508;0.0068774845540523;-0.0053036133758723;0.0069964923895895;0.0113476421684026
1767708905247277300;2.57127734375;-0.0606629238206893;-0.0215074281320907;-0.0160427877843379;-0.0034878575243055;0.0072767906822264;0.0113126337528228
1767708905257277200;2.581277099609375;-0.0553589721936732;-0.0366508011249825;-0.0181657712876796;-4.83851181343e-05;0.0040098908357322;0.0096351094543933
1767708905267278300;2.5912783203125;-0.0407680637180805;-0.0358774603986181;-0.013842062869668;0.003076851600781;0.0010332758538424;0.013045391999185
1767708905277278500;2.601278564453125;-0.0500274749726057;-0.0007654496808536;-0.0051700961142778;0.0037274619098752;-0.0019715689122676;0.0141740394756197
1767708905287278300;2.6112783203125;-0.0433137296129018;0.0107212639680132;0.0368751479327678;0.0058219917118549;0.0009673619642853;0.0097006373107433
1767708905297278500;2.621278564453125;-0.0089373396933078;0.0141509096231311;0.0521194788157939;0.0038999882526695;0.0021724421530961;0.002026472473517
1767708905307279400;2.631279296875;-0.0273720641154795;0.0138435972396284;0.0414858565986156;0.0034662142861634;-0.0009422563016414;0.0017255460843443
1767708905317279200;2.641279296875;-0.0414712070187553;0.0063569678112864;0.0183089791506528;0.0037229431327432;-0.0080049596726894;0.0051527679897844
1767708905327279400;2.651279296875;-0.0395896675884723;-0.0086113956745713;0.0259936884343624;0.0047415513545274;-0.0154192009940743;0.0117629487067461
1767708905337279200;2.661279296875;-0.0487637386471033;0.0003436988711357;0.0257692320287227;0.0036307468544691;-0.0177723709493875;0.0149536821991205
1767708905347279600;2.671279541015625;-0.0162438633143901;-0.0163576989524066;0.0323000951021909;0.0055258688516914;-0.0193785224109888;0.012026441283524
1767708905357280500;2.681280517578125;0.0063029726017266;-0.0040332923703826;0.036430911296606;0.0062571731396019;-0.0162983108311891;0.0083329025655984
1767708905367280400;2.6912802734375;-0.0157978731125593;0.0034451902841217;0.0140834704101085;0.0105400513857603;-0.0193071514368057;0.0057292911224067
1767708905377280500;2.701280517578125;-0.0141658514639362;0.0012186916073784;0.0019014497071504;0.0113168954849243;-0.014056728221476;0.001233342802152
1767708905387280400;2.7112802734375;-0.0296709156423807;0.0065740811606869;0.0145300451338291;0.0115773612633347;-0.0108364336192607;-0.0034352587535977
1767708905397281500;2.721281494140625;-0.0284755318453535;0.0078121715882793;0.0145738842755556;0.0117890825495123;-0.0124492440372705;0.000475060660392
1767708905407281700;2.73128173828125;-0.0359574120333418;0.018228296863567;-0.0229068283349275;0.0124383447691798;-0.0110359042882919;0.0007695006206631
1767708905417281500;2.741281494140625;-0.0186059162706136;0.0141958812760189;-0.0198866037309169;0.0095759788528084;-0.0066286390647292;0.0008461996912956
1767708905427281700;2.75128173828125;-0.0129226830024272;0.0257975448077544;-0.0080459438115358;0.0073786005377769;-0.0089126992970705;-0.0004770844243466
1767708905437281500;2.761281494140625;-0.0333803646195679;0.034624574260693;0.0270195243507623;0.0051804278045892;-0.0139255672693252;0.0030079279094934
1767708905447282400;2.771282470703125;-0.0318213716745376;0.0351250528624281;0.0270966812402009;0.0042440895922482;-0.0158748682588338;0.0072431378066539
1767708905457282600;2.781282470703125;0.0408048885971307;0.0330584939877502;0.0005447744011878;0.0020491119939833;-0.014119578525424;0.0036081890575587
1767708905467282400;2.791282470703125;0.0132177934914827;0.0322142982485704;0.026960487639904;2.61834356933e-05;-0.0132196955382823;-0.0013022273778915
1767708905477282600;2.801282470703125;-0.0356932446718215;0.0205727228315547;0.0207791686564683;-2.60145170614e-05;-0.0182450804859399;0.0017931647598743
1767708905487283500;2.811283447265625;-0.018718692462705;0.0253200634891167;0.0045855742245912;-0.0006910311058163;-0.0196110159158706;0.0052576456218957
1767708905497283600;2.82128369140625;-0.0169803243627771;0.025454996714089;0.0046814358144998;0.0037881396710872;-0.0170511864125728;0.0067583369091153
1767708905507283500;2.831283447265625;0.023721103859879;0.0392417674662545;0.0206388834029436;0.0069376360625028;-0.0204943865537643;0.004983470775187
1767708905517283600;2.84128369140625;0.0084165672222152;0.0166453567873686;0.0105891985535621;0.0062814331613481;-0.0232936348766088;0.0051927948370575
1767708905527284700;2.85128466796875;0.0153523943673819;0.0178228213352151;0.0162415252268314;0.0091807702556252;-0.0186548084020614;0.0005175254773348
1767708905537284600;2.86128466796875;-0.0143144296217709;0.0244657482147216;0.0241033446431159;0.0087722409516572;-0.0194393768906593;-0.00114774890244
1767708905547284500;2.871284423828125;-0.0125590373218059;0.02507723117657;0.0241933610141277;0.0050456477329134;-0.0178033970296382;0.0047410880215466
1767708905557284600;2.88128466796875;-0.0047042321681976;0.0162264555218629;0.0118698860138654;0.0030789030715823;-0.0178329590708017;0.0017871097661554
1767708905567284500;2.891284423828125;-0.0341074367851018;0.0146105447578243;0.0038683658659458;0.0021740186493843;-0.010428037494421;0.0008653595577925
1767708905577285600;2.90128564453125;-0.0416723190814256;0.0217693670039065;-0.0049321957051753;0.0013284649467095;-0.0034843778703361;0.001458711689338
1767708905587285500;2.911285400390625;-0.0290109538963064;0.0353807446565479;-0.0022422259688377;0.001226500258781;0.0023844307288527;0.0043955901637673
1767708905597285600;2.92128564453125;-0.0293722249567508;0.0353984995089471;-0.0022632687568664;-0.0003144047223031;0.0062886248342692;0.003915156237781
1767708905607285500;2.931285400390625;-0.0358013446887955;0.0310444690179079;0.0143126029908657;-0.0002188400831073;0.0044481134973466;0.0037501757033169
1767708905617286700;2.94128662109375;-0.0104909988760948;0.0163833996492438;0.0295510886549949;0.0011843794491142;0.0037913783453404;0.0033994372934103
1767708905627286800;2.951286865234375;-0.0286859597256407;0.0349463900935836;0.0376093074262142;0.0001654291991144;0.0039743366651237;0.0049187461845576
1767708905637286700;2.96128662109375;-0.0142301854044198;0.0248601543597877;0.011868716970086;-5.98741462454e-05;0.0015982640907168;0.0021655701566487
1767708905647286500;2.97128662109375;0.0128191860953345;0.0196076041264459;-0.0084808280974626;-0.0022127232514321;-0.0006329310126602;0.0048178625293076
1767708905657287700;2.98128759765625;-0.0024286153864115;0.0302790010707452;-0.040938744109869;-0.0029466904234141;-0.0007258751429617;0.0090307164937257
1767708905667287600;2.99128759765625;-0.0166916070818901;0.0213035943893715;-0.0159358202785253;-0.0055332067422568;0.0033590132370591;0.0074788825586438
1767708905677287700;3.00128759765625;0.019546996513009;0.0121869160737842;-0.0029202713608741;-0.0057148342020809;0.0075218002311885;-0.0003004767931997
1767708905687287600;3.01128759765625;0.001506897431612;0.0038909064913168;0.0057335752159357;-0.0051231160759925;0.0111089441925287;0.0005523627623915
1767708905697287700;3.02128759765625;-0.0129944695970043;-0.0037416524800471;0.0260439573168754;-0.0041915420442819;0.0105360988527536;0.0021441341377794
1767708905707288600;3.03128857421875;-0.0241985851785168;0.0031795068189501;0.0430728335291147;-0.0048886630684137;0.011273662559688;0.0055091786198318
1767708905717288400;3.041288330078125;-0.0239191837152466;0.0278160267570056;0.0274666835963726;-0.0026095299981534;0.0120086949318647;0.0080064246430993
1767708905727288600;3.05128857421875;-0.0180810156136751;0.0405244642205536;0.0353285030126571;-0.0045816176570951;0.0151480287313461;0.008765853010118
1767708905737288400;3.061288330078125;0.0068616293977946;0.0328112777610309;0.0237362648963928;-0.0050822920165956;0.0146127343177795;0.0088468138128519
1767708905747289600;3.07128955078125;0.0146346014868468;-0.0036503209347836;0.0109638770848512;-0.0019344313768669;0.0090814819559454;0.0086427750065922
1767708905757289700;3.081289794921875;0.0215507375508546;-0.0144959967337548;0.0258791221439838;0.0021556513383984;0.0079011684283614;0.0094265434890985
1767708905767289600;3.09128955078125;0.0311333894103765;-0.0182748394190333;0.0327238734722137;0.003821138292551;0.0053846128284931;0.0060664229094982
1767708905777289700;3.101289794921875;0.0392214187979698;0.0001987374424934;0.0145867437571287;0.0022528027184307;0.0058610523119568;-0.0017680646851658
1767708905787290600;3.11129052734375;0.0395084921110421;-0.0236317816086113;0.0069160629987716;0.0037977187894284;0.0074765272438526;-0.0065078530460596
1767708905797290500;3.12129052734375;0.033216113968566;-0.033080943281576;0.0064390931367874;0.0022978263441473;0.0048325406387448;-0.0068809622898697
1767708905807290600;3.13129052734375;0.0118483317691832;-0.0485514841359108;-0.0118447515726089;0.005328204948455;0.0049920626915991;0.0017227013595402
1767708905817290500;3.14129052734375;-0.0333217663001269;-0.0458334208162501;-0.0072357964724302;0.0036528105847537;0.0021576606668531;0.001432949444279
1767708905827291400;3.15129150390625;0.0268004017073661;-0.024944508174993;0.0541179591566324;-3.02798580378e-05;-0.005492934025824;-0.0003900546580553
1767708905837291500;3.16129150390625;0.0899486395377665;0.013443510272447;0.0401069694608449;-0.0041581792756915;-0.013502923771739;-0.0017080530524253
1767708905847291400;3.17129150390625;0.091146909411624;0.0130094297041185;0.0401823727846145;-0.0048637362197041;-0.0100271012634038;0.0001924242824316
1767708905857291500;3.18129150390625;-0.0008077361863106;0.012962832349725;-0.0130330845743417;-0.0053923735395073;-0.008354902267456;-0.0026164115406572
1767708905867291400;3.19129150390625;-0.0385876874716952;0.0114816356149502;-0.01074234328866;-0.0020849660504609;-0.006003463640809;-0.0011692652478814
1767708905877292500;3.20129248046875;-0.0332499431729316;-0.0107474213225767;0.0023111995518207;-0.0005461915861815;-0.0053049162961542;-0.0014659413136541
1767708905887292700;3.211292724609375;-0.0246551333069801;-0.0016080745174549;-0.0337310046881437;0.0023574370425194;-0.0019104511011391;-0.0022926921956241
1767708905897292500;3.22129248046875;-0.0250952782899141;-0.0012700199358165;-0.0337619843482971;0.003361182520166;0.0107616689056158;-0.0018324982374906
1767708905907292700;3.231292724609375;0.0186883703896775;0.0175485161721706;-0.0148392572134733;0.0070121176540851;0.0120357237756252;0.0011325853411108
1767708905917293600;3.24129345703125;0.0069756842315196;0.0066303596588782;-0.0176227504521608;0.003054394153878;0.0146946236491203;0.0054881852120161
1767708905927293400;3.25129345703125;-0.0145160166084766;0.0140496229394339;-0.0172761289715766;0.0022029620595276;0.019980065524578;0.0077283713035285
1767708905937293600;3.26129345703125;-0.016674619414471;0.0141459594533778;-0.0173994630903005;-0.0002918873215094;0.0206245519220829;0.0040374961681663
1767708905947293400;3.27129345703125;0.0146475705662742;0.0043159817692823;0.0148205525130033;-0.0057396218180656;0.0187120027840137;0.0033437274396419
1767708905957294600;3.281294677734375;0.0025029957968741;0.0020121435400098;0.0115764560252428;-0.0047619752585887;0.0217898171395063;3.10214236378e-05
1767708905967294500;3.29129443359375;0.0132382882902398;-0.0058715771808288;0.0253723416656255;-0.0033171316608786;0.0233327224850654;0.003879856551066
1767708905977294600;3.301294677734375;0.0277361847201362;-0.0208508456531912;0.0574240149646997;-0.0019024605862796;0.0227670669555664;0.0078210681676864
1767708905987294700;3.311294677734375;0.0047399245360866;-0.0114493042479269;0.0273836814880371;0.0012924789916723;0.0206587743014097;0.011188892647624
1767708905997294600;3.321294677734375;0.0028804508071392;-0.0111930461982265;0.0272767139822244;0.004505050368607;0.0164906606078147;0.0089457118883728
1767708906007295500;3.33129541015625;0.051921252829954;0.011861081652902;0.0318394918531179;0.0042606010101735;0.008950587362051;0.001955963904038
1767708906017295600;3.341295654296875;0.0335638314276933;-0.0076952124114148;-0.0238818108469247;0.0063391984440386;0.00945845246315;-0.0026779361069202
1767708906027295500;3.35129541015625;0.0297165083497762;-0.0312089936635456;0.0032961189359426;0.0067378119565546;0.0085272751748561;-0.0057130698114633
1767708906037295600;3.361295654296875;0.0172212569791823;-0.0530827343573793;0.0306324541509151;0.0055622928775846;0.0046337344683706;-0.0039884066209197
1767708906047296500;3.371296630859375;0.0165835070649161;-0.05256517675668;0.0305886150091886;0.005235846620053;0.0080489739775657;-0.0013734800741076
1767708906057296600;3.381296630859375;-0.026074315922521;2.31616798788e-05;0.0158574943453073;0.0041109272278845;0.0120820645242929;-0.0023796223104
1767708906067296500;3.391296630859375;-0.0336585970390588;0.0090827943122945;0.0091992054998874;0.0002799411304295;0.0154492314904928;0.0035147676244378
1767708906077296400;3.40129638671875;-0.035319808249548;0.0088904683442786;0.0091121117383241;-0.0012657576007768;0.0202450510114431;0.0068674208596348
1767708906087297800;3.4112978515625;-0.0306699366170912;0.0565772619422525;-0.004921674311161;-0.0033044316805899;0.0223446879535913;0.0056774956174194
1767708906097297700;3.421297607421875;-0.0070745414961129;0.0376936612414196;-0.0120861591130495;-0.0053108572028577;0.0262571386992931;0.0010960595682263
1767708906107297500;3.431297607421875;-0.0044710079342126;0.044641197090689;0.021132219877839;-0.0029680421575903;0.0317232757806777;0.0012094548437744
1767708906117297700;3.441297607421875;-0.0292366158783435;0.0399582817051559;0.0188823951244354;-0.0007957016350701;0.0271927081048488;0.0064076790586113
1767708906127297500;3.451297607421875;-0.0285270793695002;0.0208641435261815;0.0341290640950202;0.0053231175988912;0.0356622226536273;0.0042529860511422
1767708906137298700;3.461298583984375;-0.0236379921536892;0.0060965085105039;0.0244961433529853;0.0093391649425029;0.0401589721441268;0.0038479194045066
1767708906147298600;3.471298583984375;-0.0070376435518264;0.0144321742499247;0.0537695841103792;0.0086446311324834;0.0390957035124301;0.0107082873582839
1767708906157298700;3.481298583984375;-0.0528542958963662;0.0002237257532775;0.011807342171669;0.0121405627578496;0.0403631031513214;0.0078424597159028
1767708906167298600;3.491298583984375;-0.0223147807259112;0.0040575682951137;0.0431722022503614;0.0113715240731835;0.0386789217591285;0.0070421751588582
1767708906177299500;3.501299560546875;-0.0107832598209381;-0.0180101606008596;0.031744214785099;0.007835378870368;0.0392576269805431;0.003309222171083
1767708906187299600;3.511299560546875;-0.0358955623108893;-0.0270049661024473;-0.0094447046935558;0.0050861197523772;0.0361863374710083;0.0012814560905098
1767708906197299500;3.521299560546875;-0.0427296826472505;-0.0279503937263973;-0.0048316579401493;0.0022866048384457;0.0351996347308158;-1.94981694221e-05
1767708906207299600;3.531299560546875;-0.0151209602316841;-0.0333266982035711;0.0144599025070667;-0.0009584124200046;0.032716903835535;-0.0053515895269811
1767708906217300700;3.54130078125;0.0440817183107137;-0.0279704318674281;0.0105780926376581;-0.0017712090630084;0.0289192348718643;-0.0100600589066743
1767708906227300600;3.551300537109375;0.0591238046199083;-0.0469672471517697;0.0053583121627569;-0.0018202236387878;0.0286533161997795;-0.0182504896074533
1767708906237300700;3.56130078125;0.0479899047303944;-0.0530923059033229;0.0119786070853471;-0.0029334251303225;0.0226731896400451;-0.0197711549699306
1767708906247300600;3.571300537109375;-0.014491539754346;-0.0420728627063334;-0.0062257426470518;-0.0047348272055387;0.0210478603839874;-0.0187765937298536
1767708906257301500;3.581301513671875;-0.0363677463999018;-0.0107947127967141;-0.004069441395998;-0.003574487986043;0.0210880748927593;-0.0174732431769371
1767708906267301600;3.591301513671875;-0.0337052491923794;0.0095679474807344;0.0082552026480436;-0.0036967839114367;0.023046163842082;-0.0179978143423795
1767708906277301500;3.601301513671875;-0.0260988293092697;0.0218664524365216;0.0219119720786809;-0.0030467063188552;0.027587916702032;-0.0184883698821067
1767708906287301600;3.611301513671875;-0.0284866377612575;0.0133690385304391;0.0030967969715595;-0.0022814667318016;0.0212955363094806;-0.0124894324690103
1767708906297301500;3.621301513671875;-0.0609153642117977;0.0347270482544787;-0.0076245035290718;0.0018610804108902;0.0191357135772705;-0.0046107382513582
1767708906307302400;3.631302490234375;0.0382633874207735;0.0312765059418045;-0.0168593648642301;0.0009757582447491;0.0199221409857273;-0.0069614239037036
1767708906317302500;3.641302490234375;0.0270271596679463;0.0266673316459171;-0.0188859022557735;0.0002982501173391;0.0140370884910225;-0.0006555910222232
1767708906327302400;3.651302490234375;0.002326908577606;0.0261654830710031;-0.0246212310373783;-0.0014111903728917;0.0108640659600496;0.0036929079797118
1767708906337302500;3.661302490234375;-0.0176373634994029;0.0130814172280952;-0.0291495221167802;-0.0037707509472966;0.0136689078062772;0.0047525796107947
1767708906347303200;3.67130322265625;-0.0194534730106592;0.012628029171098;-0.0292266790062189;-0.0074179181829094;0.0240062363445758;0.007306495681405
1767708906357303000;3.681302978515625;-0.0477531002998352;-0.0149245060778222;-0.0258849673628807;-0.0078288437798619;0.0276353247463703;0.0089680422097444
1767708906367303200;3.69130322265625;-0.0111930096656084;0.0037289939278736;-0.0065454761207103;-0.0106001570820808;0.0322624333202838;0.011274354532361
1767708906377303000;3.701302978515625;0.0260392811417579;-0.0212321548546664;0.0009527706801891;-0.0116031039506196;0.0383514836430549;0.0124559998512268
1767708906387304200;3.71130419921875;0.0242447989404201;-0.0092395557765848;0.0189046069562435;-0.0102411387488245;0.0353040285408496;0.0193171259015798
1767708906397304000;3.721303955078125;0.0213274501889944;-0.0101357374313287;0.0187882871001958;-0.0102643081918358;0.0245304778218269;0.0288704168051481
1767708906407304000;3.731303955078125;-0.0294897138565778;0.0359264506394974;-0.0350081850171089;-0.0104560600593686;0.0175627153366804;0.0407002195715904
1767708906417304000;3.741303955078125;-0.0337847807019948;0.0333789581137709;-0.0531698646515607;-0.0117367748171091;0.0192511603236198;0.0444070734083652
1767708906427305200;3.75130517578125;0.0218722245901823;0.0098398414909839;-0.0017792846322059;-0.0097977546975016;0.031498372554779;0.0361448973417282
1767708906437305000;3.76130517578125;0.0905401391575112;-0.0539713354938663;0.045793198403716;-0.0069175465032458;0.0495053380727767;0.0126177342608571
1767708906447305200;3.77130517578125;0.084933916648291;-0.054452269144915;0.0455552979946136;-0.0038615567609667;0.0646306276321411;-0.0016910191625356
1767708906457305000;3.78130517578125;0.0529383574506267;-0.1111569385928101;0.1040863974183797;0.0002743322402238;0.0651667192578315;-0.009431229904294
1767708906467305200;3.79130517578125;0.0444143112659454;-0.0720760059777647;0.1093722288668155;-0.0001738199498504;0.054102350026369;-0.0084075415506958
1767708906477306000;3.80130615234375;-0.0005944952944293;-0.0306760375643149;0.0811748929083347;0.0028011971153318;0.0487736314535141;-0.0076163159683346
1767708906487306200;3.81130615234375;-0.0536480035573244;-0.0158235920757055;0.0419125575780868;0.0024660979397594;0.0515872612595558;-0.0122652044519782
1767708906497306000;3.82130615234375;-0.0588806435137987;-0.0157130809059366;0.041693946391344;0.0004980219528079;0.0532325617969036;-0.0120630720630288
1767708906507306000;3.831305908203125;-0.1349030124971643;0.0070132580292411;-0.0128314245223999;1.81361101567e-05;0.0517166927456855;-0.0029000942595303
1767708906517307100;3.84130712890625;-0.072341598111391;0.0017736768753267;-0.0419008671402931;-0.0022519424092024;0.045748546719551;0.0014581689611077
1767708906527307000;3.85130712890625;-0.0075871306607499;0.0074719433158636;-0.0118453360944986;-0.0015470542712137;0.0456458814442157;0.0022874679416418
1767708906537307100;3.86130712890625;0.0764361374160274;-0.0122352852601557;0.0177665428370237;-0.0019739591516554;0.0383823774755001;-0.0041757579892873
1767708906547307000;3.87130712890625;0.0732849799087271;-0.0123004959834739;0.0176449622839689;-0.0005350681021809;0.0277640838176012;-0.0032948888838291
1767708906557308200;3.88130810546875;0.0185761056542396;-0.0055814899267628;0.047923196169734;0.0027230433188378;0.021929632872343;0.0035723380278795
1767708906567308300;3.891308349609375;-0.0453232062717899;0.0272129828299395;0.0958645125180482;0.0084656747058033;0.023597439751029;0.0096442736685276
1767708906577308200;3.90130810546875;-0.0540899021059274;0.015966544210352;0.0888765533268451;0.0089024333283305;0.0237058289349079;0.011471202597022
1767708906587308300;3.911308349609375;-0.0232306534618139;0.0271314054937101;0.0871317554861307;0.0086470209062099;0.0199292004108428;0.0114902723580598
1767708906597309200;3.92130908203125;-0.0376361589005216;-0.0107074911709874;0.0605798486471176;0.0047641317360103;0.0104374280199408;0.0157372150570154
1767708906607309000;3.93130908203125;-0.0126052145510911;-0.0183497312861494;-0.0064782561033964;0.0011273671407252;0.0005616294220089;0.0223205983638763
1767708906617309200;3.94130908203125;0.0110310971021652;-0.0095136782765388;-0.0236696294009685;0.0040509854443371;-0.011220728047192;0.0251677855849266
1767708906627309000;3.95130908203125;0.0512205206820741;-0.0088932265569455;0.0262257436245679;0.0069191819056868;-0.028829950839281;0.0217099525034427
1767708906637309200;3.96130908203125;0.0851052180945873;-0.0240232834105379;0.0905266586214303;0.0086166802793741;-0.0317927151918411;0.0182513035833835
1767708906647310000;3.97131005859375;0.0377455375591292;-0.0305228197639808;0.0720516752541065;0.009475840255618;-0.0208854731172323;0.0126557610929012
1767708906657310000;3.98131005859375;0.0377653382381424;-0.0233435575180687;0.0745277099788188;0.0105775902047753;-0.0333384163677692;0.0165588911622762
1767708906667310000;3.99131005859375;0.0195592349400743;-0.0249779172542504;0.0706166740149259;0.0097609609365463;-0.0410055257380008;0.0177107285708189
1767708906677310000;4.00131005859375;0.0044634456822648;-0.0257025965332984;0.0095645316809415;0.0074320258572697;-0.0430151484906673;0.0138195846229791
1767708906687311000;4.01131103515625;0.0189478615760803;-0.020311861671973;-0.0267974060326814;0.0081221722066402;-0.0401499792933464;0.0065098237246274
1767708906697311200;4.021311279296875;0.0345335897753015;-0.0013972447783686;-0.0089998835355043;0.0049524777568876;-0.0389901734888553;0.0037489244714379
1767708906707311000;4.03131103515625;0.0667705565134063;-0.0189164252582006;0.0231640179663896;0.0026631562504917;-0.0369663089513778;-0.0056505510583519
1767708906717311200;4.041311279296875;0.1125339443007484;-0.0282174471647478;0.029446459236741;0.0017486267024651;-0.0473305322229862;0.0051118154078722
1767708906727312100;4.05131201171875;-0.1775473914811387;-0.0546995949694886;-0.0695972678393125;0.0052185272797942;-0.1107687577605247;0.0904268324375152
1767708906737312000;4.06131201171875;-0.079836885770224;0.1456010965189896;0.1170791499823331;-0.0011986254248768;-0.0247372016310691;0.0027813981287181
1767708906747312000;4.07131201171875;0.4358762195736169;0.0053146191515028;-0.0808884771823883;0.0021923093590885;-0.0448599159717559;0.0046644043177366
1767708906757312000;4.08131201171875;0.0089776717036962;0.0281290564952418;0.0038689503878355;0.0030690219718962;-0.0534603297710418;0.0189235024154186
1767708906767313000;4.09131298828125;0.0679676208108663;-0.0100186503903009;0.0062976388394832;0.0048528034240007;-0.0368926711380481;0.0143258599564433
1767708906777313000;4.10131298828125;0.1670972360720858;0.0101348606484942;0.0583306084156036;0.0118180345743894;-0.019791979342699;0.0010462738573551
1767708906787313200;4.111313232421875;0.1613683735638856;-0.0436180828543379;0.0401011242419481;0.0168477166444063;-0.0092166997492313;-0.0138856340199708
1767708906797313300;4.121313232421875;0.1622205699464306;-0.0418479313766583;0.0401104765921831;0.0195974297821521;-0.009780490770936;-0.01503212377429
1767708906807314200;4.131314208984375;0.0093424498954787;0.0041007681160233;-0.0315191738575696;0.0201334804296493;-0.0219560656696558;-0.0013757906854152
1767708906817314000;4.14131396484375;-0.0536146858096122;0.0113204537038691;-0.0548211389899253;0.0237942617386579;-0.0160752721130847;0.002621880499646
1767708906827314200;4.151314208984375;-0.1981335948487743;0.0982678108001127;0.0304401464492082;0.0145706823095679;-0.0909017100930213;0.0799029618501663
1767708906837314000;4.16131396484375;0.3346633682975545;0.0334265418488532;-0.0295405672609806;0.0114174988120794;-0.0026349644176661;0.0105209620669484
1767708906847314200;4.171314208984375;0.3351128656307235;0.0348778183693997;-0.0295423208266496;0.0131957391276955;-0.0093360096216201;-0.0093387123197317
1767708906857315000;4.181315185546875;-0.006917232042551;0.0359575216311961;0.0481523287504911;0.011869485490024;-0.0169372037053108;0.0021600176114588
1767708906867315000;4.19131494140625;0.0279933378189802;-0.0121553792912047;-0.012866495835781;0.0096650831401348;-0.005574163980782;0.0016796044073998
1767708906877315000;4.201315185546875;0.0368809566190466;0.0129402825911995;0.0061257894039154;0.0105820093303918;0.0015407372266054;-0.0005920720286667
1767708906887315000;4.21131494140625;-0.0389022698462009;-0.0062486577317584;-0.0210994866520166;0.0094816666096448;-0.0165487825870513;0.0072799604386091
1767708906897316000;4.221316162109375;-0.0341717341929674;-0.0056105972902383;-0.0208884742498397;0.0005164016038179;-0.0831560418009758;0.0684439837932586
1767708906907316200;4.231316162109375;0.2741120516251772;0.0170545769090764;0.0531008910685777;0.0091737667098641;-0.0101089943200349;0.0202627405524253
1767708906917316000;4.241316162109375;0.1068628033291548;-0.0405686869547702;-0.01633738681674;0.0094693778082728;-0.0024984781630337;-0.0061172023415565
1767708906927316200;4.251316162109375;0.0476343692909926;0.0050012423533946;0.0463783048152923;0.0075106816366314;-0.0111616067588329;-0.0020863120444118
1767708906937317000;4.261317138671875;-0.0206207632243633;-0.0403710454908199;-0.0394663334697484;0.0038770646788179;-0.0108058080077171;-0.0011076005175709
1767708906947317200;4.271317138671875;-0.0196499454308301;-0.0399066519826184;-0.0394265859812498;0.0061918604187667;-0.008426540531218;0.004490072838962
1767708906957317000;4.281317138671875;-0.0442512296587228;-0.018406950499257;0.0318108502805233;0.0047191325575113;-0.0016722313594073;0.0084845479577779
1767708906967317000;4.29131689453125;-0.0148351655602455;0.0052007743803318;0.0204372233510017;0.0010958554921671;0.0009800093248486;0.0115769607946276
1767708906977318100;4.301318115234375;0.0220376442849636;0.0269237814918626;0.0265583365797996;0.0028335680253803;0.0066631943918764;0.0080160479992628
1767708906987318000;4.311318115234375;0.0400520244032144;0.0257871695442125;0.0372837287336587;8.60387226566e-05;0.0098837576806545;0.003843110287562
1767708906997318100;4.321318115234375;0.0392955800127238;0.0259650194623041;0.0372457348108291;0.0013630244648084;0.0058725043199956;0.0030433628708124
1767708907007318000;4.331318115234375;0.0438209484826773;0.0104744130674749;0.0143447516947984;-0.0005510358605533;-0.0046123620122671;0.0088300965726375
1767708907017319200;4.341319091796875;0.0222059135239571;-0.017522998138424;-0.0001350245565176;-0.00302857439965;-0.0072938986122608;0.0184896476566791
1767708907027319300;4.3513193359375;0.003179799079895;-0.0238024893998634;-0.0247702841192483;-0.0097998455166816;-0.0106245791539549;0.0214371886104345
1767708907037319200;4.361319091796875;-0.0064729954063892;-0.0165633136602584;-0.0720025754153728;-0.0101809427142143;-0.003882254473865;0.0208270587027072
1767708907047319300;4.3713193359375;-0.0020516353001818;0.0079377889956347;-0.0228963069409132;-0.0119897872209548;0.0014251586981117;0.0115083660930395
1767708907057319200;4.381319091796875;0.0671517013181001;-0.0045898576740641;0.0131657710433006;-0.0114640789106488;0.0063546705059707;0.0013068614061921
1767708907067320000;4.391320068359375;0.050791445082426;-0.0288111661410424;0.0002454991936683;-0.0099117346107959;0.0233305897563695;-0.0022837580181658
1767708907077320200;4.4013203125;-0.0478921434443444;-0.039172821282735;-0.0187193135172128;-0.0075899907387793;0.0254025291651487;-0.0012800125405192
1767708907087320000;4.411320068359375;-0.0384025036305189;-0.0487321927313692;0.0138303724318742;-0.0074363462626934;0.0067006135359406;0.0009290142916142
1767708907097320200;4.4213203125;0.0853349351972341;-0.0576942193413618;0.056337973293662;-0.0068264817818999;-0.0064303688704967;0.0016994667239487
1767708907107321000;4.431321044921875;0.0953559784740209;-0.0370160451076459;0.0466822561979293;-0.0106284450739622;-0.015949172899127;0.0038175745867192
1767708907117321000;4.441321044921875;0.0253717571437358;-0.0073161682322621;0.0033861353069543;-0.0147584751248359;-0.0174956712871789;0.005234376527369
1767708907127321000;4.451321044921875;-0.0145317986994981;0.0044968730278313;0.0039583822369575;-0.0207420624792575;-0.0224950909614563;0.0066263703629374
1767708907137321000;4.461321044921875;-0.0450065050054341;0.0283344794068485;-0.0045849897027015;-0.0226542111486196;-0.0209959968924522;0.0048905224539339
1767708907147322000;4.471322021484375;-0.0437467872679233;0.0252554738203063;-0.0040291093856096;-0.0208792183548212;-0.0106532108038663;0.0012798486277461
1767708907157322200;4.481322265625;-0.0611573562741279;0.0091609010498039;-0.0033738603472709;-0.019076257944107;-0.000370213529095;-0.0016941032372415
1767708907167322000;4.491322021484375;-0.0532580909242853;0.0137006268386729;0.0148942022711038;-0.0142505830153822;0.0076116807758808;-0.0048470348119735
1767708907177322200;4.501322265625;-0.0180769239604473;0.0068091685581952;0.0401537312120199;-0.0112310918048024;0.0117678102105855;-0.0077117979526519
1767708907187323100;4.5113232421875;0.0384165321558713;0.0135716484304517;0.0384779069542884;-0.0084823835641145;0.0055971341207623;-0.0067733703181147
1767708907197323000;4.521322998046875;0.0262111305773258;0.0180324089652858;0.0116927758812904;-0.0093804011121392;0.000733136665076;-0.0022033862769603
1767708907207323100;4.5313232421875;-0.0432212290238589;0.0210017070996575;-0.0092313542038202;-0.0129040731117129;-0.0032505537383258;0.0043436386622488
1767708907217323000;4.541322998046875;-0.0535486348360776;0.0349924577250145;-0.0124807113885879;-0.0137211317196488;-0.0059597874060273;0.0136939976364374
1767708907227324000;4.551323974609375;-0.0683662647396326;0.0287235517896711;0.0175075996398925;-0.0168948136270046;-0.007588576991111;0.0239886324852705
1767708907237324000;4.561323974609375;-0.0411463224459439;0.0316116561803035;0.0288052387237548;-0.0172146577388048;-0.010506335645914;0.0329890511929988
1767708907247324000;4.571323974609375;-0.0399532036712393;0.0298965776244178;0.0288923324853181;-0.0197825543582439;-0.012668558396399;0.0352641940116882
1767708907257324300;4.58132421875;0.0360381491193547;0.01932310636295;0.0114841015666723;-0.0155393397435545;-0.0167253520339727;0.0275889653712511
1767708907267325200;4.5913251953125;0.0814327035943046;-0.0219356634815223;-0.0446621485471725;-0.0117783593013882;-0.0247977897524833;0.0210917666554451
1767708907277325000;4.601324951171875;0.0273813434004783;-0.0140400148608721;-0.0741372493565082;-0.0101791312918066;-0.0317851267755031;0.0152107086032629
1767708907287325200;4.6113251953125;-0.0440285998839884;-0.001000555344671;-0.0492465537279844;-0.0124068772420287;-0.0407816842198371;0.0285801626741886
1767708907297325000;4.621324951171875;-0.0399480525720864;-0.0020866335483267;-0.0490244354099035;-0.0117666535079479;-0.0407308191061019;0.0329213812947273
1767708907307325200;4.6313251953125;-0.0162941321969032;-0.0319553733177483;0.0090817166000604;-0.0104475663974881;-0.0268786512315273;0.0262238234281539
1767708907317326000;4.641326171875;0.0949216787099838;-0.080670724512171;0.0536141012877225;-0.004805393051356;-0.0031845073681324;6.54566101729e-05
1767708907327326000;4.651325927734375;0.0265946134695783;-0.0731270859332755;0.0533195022553205;-0.0038524898700416;0.0026957532390952;-0.0155313219875097
1767708907337326000;4.661326171875;-0.0529541760742664;-0.0259238563348539;0.0079623571813106;-0.0061723696999251;0.0061336276121437;-0.017246663570404
1767708907347326500;4.671326416015625;-0.053812838730216;-0.0266891598852351;0.0079331310868263;-0.0083038182929158;0.0118836555629968;-0.0133174788206815
1767708907357327600;4.68132763671875;-0.1061900916993617;0.0105022874550893;-0.0383645097076892;-0.0083797182887792;0.0167854707688093;-0.0074137831106781
1767708907367327700;4.69132763671875;-0.0475133732598274;0.0400385621334426;-0.013597732719779;-0.0084012802690267;0.0180804319679737;-0.0044950791634619
1767708907377327600;4.70132763671875;-0.0403623689940199;0.0285283397448249;0.0065337856829166;-0.0076023312285542;0.0176772288978099;0.0012805180158466
1767708907387327700;4.71132763671875;0.0285153523990884;0.0393821440513245;0.0363794733703136;-0.0058091692626476;0.0225935596972703;0.0082877557724714
1767708907397328600;4.72132861328125;0.0263648598343133;0.0391004958320409;0.0362795201271772;-0.000630386522971;0.0202124267816543;0.0022256020456552
1767708907407328500;4.73132861328125;0.004716507127881;0.0086482388199307;0.0578793575167655;0.0033207384403795;0.0173392761498689;-0.0043287747539579
1767708907417328600;4.74132861328125;-0.075392802375555;0.0073101768828928;0.0447667779654264;0.0099014090374112;0.018167519941926;0.0002545258030295
1767708907427328500;4.75132861328125;-0.0522048190116882;-0.0020851905099116;0.0326981545090675;0.0092930532991886;0.016198243945837;-0.0010449700057506
1767708907437329400;4.761329345703125;-0.0539385840017348;-0.0010983896959573;0.0325952786564826;0.0109194461256265;0.0172192994505167;-0.0041632656939327
1767708907447329500;4.77132958984375;-0.0228828629374504;-0.0244669720574282;0.0277256267935037;0.0049004396423697;0.0131993908435106;-0.0075093014165759
1767708907457329400;4.781329345703125;-0.0423036027222871;-0.033194267462939;0.0116582890897989;0.0052943215705454;0.0101503385230898;-0.0115056410431861
1767708907467329500;4.79132958984375;-0.0522854830324649;-0.0468429266523569;0.0065098202854394;0.003223177511245;0.0139377526938915;-0.0110688414424657
1767708907477330700;4.80133056640625;-0.0576899724245071;-0.0257893432349897;-0.008082768690586;0.0037579401396214;0.0175205022096633;-0.0113596599549055
1767708907487330600;4.81133056640625;-0.0545440756142139;-0.028160675476212;0.0022889877200126;0.0023204190656542;0.0238164830952882;-0.0131211057305336
1767708907497330700;4.82133056640625;-0.0569335280340164;-0.0278724696519784;0.0021703297764062;0.0055926451459527;0.0253363493829965;-0.0151949077844619
1767708907507330600;4.83133056640625;-0.0587239916473627;-0.0219552814974449;0.0176028767079114;0.0073303538374602;0.0279956497251987;-0.0130046848207712
1767708907517331700;4.841331787109375;-0.0206838915884494;0.0065397404996678;0.0391740725249052;0.0104134958237409;0.0205630324780941;-0.0137224067002534
1767708907527331600;4.85133154296875;-0.0137444111814722;0.0109679870043881;0.0805319188296794;0.0102333668619394;0.013121492229402;-0.0129924127832055
1767708907537331500;4.86133154296875;-0.061317515271902;0.0105625662749633;0.0614618921786546;0.0104477507993578;0.0094921365380287;-0.0124208973720669
1767708907547331600;4.87133154296875;-0.0572124180406332;0.0071435150790959;0.0370130950987339;0.0102875083684921;0.0096322204917669;-0.0111024528741836
1767708907557332500;4.88133251953125;-0.0686333547106012;0.0090298037497326;0.0326192440539598;0.0089633846655488;0.0104823019355535;-0.007052585016936
1767708907567332600;4.89133251953125;-0.0795171522965654;-0.0030615064624696;0.0045972646623849;0.0053633274510502;0.0101340934634208;-0.0034107519313693
1767708907577332500;4.90133251953125;-0.0646188949048519;-0.0148134103861637;-0.0208738612025976;0.0023699344601482;0.0079055596143007;0.0004763980396091
1767708907587332600;4.91133251953125;-0.0759720270356163;0.0108523612680844;-0.0403577293515205;0.0006651648436672;0.008375871926546;0.0060510141775012
1767708907597333800;4.921333740234375;-0.0663777212709188;0.0221643942034803;-0.0535614943176507;0.0024244491942226;0.0083729419857263;0.0029186038300395
1767708907607333600;4.931333740234375;-0.0238151753515005;0.0195104273622855;0.0084866733163595;0.0041270996443927;0.0139076597988605;-0.0037592141889035
1767708907617333800;4.941333740234375;-0.0076268781492486;-0.0223999199924059;0.0389209745466709;0.0080925468355417;0.0234969034790992;-0.0099087189882993
1767708907627333600;4.951333740234375;0.0045452056815847;-0.0665277972660958;0.0582540360480546;0.0090632271021604;0.0248195622116327;-0.0088832257315516
1767708907637333500;4.96133349609375;0.0002548515439033;-0.0643230354971252;0.0318090967148542;0.008172133937478;0.0185235831886529;-0.0091207800433039
1767708907647334700;4.971334716796875;0.0110504228571429;-0.043680845892243;0.0017991583764553;0.0108598293736577;0.0141910202801227;-0.0132596949115395
1767708907657334500;4.98133447265625;0.0085726345667615;-0.0321813640933483;0.0099538232594728;0.0110611645504832;0.0159913171082735;-0.0163090154528617
1767708907667334700;4.991334716796875;-0.0248965408474206;-0.0272050552518107;0.0038777182161808;0.0132885482162237;0.0195582192391157;-0.0142036583274602
1767708907677334500;5.00133447265625;-0.0580465307772159;-0.0385181658994406;-0.004013327294588;0.0123487189412117;0.0223089978098869;-0.0188034698367118
1767708907687335400;5.01133544921875;-0.0185725619902834;-0.0618404431674629;0.0340448929429054;0.0115399863570928;0.0136456033214926;-0.0251617338508367
1767708907697335800;5.021335693359375;0.0689777111688628;-0.0675174841568805;0.0462573087841272;0.0110488990321755;0.0053754234686493;-0.0178321804851293
1767708907707335700;5.031335693359375;0.0828682893553748;0.00067894044118;-0.0092909754365682;0.0037542118225246;0.0056374785490334;-0.0146087147295475
1767708907717335800;5.041335693359375;0.0060171048650518;0.0322790888467803;-0.0388058237344026;0.0025840187445282;0.0072034173645079;-0.010711446404457
1767708907727336700;5.051336669921875;-0.0574146626144647;0.0386918602322228;-0.0557557894915342;0.0009403534932062;0.0114911077544093;-0.0067005949094891
1767708907737336600;5.061336669921875;-0.0451093077927827;0.0218750924007035;-0.0583475595504045;-0.0035236370749771;0.0128573086112737;-0.0023380713537335
1767708907747336700;5.071336669921875;-0.0466640994867309;0.0214012643438763;-0.0584083498269319;-0.0057056285440921;0.0192226618528366;-0.0066810022108256
1767708907757336600;5.081336669921875;0.0136129668215289;-0.0314114391667768;0.0208288530170917;-0.0076015330851078;0.018568055704236;-0.0095505584031343
1767708907767337500;5.09133740234375;0.0171013203939422;-0.0199132360095158;0.0297387201815843;-0.0038845217786729;0.0172559190541505;-0.0005713147111237
1767708907777337600;5.101337646484375;0.0492792504211887;-0.0321702399111352;0.0174018011778593;-0.0001619554823264;0.0162646900862455;0.010998522862792
1767708907787337500;5.11133740234375;0.1166132860362529;0.0103220355173572;0.0149526544600725;0.0016883653588593;0.0042474400252103;0.022052189335227
1767708907797337600;5.121337646484375;0.117523423151113;0.0105757362837903;0.0149877257734537;0.0003908732905983;-0.0202355328947305;0.0315253213047981
1767708907807338800;5.1313388671875;0.0712444505244493;0.0183584260492585;-0.0190162506371736;0.0011176897678524;-0.0289010573178529;0.0432201474905014
1767708907817338600;5.141338623046875;0.0615390125354751;0.0252424864745698;-0.0179962599396705;-0.0076081571169197;-0.0233033597469329;0.0435461178421974
1767708907827338800;5.1513388671875;0.0425672220945358;-0.0238089830727316;0.0305652341336011;-0.0120021104812622;-0.0084694186225533;0.0296002496033906
1767708907837338600;5.161338623046875;-0.0123731228282675;-0.052466082030069;0.0073918638169765;-0.0173276346176862;0.0090283490717411;0.0241117421537637
1767708907847339500;5.171339599609375;-0.014244798451662;-0.0541874076636508;0.007338672325015;-0.0199159793555736;0.0274485014379024;0.0178409963846206
1767708907857339600;5.181339599609375;0.0275689749270677;-0.0523653433356434;0.0071001873940229;-0.0205514095723629;0.0264066718518733;0.0034024033229798
1767708907867339500;5.191339599609375;-0.0415174207806587;-0.0272913270294666;0.0026642507731914;-0.0184112172573804;0.032293327152729;-0.0016821096651256
1767708907877339600;5.201339599609375;-0.0519535841969773;-0.009918185690511;-0.0002981061637401;-0.0194075051695108;0.0349053554236888;-0.002199029084295
1767708907887340500;5.211340576171875;-0.0309165317893028;0.0071257054277695;-0.0113315413534641;-0.0192579012364149;0.033603198826313;-0.001897407695651
1767708907897340400;5.22134033203125;-0.0345797304719686;0.005267218079511;-0.0114537064284086;-0.0194459203630685;0.0434401184320449;-0.0028830436058342
1767708907907340500;5.231340576171875;-0.042406478574872;0.0704583964469842;-0.0719306792229414;-0.0165295246988534;0.0529975332319736;0.0028284681029617
1767708907917340400;5.24134033203125;0.0368062108824029;0.0988766999460756;-0.064797758603096;-0.0098860021680593;0.0553935803472995;0.004191739950329
1767708907927341800;5.251341796875;0.0157914433717727;0.0738416091444902;-0.0154804777264595;-0.0055282721295952;0.0569856166839599;0.0085063278675079
1767708907937341700;5.261341796875;0.009852700972557;0.0734596971548162;-0.0157137019604444;-0.0031021321192383;0.0648840218782424;0.0165426824241876
1767708907947341600;5.271341552734375;0.0114554234614595;0.0713749267700128;-0.0423170467257499;3.72161157429e-05;0.0741313174366951;0.0219103880226612
1767708907957341700;5.281341796875;0.0036807343393564;0.0748000058478675;-0.04904956985116;0.0028228824958205;0.0808611214160919;0.0261610597372055
1767708907967342600;5.291342529296875;-0.0253448691368103;0.0460590645319782;-0.0219891289681196;0.0043315705843269;0.0886737704277038;0.030258784070611
1767708907977342700;5.3013427734375;-0.0238561284163966;0.0499969154375605;0.016277765583992;0.0042548715136945;0.0905374586582183;0.0327464416623115
1767708907987342600;5.311342529296875;-0.0523895279288291;0.0455071845365688;0.047386020553112;0.0072541022673249;0.082979142665863;0.0483352318406105
1767708907997342500;5.321342529296875;-0.096101828405261;0.044480015179608;0.0282306537061929;0.005941430106759;0.0793886631727218;0.0507970601320266
1767708908007343600;5.331343505859375;-0.040457719127275;0.0185922713377513;-0.0043581952095031;0.0019466779194772;0.0726161077618599;0.0507076978683471
1767708908017343500;5.341343505859375;-0.0261082547247409;0.0275265788237564;0.0158861359179019;-0.0007782683242112;0.0798734873533248;0.0395176261663436
1767708908027343600;5.351343505859375;-0.0411398196399211;0.0144214701928198;0.0855132143735885;-0.0071418494917452;0.0739713981747627;0.0181322265416383
1767708908037343500;5.361343505859375;-0.0327577757418155;-0.0290534778637811;0.1385644210815429;-0.0055908244103193;0.0724949389696121;0.0098404744639992
1767708908047343600;5.371343505859375;-0.0927209537953138;-0.0191057007526047;0.1902718119651079;-0.0042384746484458;0.0695360377430915;0.0068343388848006
1767708908057344800;5.3813447265625;-0.0448562098145484;-0.0533308821658603;0.2328752744168043;0.0044042821973562;0.0537325702607631;-0.0027453177608549
1767708908067344600;5.3913447265625;0.0045796924730762;-0.0352610820659436;0.1959083565473556;0.0131517425179481;0.0399479158222675;0.0015840067062526
1767708908077344800;5.4013447265625;-0.0593862549483776;0.0146804864551872;0.1341197166323661;0.0168455466628074;0.0349161401391029;0.0111351674422621
1767708908087344600;5.4113447265625;-0.0896849471002817;0.064954428735841;0.0717465548276901;0.018923282623291;0.0300791710615158;0.0129662416875362
1767708908097345500;5.421345458984375;-0.0981108301401138;0.0759507650518789;0.0143009125530719;0.0236195009201765;0.0407816171646118;0.0064984895288944
1767708908107345700;5.431345703125;-0.1380278665194287;0.0839355715270154;-0.0147562551051378;0.0261514391750097;0.052304983139038;-0.006165605969727
1767708908117345500;5.441345458984375;-0.1244944312075152;0.0165865940711461;-0.0540250201761722;0.0252347793430089;0.0663057565689086;-0.0102783255279064
1767708908127346400;5.451346435546875;-0.1078981011936441;-0.0081086520505137;-0.114102764520049;0.0195211619138717;0.0667889788746833;-0.0060149054042994
1767708908137346600;5.4613466796875;-0.0744611110160127;-0.0425613768756389;-0.1122071600317955;0.0109628271311521;0.0631513744592666;0.0011162410955876
1767708908147346400;5.471346435546875;-0.0600918094018474;-0.0666527753526344;-0.0867933173120021;0.0028806487098336;0.0649049282073974;0.0125547191128134
1767708908157346600;5.4813466796875;-0.0753887107223272;-0.041436099172756;-0.1273597209781408;-0.0044473055750131;0.0633083581924438;0.006309607066214
1767708908167346700;5.4913466796875;0.008394318857789;-0.0427823078836314;-0.068995794814825;-0.011674833483994;0.0625532194972038;-0.0084874648600816
1767708908177347600;5.50134765625;0.0623930355489254;-0.0223557155244983;0.037566637328267;-0.0166919622570276;0.0627074167132377;-0.0187853761017322
1767708908187347700;5.51134765625;0.0562181463062763;-0.0240848408720456;0.0374468103408813;-0.0178911630064249;0.0629316568374633;-0.0150215048342943
1767708908197347600;5.52134765625;-0.0118570447986014;-0.0011369316080585;0.0415162517368793;-0.0131747033447027;0.0633535012602806;-0.0061571742407977
1767708908207347700;5.53134765625;-0.0633791422431357;0.0336151597561314;-0.0434586179763078;-0.0128740146756172;0.0712706893682479;0.0033037704415619
1767708908217348600;5.5413486328125;-0.0897299552857875;0.0305883592808619;-0.0482388379901647;-0.0117064844816923;0.0781719982624054;0.0133899599313735
1767708908227348500;5.551348388671875;-0.0747059891551732;0.0224422064978629;-0.016512743383646;-0.0104047609493136;0.0809661895036697;0.0196697507053613
1767708908237348600;5.5613486328125;0.0084562599117867;0.0212240263471379;0.0201414552748203;-0.007102707400918;0.0901714041829109;0.0196116939187049
1767708908247348500;5.571348388671875;-0.0004471592456102;0.0209331536417827;0.0199707748830318;-0.0004259287379682;0.0928650572896003;0.01634968444705
1767708908257349400;5.581349365234375;0.0707347657029517;0.0134443322563543;-0.0077484221696853;0.0023304428905248;0.1075308173894882;0.0101565029472112
1767708908267349800;5.591349853515625;-0.0043757125998847;0.0085971844861283;-0.0271130478531122;0.008492256514728;0.1270320862531662;0.0016465256921947
1767708908277349600;5.601349609375;-0.0125005486002191;-0.0014678988617844;-0.006848258459568;0.0070184632204473;0.1442022919654846;0.0017671668902039
1767708908287349800;5.611349853515625;0.0755155702386982;-0.0225937620640732;0.0270446587920188;0.010354071855545;0.1384866088628769;0.0063304933719336
1767708908297350700;5.6213505859375;0.0627577954743988;-0.0214007163546048;0.0268494284808635;0.0132465325295925;0.1215233355760574;0.0179932750761508
1767708908307350500;5.6313505859375;0.2844546550065279;-0.0044380372463725;0.0533288546055555;0.0093582943081855;0.1047672554850578;0.0260083004832267
1767708908317350700;5.6413505859375;0.3186526926845311;-0.0364186728695407;0.0923982977122068;0.009501839056611;0.1040921509265899;0.0184063054621219
1767708908327350500;5.6513505859375;0.2295645424336194;-0.0208732218817807;0.1142845508277416;0.0018574384739622;0.0934355035424232;0.0106929196044802
1767708908337351700;5.6613515625;0.1104185139162;0.0028957031751982;0.1095639520466327;-0.0025120098143815;0.0858992934226989;0.0124167837202548
1767708908347351000;5.67135107421875;0.1024590884774923;0.0024794687908142;0.1095025772482156;-0.0057359365746378;0.076604463160038;0.012691332027316
1767708908357351200;5.68135107421875;0.0451964061209233;-0.0267351179188117;0.0994341876983642;-0.0113642606884241;0.0720672383904457;0.0078867236152291
1767708908367351000;5.69135107421875;-0.0013198504269123;-0.0288586494114249;0.0857832634866237;-0.0121486485004425;0.0775509476661682;0.0055078901350498
1767708908377352000;5.70135205078125;0.016759416187671;-0.0065439965496771;0.0745300480663776;-0.0092303566634655;0.0765916779637336;0.0107151689007878
1767708908387352000;5.71135205078125;-0.0002034136176109;-0.0085475366581231;0.0312596461385488;-0.0074824187904596;0.0660294517874717;0.0108002871274948
1767708908397352000;5.72135205078125;-0.006910222346452;-0.0088662837510928;0.0312321736097335;0.0007962841191329;0.0706835910677909;0.0212534610182046
1767708908407352000;5.73135205078125;0.0704997742035659;-0.0160322481240145;-0.0576806200742721;-0.0014563128352165;0.0643910691142082;0.0211186856031417
1767708908417353200;5.741353271484375;0.0860468828588724;-0.0408307536907494;-0.0787964733392;-0.0057442681863904;0.0595323964953422;0.012698570266366
1767708908427353000;5.75135302734375;0.0802303055346012;-0.0416967411366291;-0.078798226904869;-0.0128447422757744;0.061515524983406;0.0026443470269441
1767708908437353200;5.761353271484375;0.0851210001856088;-0.0496066922772675;-0.0463122538417577;-0.0201753601431846;0.0579823106527328;-0.0034628137946128
1767708908447353000;5.77135302734375;0.089216160544753;-0.0445319280299358;0.0077343936443328;-0.0233794264495372;0.0570958741009235;-0.0091868108138442
1767708908457354000;5.78135400390625;0.0591740735024213;-0.0607649228904396;0.0623959581583738;-0.0308474618941545;0.0586455687880516;-0.0116150816902518
1767708908467354000;5.79135400390625;0.0556067364096641;-0.0478818047134205;0.0679834029018879;-0.0296221207827329;0.0609840899705886;-0.0223715640604496
1767708908477354000;5.80135400390625;0.0740495710730552;-0.0509677149647846;0.0958680196493864;-0.0283741634339094;0.0564175695180892;-0.0316273793578147
1767708908487354000;5.81135400390625;0.051035775232315;-0.0408432113135233;0.0646457829117774;-0.0255866330116987;0.0483375377953052;-0.0313016735017299
1767708908497355000;5.82135498046875;-0.0189724114954471;-0.0383549929606728;0.0072375500380992;-0.0230217427015304;0.04657718911767;-0.0306515991687774
1767708908507355000;5.83135498046875;-0.0388765508830547;-0.0551935342325828;-0.0042407063096761;-0.0152030130848288;0.0527422688901424;-0.0286933835595846
1767708908517355000;5.84135498046875;-0.0410638317942619;-0.0570367144138552;-0.0793202049523592;-0.0141673106700181;0.0558906607329845;-0.0358953699469566
1767708908527355000;5.85135498046875;0.0156944127380847;-0.0281937009629793;-0.0388777199268341;-0.011343004181981;0.0605598464608192;-0.0473565645515918
1767708908537356000;5.86135595703125;0.0285211656519444;0.0043388511882163;0.0289443549335002;-0.0078228376805782;0.0606373474001884;-0.0558935962617397
1767708908547356200;5.871356201171875;0.0057575451799901;0.0026757768142037;0.0726730220228433;-0.0064454544335603;0.0560603030025959;-0.0532354526221752
1767708908557356000;5.88135595703125;-0.033096803004411;0.0105324451313354;0.0746557202726602;-0.0069035179913043;0.0493187792599201;-0.0396197773516178
1767708908567356200;5.891356201171875;-0.0088835682460339;0.0272039044743403;0.0498491957962512;-0.0060673686675727;0.039712619036436;-0.0305059663951396
1767708908577357000;5.901357177734375;0.0117944826900959;0.0314226364142261;0.0362590618610382;-0.0019719596020877;0.0314602851867675;-0.0225593596696853
1767708908587357000;5.91135693359375;0.0087935473084449;0.0269535464424639;-0.0069645783156156;-0.0032403673976659;0.02289436198771;-0.0131401773542165
1767708908597357000;5.921357177734375;-4.0916532278e-05;0.0262887623907998;-0.0136836574375629;-0.0011939946562051;0.0151022188365459;-0.0033898120746016
1767708908607357000;5.93135693359375;0.0066074354410171;0.0188482736591249;0.02568096922338;0.0010700043058022;0.0187575407326221;0.0015764599665999
1767708908617358000;5.941358154296875;-0.0203963113853009;0.0165701178603805;0.0675906041920185;0.002846332732588;0.0251445993781089;-0.0056042214855551
1767708908627358000;5.95135791015625;0.0426619100740877;0.0039192010040394;0.1093482634693384;0.004420225508511;0.0244343355298042;-0.0157499276101589
1767708908637357800;5.96135791015625;0.0525099394381046;-0.0214815813047811;0.1099509055376052;0.0051078535616397;0.0173684358596801;-0.0133869061246514
1767708908647358200;5.971358154296875;0.0277671278476715;-0.021193558143638;0.0770300481885671;0.0082533098757267;0.0133253578096628;-0.0104501983150839
1767708908657359000;5.981359130859375;0.017422254877421;-0.0380788063677959;0.021658289578557;0.0068397037684917;0.0054133716039359;-0.0048556961119174
1767708908667359200;5.991359130859375;0.0240893115511862;-0.0228260729826055;0.0264355869829654;0.007477811537683;0.0068608000874519;-7.17551447451e-05
1767708908677359000;6.001359130859375;0.0232511117279529;-0.022336554166302;0.0264314953297376;0.0037198245991021;0.0100890845060348;-0.0044808848761022
1767708908687359000;6.01135888671875;0.1483458195167128;-0.0412361926864832;0.0375093541830778;0.0018846653401851;0.0184318367391824;-0.0184158906340599
1767708908697360100;6.021360107421875;0.1463549379604402;-0.0409888485956005;0.0375198755770921;0.0016274040099233;0.0198414474725723;-0.0301689524203538
1767708908707360000;6.031360107421875;-0.0454290321332868;-0.0027748167418874;-0.0185831199169158;0.0033510392531752;0.0201716814190149;-0.0239471457898616
1767708908717360000;6.041360107421875;-0.0731049836993217;-0.0138686586156487;0.0117985743433237;0.0076416581869125;0.0201109610497951;-0.0172349140048027
1767708908727360000;6.051360107421875;0.0031131544513162;-0.0208412193083204;0.0052110126465559;0.0115194311365485;0.0153959654271602;-0.012521581724286
1767708908737361000;6.06136083984375;0.058446334616607;-0.0263738833909854;-0.0030377602607011;0.0141793964430689;0.0080794636160135;-0.011316766962409
1767708908747361300;6.071361328125;0.0577484246134758;-0.0251284499071538;-0.0030564649611711;0.0116016883403062;0.0050607696175575;-0.0060483645647764
1767708908757361200;6.081361083984375;0.0521194788157939;0.0224135466589592;0.0042553193569183;0.0098250936716794;-0.0019236365333199;0.0081564038991928
1767708908767361300;6.091361328125;0.1128735058528836;0.0097881478363648;0.0362526321202516;0.011040573939681;-0.0081106927245855;0.01059250254184
1767708908777362200;6.101362060546875;0.1069651585919316;0.0100367888351902;-0.000285246682167;0.0082245478406548;-0.0075796581804752;0.0025521528441458
1767708908787362000;6.111362060546875;0.0574105618280824;-0.0119475178273394;-0.0278390240401029;0.0068879276514053;-0.00503207789734;-0.0017456319183111
1767708908797362200;6.121362060546875;0.0579132597863674;-0.0113421175464056;-0.0278548061311244;0.0051435576751828;-0.004262157715857;0.0051535530947148
1767708908807362000;6.131362060546875;-0.051142158216238;-0.0301302585161291;-0.1070206973046064;0.0034348221961408;0.0006280702073127;0.0135100921615958
1767708908817363000;6.141363037109375;0.0144423668503761;-0.0241589838204905;-0.1125596267312765;0.0008773885201662;0.0067059369757771;0.0121904956176877
1767708908827363000;6.151363037109375;0.0933060693400446;-0.0376156641017645;-0.0624234306871891;6.2734237872e-05;0.011289769783616;0.0067887254990637
1767708908837363000;6.161363037109375;0.0806032305002212;-0.0560367435910739;-0.0273971254914998;-0.0002837430220097;0.0156373791396617;0.0018794543575495
1767708908847363000;6.171363037109375;0.0788858960551675;-0.0561491544569842;-0.0273807588785886;0.000405054190196;0.0183091983199119;0.002392542315647
1767708908857364200;6.1813642578125;-0.0130827689349651;-0.0040530199841596;0.0414689054638147;-0.001404830138199;0.0106020104140043;0.0124638192355632
1767708908867364000;6.191364013671875;-0.0311304759340826;-8.91213218681e-05;0.0524012183666229;0.0020809047855436;0.0066878283396363;0.0156740397214889
1767708908877364200;6.2013642578125;-0.0285188229978084;0.0108323961922898;0.0537491258442401;0.0028926362283527;0.0055123083293437;0.0158820338547229
1767708908887364000;6.211364013671875;-0.0066238111870829;-0.0232870415578596;0.0742465549498796;0.0021543677430599;0.0013204922433942;0.0138782216235995
1767708908897365000;6.221364990234375;-0.0068248775839805;-0.0228893657434731;0.0742412942528724;0.0063216825947165;0.0039325207471847;0.0112789757549762
1767708908907365000;6.231365234375;-0.0463666143774986;-0.0396946258002892;0.0728869570344686;0.001314997090958;-0.0055021257139742;0.0196336917579174
1767708908917365000;6.241364990234375;-0.0397697094636503;-0.0518783635362982;0.0852934341430664;-0.0006964884232729;-0.0226949620991945;0.0292144138365983
1767708908927365000;6.251365234375;-0.0001987374424934;-0.0470648257747292;0.0801852973490953;-0.0008581632282584;-0.0296841617673635;0.0252209790050983
1767708908937366000;6.261365966796875;0.0227986917853355;-0.037612704959698;0.0382633874207735;0.001901936950162;-0.0263773147016763;0.0203481949865818
1767708908947366000;6.271365966796875;-0.0145008190393447;-0.009539726033248;0.0325502704709768;0.0072370339184999;-0.0228393040597438;0.0093367174267768
1767708908957366000;6.281365966796875;0.0077589344305451;-0.0166011705857701;0.0569113892674446;0.0092293443158268;-0.0115839866921305;-0.0001265597529709
1767708908967366000;6.291365966796875;-0.0646948873170884;-0.009961531641893;0.0148380881696939;0.0116917314007878;0.0003720084205269;-0.0038055065087974
1767708908977367000;6.301366943359375;-0.1129097644763533;-0.0018758220755495;0.0326239202290773;0.01536769233644;0.0082379207015037;-0.0015801694244146
1767708908987367200;6.3113671875;-0.1105167318599764;0.008380820055399;0.0206289465308189;0.0147429183125495;0.0048419912345707;0.0089057208970189
1767708908997367000;6.321366943359375;-0.1232324210482183;0.0064554232170805;-0.0112678284674882;0.0164928808808326;0.0048569054342806;0.0163111723959445
1767708909007367200;6.3313671875;-0.1094026148719247;0.0216999184968881;-0.0409235465407371;0.0156723093241453;0.0016564500983804;0.0205091871321201
1767708909017368000;6.3413681640625;-0.0386672829133924;0.0400065595599822;-0.0623474428415298;0.0117947477847337;-0.002442687517032;0.0207821615040302
1767708909027368200;6.3513681640625;-0.0268891668362077;0.0279532067379914;-0.0309475114494562;0.0120502393692731;-0.0030662640929222;0.0238522291183471
1767708909037368000;6.3613681640625;-0.0440869698745664;0.0346437904178164;-0.0125689741939306;0.0118702091276645;-0.0118395155295729;0.0276717338711023
1767708909047368000;6.371367919921875;-0.0220224467158317;0.0242071520774625;-0.0022743746727705;0.011093508452177;-0.0158465113490819;0.0236789770424366
1767708909057369000;6.381369140625;0.0062181438624858;-0.0102169677076861;-0.0105389296710491;0.0127515932545065;-0.0182670578360557;0.0176642276346683
1767708909067369000;6.391368896484375;-0.0143768912655767;-0.0253740952312946;0.0024456395864486;0.0110708810389041;-0.020755648612976;0.014308257959783
1767708909077369000;6.401369140625;-0.0045206968614133;-0.0184835137336514;0.0428109677225351;0.0091395564377307;-0.0276191476732492;0.0068857613950967
1767708909087369000;6.411368896484375;0.0199076465189456;-0.048668333714921;0.0236240366935729;0.0070847077295184;-0.0295273009687662;-0.0009130723774433
1767708909097370000;6.4213701171875;-0.0292821994525846;-0.0411374450197443;0.0289841024219989;0.0035240615252405;-0.0277717448770999;-0.0034420099109411
1767708909107370200;6.431370361328125;-0.0509492705592187;-0.0310478482850827;0.0313572612941265;0.002203396288678;-0.0278539042919874;0.0023690480738878
1767708909117370000;6.4413701171875;-0.0454594455378595;0.0149317578025162;-0.012357377269864;0.0028529413975775;-0.0266091432422399;0.0013091098517179
1767708909127370200;6.451370361328125;-0.0137257430136203;-0.0171993556746281;0.0022872341543436;0.0062521607615053;-0.0183256473392248;-0.0122584123164415
1767708909137371100;6.46137109375;-0.0259025030195713;-0.0133530189773999;0.0109451723843812;0.0082878805696964;-0.0146185271441936;-0.0222300868481397
1767708909147371000;6.47137109375;-0.0246259026459185;-0.0126104021828621;0.0109258831620216;0.0074482257477939;-0.0109159331768751;-0.0265512820333242
1767708909157371100;6.48137109375;-0.0289104526638984;-0.0035320100510492;0.0248240601330995;0.0054540508426725;-0.0051946640014648;-0.0277933813631534
1767708909167371000;6.49137109375;-0.0125146090916125;0.0256812432180158;0.0529442392021417;0.0052634142339229;-0.0027449545450508;-0.0211655627936124
1767708909177372000;6.501371826171875;0.015028057783842;0.0328646336497738;0.0592173281222581;0.0026007858105003;-0.0097842216491699;-0.0138631761074066
1767708909187372000;6.5113720703125;-0.0067851346620591;0.0582561366735957;0.0518733951002359;0.0043416451662778;-0.0156346559524536;-0.0032448549754917
1767708909197372000;6.521371826171875;-0.0048234792002709;0.0587601772055961;0.0518552749216556;0.006764056161046;-0.0231354478746652;0.0030894735828042
1767708909207372000;6.5313720703125;0.003951363407704;0.0567464810293167;0.0714350046604871;0.0096163190901279;-0.0243830047547817;0.0162253156304359
1767708909217373200;6.541373291015625;0.0316764102458953;0.017384740445204;0.0919061302810907;0.0114373881369829;-0.0298262424767017;0.0218195505440235
1767708909227373000;6.551373046875;0.0482066892862319;-0.0290105337711982;0.0544657496809959;0.0085931187495589;-0.0371517986059188;0.0152323823422193
1767708909237373200;6.561373291015625;0.0185784437417984;-0.0482391667837277;0.0068564417660236;0.0055177002213895;-0.0377973467111587;0.0015218965709209
1767708909247373000;6.571373046875;0.0222071556329727;-0.0477555845178663;0.0068359834998846;0.0036548757925629;-0.0380511470139026;-0.0051068230532109
1767708909257374000;6.5813740234375;0.0736065034806728;-0.043492648110073;-0.0446545497626066;0.0020210265647619;-0.0427588149905204;-0.0053704758174717
1767708909267374000;6.5913740234375;0.0498199697017669;-0.0421204647077247;-0.0567868861049413;-0.0005068990867584;-0.0481449291110038;-0.0053594857454299
1767708909277374000;6.6013740234375;0.0013888217266066;-0.0107425076854415;-0.0710071346372366;-0.0034693996421992;-0.0479228198528289;0.0018526206258684
1767708909287374000;6.6113740234375;0.0355845236003398;-0.0221337616031989;-0.0316524448484182;-0.0045762453228235;-0.050898503512144;0.0044533754698932
1767708909297375000;6.621375;0.0408814609646797;-0.0225568093208596;-0.0316518603265285;-0.0063291387632489;-0.0548194758594036;0.0007899308111518
1767708909307374800;6.631374755859375;0.0389630601227283;-0.0047460620159283;-0.0207213009893894;-0.0059352135285735;-0.0461100079119205;-0.0045805918052792
1767708909317375200;6.641375244140625;0.04985153388381;-0.0374195752740837;0.0162467859238386;-0.0044339895248413;-0.0374030694365501;-0.0144555922597646
1767708909327375000;6.651375;0.0668804100960493;-0.0219413077710196;0.0135597387969493;-0.0048662172630429;-0.0248677022755146;-0.0315499305725097
1767708909337376000;6.6613759765625;0.0389741660386323;-0.0397427027257159;0.0095253687143325;-0.0037801801227033;-0.0133937383070588;-0.041668877005577
1767708909347375600;6.671375732421875;0.0395616105377674;-0.0401588275122456;0.0095323829770088;-0.005444360896945;0.0003108894452452;-0.0383943133056163
1767708909357375700;6.681375732421875;-0.0348445188879966;-0.0056118667987175;0.0069932198882102;-0.0039053200744092;0.0151819810271263;-0.0371657945215702
1767708909367375600;6.691375732421875;-0.0365904857724905;-0.0061404207174666;0.0070014031946659;-0.0054029002785682;0.0197933744639158;-0.0252729728817939
1767708909377376800;6.701376708984375;-0.0545417375266551;0.022711543224845;-0.0283043034642934;-0.0088434386998415;0.0071665300056338;-0.0152959739789366
1767708909387377000;6.711376953125;-0.0303016147613525;0.0200821628356352;-0.0226017079085111;-0.0117368996143341;-0.0010899335611611;-0.0131819229573011
1767708909397376800;6.721376708984375;-0.0162689977556467;0.0225287888027727;-0.0065659343868494;-0.0161124728620052;0.0010693576186895;-0.0146314818412065
1767708909407376600;6.731376708984375;-0.0310480492144823;0.0288033390276134;-0.0250958628118038;-0.016793442890048;0.0020970711484551;-0.0085418978706002
1767708909417377800;6.741377685546875;-0.0134381582438945;0.0373647763469256;0.0096451957017183;-0.013655973598361;0.0013223579153418;-0.0094833252951502
1767708909427377700;6.751377685546875;0.0099883100509643;0.0377219557541422;0.0238800572812557;-0.0105637907981872;-0.0029104705899953;-0.0037712166085839
1767708909437377800;6.761377685546875;-0.0391489380836486;0.0086301917065866;0.0149152450591325;-0.0067669218406081;-0.0143138598650693;0.0042771222069859
1767708909447377700;6.771377685546875;-0.0029945056408643;0.0020027181245386;0.055623687544465;-0.0021746261045336;-0.0264528170228004;0.0087165394797921
1767708909457378600;6.781378662109375;0.0058528176814317;-0.014900869473908;0.0216594586223363;-0.0001253236550837;-0.0233963076025247;0.0054078279063105
1767708909467378700;6.791378662109375;0.0081669398427009;-0.0128492889726534;-0.0021299977660179;-0.0006059956504032;-0.0217908192425966;0.0042503215372562
1767708909477378800;6.80137890625;0.0015694401321641;-0.0039636429339647;0.0110392804086208;0.0019090936984866;-0.0227162688970565;0.0018020772840827
1767708909487379000;6.81137890625;0.0143880063146352;-0.0043513818762265;0.0197170923829078;0.0041794418357312;-0.0199914537370204;0.0020081659313291
1767708909497379800;6.8213798828125;-0.036245620140864;-0.0151992130996659;0.003405424529314;0.00548199377954;-0.0162632949650287;0.00443324027583
1767708909507379700;6.831379638671875;-0.0737421125590801;-0.0435120834629051;0.056073184877634;0.0061696385964751;-0.0220496766269207;0.0088482927531003
1767708909517379800;6.8413798828125;-0.0623690701514482;-0.0689007186762057;0.080607322153449;0.0079321190714836;-0.0256191119551658;0.0117535348981618
1767708909527379700;6.851379638671875;-0.0174240130096673;-0.0638836759654805;0.0789560478150844;0.0073757641948759;-0.0264787822961807;0.0104509592056274
1767708909537380600;6.861380615234375;0.014470423901081;-0.0489454153569415;0.0678811115711927;0.0021240108180791;-0.0263626687228679;0.0047312881797552
1767708909547380700;6.871380615234375;0.0232668983855517;-0.0122471766273491;0.0684860917270183;-0.0021189241670072;-0.0274092890322208;0.0039452277123928
1767708909557380600;6.881380615234375;-0.0390939975925954;0.0038367468849755;0.0282446822315454;-0.0037402566522359;-0.0261914245784282;0.0049686804413795
1767708909567381500;6.891381591796875;-0.0844587368845939;-0.0068714384057559;0.0278080443799495;-0.0013921798672527;-0.0288900081068277;0.0030500104185193
1767708909577382000;6.9013818359375;-0.0611778191068442;-0.0129722212325781;0.066423898500204;0.0005687055527232;-0.0258460156619548;-0.0004701558500528
1767708909587381800;6.9113818359375;-0.0401823727846145;-0.011089604090061;0.0478711737215518;0.004330176860094;-0.0224378332495689;0.0037485416978597
1767708909597382000;6.9213818359375;-0.0379629477360518;-0.0104987620574422;0.0478700046777725;0.0066750906407833;-0.0235065594315528;0.0048937010578811
1767708909607382800;6.9313828125;0.0110568160653114;0.0001201375146396;-0.0181231011897325;0.0062953075394034;-0.0230997633188962;0.0076657203026115
1767708909617382700;6.941382568359375;0.0177624511837959;-0.0017368337299674;-0.0535918894559145;0.0082588559016585;-0.0219008084386587;0.0042150625959038
1767708909627382800;6.9513828125;0.0181283618867397;0.001294131463766;-0.0758919840693473;0.0093968408182263;-0.0185621362179517;0.0021003114525228
1767708909637382700;6.961382568359375;0.0401771075210301;0.0048108526141382;-0.0763426504462957;0.0054273996502161;-0.0168744903057813;-0.0009700469672679
1767708909647383800;6.9713837890625;0.041537294524908;0.0054065717512741;-0.0763461575776338;0.0068412814289331;-0.010852949693799;-0.004617101047188
1767708909657383700;6.9813837890625;0.0187894561439752;0.0109552736532874;0.0056488195419311;0.0063999956473708;-0.0123264770954847;-0.0021219858899712
1767708909667383600;6.991383544921875;0.0315057298541069;-0.0009497932718135;0.0138747960954904;0.0058663394302129;-0.0152162723243236;-0.0025648199953138
1767708909677383700;7.0013837890625;0.0329138385197846;-0.0003931275034323;0.0138742115736007;0.0050942888483405;-0.0131808184087276;-0.0094086118042469
1767708909687384800;7.011384765625;0.003043605479598;-0.014030625978019;0.0087877020895481;4.88790683448e-05;-0.011265872977674;-0.0107039008289575
1767708909697385000;7.021385009765625;0.0040168344259262;-0.0140695514826104;0.0087935473084449;0.0005657986621372;-0.0085515799000859;-0.0164954774081707
1767708909707384800;7.031384765625;-0.0047995046696392;-0.0266793508772738;0.0263046540796756;0.0009919244330376;-0.0053030550479888;-0.0186811089515686
1767708909717384700;7.041384765625;-0.0153501293450593;-0.0027865254459902;0.0144844524264335;0.0018417390529066;-0.0068125342950224;-0.0141902212053537
1767708909727385900;7.0513857421875;-0.0099339540818007;0.0047947965284809;0.0037122985213994;0.0023008817806839;-0.0067158616147935;-0.0105860596522688
1767708909737385700;7.0613857421875;0.0189507750523742;0.0007357121297158;0.0194248314380645;0.0034987716935575;-0.0117598883807659;-0.0098094819113612
1767708909747385900;7.0713857421875;0.0201724395015509;0.001102810142748;0.0194260004818439;0.0023306594230234;-0.011207683943212;-0.0090317670255899
1767708909757385700;7.0813857421875;-0.0446890365540981;0.0133905927751213;-0.0161877492129802;7.2298804298e-05;-0.0030922328587621;-0.0111071681603789
1767708909767386600;7.09138671875;-0.020796115224692;0.0226420033862814;0.0107446813762187;-0.0015521829482167;0.0125514436513185;-0.0207039006054401
1767708909777386800;7.10138671875;-0.0219230734280077;0.0188236324082128;-0.0160468794375658;-0.0036113390233367;0.0199483726173639;-0.0243670791387558
1767708909787386600;7.11138671875;-0.0507914496490033;0.0387377634668722;-0.0235334358006715;-0.0065342048183083;0.0239566955715417;-0.0184228718280792
1767708909797386800;7.12138671875;-0.0533078118175268;0.0380238065112382;-0.0235357738882303;-0.0073491316288709;0.0270986929535865;-0.0126723088324069
1767708909807388000;7.131387939453125;0.0608721050253836;0.0519278104349039;0.023450433692336;-0.0060553117655217;0.0212523899972438;-0.0134282670915126
1767708909817387800;7.1413876953125;0.1021107134312391;0.028005046523083;0.0119312608122825;-0.00833604298532;0.0160954445600509;-0.0199828390032053
1767708909827388000;7.151387939453125;0.0734235481292009;0.0180663843001239;0.0444119731783866;-0.0099741490557789;0.0073492238298058;-0.02238105610013
1767708909837387800;7.1613876953125;0.0732569593906402;0.0170116328164935;0.0444289243131875;-0.0117808375507593;-0.0022456129081547;-0.0262061543762683
1767708909847388700;7.171388671875;0.0022106572202173;9.36878991313e-05;0.0363695364981889;-0.0132383937016129;0.0020617838017642;-0.0230060182511806
1767708909857388800;7.181388916015625;-0.0490507434615166;0.0213482189823873;-0.005803717842698;-0.0177441947162151;-0.000749981496483;-0.0176485367119312
1767708909867388700;7.191388671875;-0.0183002113223075;0.0027841508258134;0.022059271594882;-0.0179192069917917;-0.0002048332244157;-0.0218712948262691
1767708909877388800;7.201388916015625;-0.0199409597000805;-0.0160756123417057;-0.0025987843215465;-0.0206260439008474;0.0093822805210947;-0.0234055407345294
1767708909887389700;7.2113896484375;-0.0648813361001666;-0.0245835659081116;-0.0369844535261392;-0.0197431743144989;0.0129249515011906;-0.0244240313768386
1767708909897389600;7.2213896484375;-0.0377069180152146;-0.0614590061018243;-0.0181038119673728;-0.0171607062220573;0.0151550816372036;-0.0212884247303009
1767708909907389700;7.2313896484375;-0.0485176549315452;-0.0711598227146081;-0.0098550390601158;-0.0144921923056244;0.0145960859954357;-0.0125064412131905
1767708909917389600;7.2413896484375;-0.0023515315622091;-0.0646054691676981;0.0010877952367067;-0.0131816500797867;0.0134027227759361;-0.0122662233188748
1767708909927390700;7.251390625;0.0150982049771817;-0.045415779926069;0.0362719213426113;-0.0127252424135804;0.0094941332936286;-0.007332032546401
1767708909937390800;7.261390869140625;-0.0001700913033215;-0.0314252850290387;0.0241711491823196;-0.0131241837516427;0.008046705275774;-0.0071293655782938
1767708909947390700;7.271390625;-0.0104658644348382;-0.014962901859451;0.0108721071481704;-0.0119603350758552;0.0100960079580545;-0.0095504783093929
1767708909957390800;7.281390869140625;-0.0496732547074556;-0.0054799292484298;-0.0188911629527807;-0.0109403440728783;0.0245686899870634;-0.0129635855555534
1767708909967391700;7.291391845703125;-0.0607803442218573;-0.0079959489236585;-0.040431379109621;-0.0109220258891582;0.0413350202143192;-0.0132702281698584
1767708909977391600;7.3013916015625;-0.0368845048495801;-0.0175555121685378;-0.0161871646910905;-0.0081850951537489;0.0483684279024601;-0.0144249750301241
1767708909987391700;7.311391845703125;0.0034235424246056;-0.0071960672502405;0.0692541534900665;-0.0057770679704844;0.0419711172580719;-0.0192870683968067
1767708909997391600;7.3213916015625;0.0119330120946629;-0.0043797859868034;0.1181856499195098;-0.0063704205676913;0.0348743237555027;-0.0137495566159486
1767708910007392800;7.331392822265625;-0.0473234767109155;0.0146883775006979;0.0791337424695491;-0.0048981923609972;0.0357521027326583;-0.0088404230773448
1767708910017392600;7.341392578125;-0.0919219123721122;0.0395872016367502;0.0314005159139633;-0.0032398421317338;0.0379271060228347;-0.0050342325121164
1767708910027392500;7.351392578125;-0.0691173753678798;0.046744854839053;-0.0003232406049966;0.0002643387997522;0.0300255082547664;-0.015850581228733
1767708910037394000;7.361393798828125;0.0112409404605627;0.0139798273725435;0.0176309337586164;-0.002899229992181;0.0135706337168812;-0.0207262951880693
1767708910047393800;7.371393798828125;0.0668289721697568;-0.0349005233915522;0.0536976879179477;-0.0019863117486238;0.0028612639289349;-0.0189319625496864
1767708910057393700;7.3813935546875;0.0346434433579444;-0.011902655772306;-0.0016647183418273;-0.0032036430202424;0.0017323500942438;-0.0113669876009225
1767708910067393800;7.391393798828125;0.0514063621103763;0.0060510619335807;-0.030688568252325;-0.0037237415090203;-0.0059821614995598;-0.0087343882769346
1767708910077394700;7.401394775390625;-0.0112210678579576;0.0173949513119645;-0.0484849217057228;-0.0065179304219782;-0.0083731478080153;-0.0093136262148618
1767708910087394800;7.411394775390625;-0.0768348178774118;0.0041301951399073;0.0024023849666118;-0.0064534544944763;-0.0014409380964934;-0.010172551497817
1767708910097394700;7.421394775390625;-0.0771463680446147;0.0036190672799944;0.0024117373168468;-0.0044259894639253;0.0070212562568485;-0.0012482991442084
1767708910107394800;7.431394775390625;0.0033604169146303;-0.0190927316731773;0.0929500863760709;-0.0030709765851497;0.0036144070327281;0.0043659512884914
1767708910117395700;7.441395751953125;0.1177238776266574;-0.0435443600310012;0.0889163008153438;-0.0041929665021598;-0.0015707677230238;0.0030863024294376
1767708910127395600;7.4513955078125;0.1271335110068321;-0.0435692022113129;0.0431400535464286;-0.0084865279495716;-0.0070006866008043;-0.0042231148108839
1767708910137395700;7.461395751953125;0.0641384179115295;-0.0284310716491192;-0.0035270050823688;-0.0130511857569217;-0.0085019106045365;-0.0134568270295858
1767708910147395800;7.471395751953125;0.0649473962068557;-0.0296983151059597;-0.0035012861192226;-0.012314866296947;-0.0107753202319145;-0.021913968026638
1767708910157396700;7.481396728515625;-0.0244704243898391;-0.0221172488598152;0.0288461552560329;-0.0140219526365399;-0.0147660663351416;-0.0210614912211895
1767708910167396900;7.49139697265625;-0.0236088391244411;-0.0196348391932435;0.015408581534028;-0.0145053286105394;-0.0210338160395622;-0.0175206586718559
1767708910177396700;7.501396728515625;-0.0872714562177658;-0.0195212044846266;0.0013701193094253;-0.012720744125545;-0.0140105271711945;-0.0091924201697111
1767708910187396900;7.51139697265625;-0.0642377866327762;-0.013750219867751;-0.049178164666891;-0.0155513957142829;-0.0034384434111416;-0.0111466646194458
1767708910197397800;7.521397705078125;-0.0642208354979753;-0.0150065035391598;-0.0491524457037448;-0.0114687690511345;0.0017893419135361;-0.0094230659306049
1767708910207397600;7.531397705078125;-0.01739244768598;0.0033107319831848;-0.0422504112303257;-0.0095374323427677;0.0107194539159536;-0.013342335820198
1767708910217397800;7.541397705078125;-0.024632921475172;0.0014122596844099;-0.0570458293020725;-0.0117497202008962;0.0131866065785288;-0.0171993914991617
1767708910227397600;7.551397705078125;-0.034426001214981;0.0196143991934135;-0.0643570290982723;-0.0102732833474874;0.0092933299019932;-0.0091912904754281
1767708910237398500;7.5613984375;-0.0163397249042987;0.0143790375568903;-0.0284264685392379;-0.0089004235342144;0.006305263377726;0.0021503136958926
1767708910247398700;7.571398681640625;-0.0169388598412275;0.013574534507282;-0.0284106864482164;-0.0070032272487878;0.0076026218011975;0.0083525422960519
1767708910257398800;7.581398681640625;0.02788169413805;-0.0337469511759467;0.0702133539110422;-0.0071004331111907;0.0042853886261582;0.0086838398128747
1767708910267399000;7.59139892578125;-0.0089916990874044;-0.0212326845776289;0.0444891300678253;-0.0063763074576854;-0.0018310938030481;0.0104363039135932
1767708910277399800;7.60139990234375;0.0185346057417162;-0.038531134978868;-0.0077197805970907;-0.0087901968508958;-0.0020800991915166;0.010832049883902
1767708910287399700;7.611399658203125;0.0804722975969314;-0.0498069640897214;0.0347977571368217;-0.0113891148939728;-0.003381451126188;0.0025810762308537
1767708910297399800;7.62139990234375;0.0811807381272315;-0.050802514465712;0.0348193844467401;-0.0104343714192509;-0.0116604194045066;-0.0066347923129796
1767708910307400700;7.631400634765625;0.1055482866644859;-0.0916947890853509;0.0824281078398227;-0.0120413927361369;-0.0076704742386937;-0.0109908357262611
1767708910317400600;7.641400634765625;0.0616746581465005;-0.1007562300823628;0.0199082310408353;-0.0136696491390466;-0.0045673591084778;-0.010099209845066
1767708910327400700;7.651400634765625;0.0335708456903696;-0.0955805444775149;-0.005801964277029;-0.0142646171152591;-0.004646189045161;-0.009839043021202
1767708910337400600;7.661400634765625;0.0090267715424299;-0.0730041536733508;-0.0033750293910503;-0.0163514707237482;-0.0047002509236335;-0.0090840365737676
1767708910347401700;7.671401611328125;-0.013970072021865;-0.0603331073444336;-0.0305716638743877;-0.0175541155040264;-0.0027418944519013;-0.0081159705296158
1767708910357402600;7.681402587890625;-0.0308954890012741;-0.0324898089880123;-0.012728548669815;-0.018677968531847;-0.0054732323624193;-0.0085266297683119
1767708910367402500;7.691402587890625;0.0077402388632297;-0.0305819112737663;0.000481061515212;-0.0206694845110178;-0.0126987881958484;-0.0123514216393232
1767708910377402600;7.701402587890625;0.0403676662236452;-0.0408682178906165;0.0110042090952396;-0.0231166630983352;-0.0171689037233591;-0.0137567725032567
1767708910387403500;7.711403564453125;-7.30652362108e-05;-0.039369485499151;0.0034182840108871;-0.0220843963325023;-0.0148583445698022;-0.0104156266897916
1767708910397403400;7.7214033203125;-0.0195808987826108;-0.0383289817365817;0.0136409873396158;-0.0212090145796537;-0.0162245463579893;-0.0062075653113424
1767708910407403500;7.731403564453125;-0.0066331521208747;-0.0357677164138294;0.0145855747133493;-0.0205597672611475;-0.0089975269511342;-0.0066287396475672
1767708910417403400;7.7414033203125;-0.0050467597122653;-0.0177119448392651;0.0283925662696361;-0.0186580047011375;-0.0052944016642868;-0.0099901817739009
1767708910427404300;7.751404296875;-0.0308194988723262;-0.046922659091372;0.0305237330794334;-0.0147785888984799;-0.0046203560195863;-0.008977485820651
1767708910437404400;7.761404296875;-0.0570996053159236;-0.0101582049914635;0.0202285490363836;-0.0115543007850646;-0.0025183227844536;-0.0025672572664916
1767708910447404300;7.771404296875;-0.0353717553492053;0.006638944824133;0.0244394447296857;-0.0076926895417273;-0.0029472238384187;0.0019112832378596
1767708910457404400;7.781404296875;0.0100824203584925;0.0139189457644708;0.038670799177885;-0.0072474093176424;-0.0042316662147641;0.002322475425899
1767708910467405600;7.791405517578125;0.0303664989743963;-0.0195060251818038;0.0470703787326812;-0.0109392721205949;-0.0039340564981102;0.000588362570852
1767708910477405400;7.801405517578125;0.0128144756708876;-0.044908725453075;0.0207587103903293;-0.0133760645985603;-0.0027351011522114;0.002205700147897
1767708910487405600;7.811405517578125;-0.0103074567194445;-0.0525555686781182;0.0154015672713518;-0.0143391378223896;-0.0041750739328563;0.0045424457639455
1767708910497405400;7.821405517578125;0.0141150368754402;-0.054912507067807;0.0100473467618226;-0.0142163652926683;-0.005362844094634;0.0016649004537612
1767708910507406600;7.831406494140625;0.0284445910011068;-0.0543177560450509;-0.0083276833623647;-0.0144992358982563;-0.0043071690015494;-0.0030619110912084
1767708910517406500;7.841406494140625;0.0400298125714063;-0.0498911352418363;-0.0145797294944524;-0.0151367969810962;-0.0090598464012146;-0.0082561410963535
1767708910527406300;7.85140625;0.0273743291378021;-0.0268227962022647;0.0064046063452959;-0.0111193666234612;-0.0092019233852624;-0.0069327037781476
1767708910537406500;7.861406494140625;0.0348714068949222;-0.0057019745012745;0.0050853404402732;-0.0116200409829616;-0.0108975581824779;-0.0055766217410564
1767708910547407400;7.871407470703125;0.0360246708665625;-0.0067578950286842;0.0051139820128679;-0.0109965950250625;-0.0123689547181129;-0.0031126653775572
