timestamp;seconds_elapsed;acc_z;acc_y;acc_x;gyro_z;gyro_y;gyro_x
1767708643579126800;0.067126708984375;0.0246165548622608;0.1292534988354891;-0.0951706850349903;0.0446948148310184;-0.02750532515347;0.0589950643479824
1767708643589127700;0.077127685546875;0.0424058575203642;0.0287518645687028;-0.1101525655895471;0.0409019403159618;-0.0363936275243759;0.0577116906642913
1767708643599127800;0.0871279296875;-0.0179366752395406;-0.0104154859544709;-0.1456593477785587;0.0411591976881027;-0.0469316318631172;0.068392775952816
1767708643609129000;0.09712890625;-0.0692483082711696;0.0097613694272935;-0.2250263144820928;0.0341537520289421;-0.0545522682368755;0.0828260406851768
1767708643619128800;0.10712890625;-0.054950975914672;0.0038196313533931;-0.2473702482372522;0.0216845870018005;-0.0675646588206291;0.0947979241609573
1767708643629129000;0.11712890625;-0.0470984357833862;-0.0264600273044779;-0.2192804643064737;0.0084779728204011;-0.0815369337797164;0.1011836528778076
1767708643639129900;0.1271298828125;-0.0252840423276647;0.0057493573069572;-0.2819996630698442;-0.0094101894646883;-0.0981770753860473;0.109095811843872
1767708643649130000;0.1371298828125;-0.1157902792155742;-0.0394732381345704;-0.3635363750278949;-0.0265343151986598;-0.1115711778402328;0.126245230436325
1767708643659131000;0.147130859375;-0.3016799671063199;0.0047640725966542;-0.400446594274044;-0.0343280620872974;-0.115312673151493;0.1513118594884872
1767708643669130800;0.157130859375;-0.3831482169380411;0.0856414073305204;-0.3752075235992669;-0.0370948202908039;-0.1048975810408592;0.1874813288450241
1767708643679131600;0.167131591796875;-0.2919932703504339;0.1500888181259855;-0.141451374694705;-0.0314843393862247;-0.0730421766638755;0.2101778537034988
1767708643689131800;0.1771318359375;-0.1167324919691309;0.2375208352003246;0.1718722319215536;-0.0248001217842102;-0.018698826432228;0.2114458978176117
1767708643699132000;0.1871318359375;0.0725286816487088;0.2561380035173147;0.3919774566143751;-0.0217814277857542;0.0333175025880336;0.2040239423513412
1767708643709132800;0.1971328125;0.1926806266725063;0.1332411802321672;0.5016103822439909;-0.0224271956831216;0.0542430654168129;0.2089392095804214
1767708643719133000;0.2071328125;0.2241267352938652;0.0166316570555791;0.5790758992403745;-0.0186279024928808;0.0393105372786521;0.2240331172943115
1767708643729133800;0.2171337890625;0.2410439312925562;-0.1613939098639413;0.5576514184176922;-0.0115966256707906;-0.007652441971004;0.2397758662700653
1767708643739134000;0.227134033203125;0.2297872818062082;-0.3552598373308777;0.5203332028925418;-0.0071286405436694;-0.0597808919847011;0.240359365940094
1767708643749134800;0.237134765625;0.1325765788435935;-0.4682356801802292;0.5297141947001218;-0.0148747386410832;-0.0932477340102195;0.2321496605873108
1767708643759134700;0.247134765625;-0.0308323241045698;-0.4354209500867873;0.4506535174667835;-0.0297679919749498;-0.1138667911291122;0.2218059748411178
1767708643769134800;0.257134765625;-0.1151508305345661;-0.4009132619377225;0.3876391351491212;-0.0418483577668666;-0.1223862394690513;0.1979531049728393
1767708643779136000;0.267135986328125;-0.1494446750035509;-0.3496225255636498;0.2474877371370792;-0.0504782870411872;-0.1089279353618621;0.1730592250823974
1767708643789136000;0.277135986328125;-0.1312614228581078;-0.2993344634260982;0.0945715500980615;-0.0557641275227069;-0.081908032298088;0.1550394743680954
1767708643799136800;0.28713671875;-0.0404348862409591;-0.2648599834268912;-0.0308721081256866;-0.0613623596727848;-0.067974105477333;0.1320686489343643
1767708643809137000;0.297136962890625;-0.0206020585238933;-0.2100103124622255;-0.1239344227045774;-0.0711849480867385;-0.0660809278488159;0.1071816980838775
1767708643819136800;0.30713671875;-0.0725309832036495;-0.1063889022070914;-0.1768196251958608;-0.0868147239089012;-0.0754321664571762;0.08527871966362
1767708643829138000;0.317137939453125;-0.1491500942374579;0.0289160786870867;-0.1032119526714086;-0.0983848273754119;-0.0986184477806091;0.0842312946915626
1767708643839137800;0.3271376953125;-0.1988742388819344;0.1017312125943601;0.0095820673376321;-0.0955818518996238;-0.1174898743629455;0.0979854613542556
1767708643849138700;0.337138671875;-0.2196598190128803;0.0641229646140709;-0.0127273796260356;-0.1020211204886436;-0.1177088245749473;0.0985162779688835
1767708643859139000;0.34713916015625;-0.2292039289603009;0.0838218637531623;0.0058721069037914;-0.1056078895926475;-0.1120377257466316;0.0861533358693122
1767708643869140000;0.357139892578125;-0.280202276525367;0.1054445705616846;0.022098434561491;-0.1016813293099403;-0.1157043725252151;0.0848643630743026
1767708643879139800;0.367139892578125;-0.3368412603259086;0.1374768450405448;0.0648076954752206;-0.0997193753719329;-0.1312801390886306;0.097408652305603
1767708643889140000;0.377139892578125;-0.3744108202636241;0.1738623097602278;0.0540846414089202;-0.1014195308089256;-0.1621586382389068;0.1094231903553009
1767708643899140900;0.387140869140625;-0.3864040403962135;0.2466530033459886;0.0732832628756761;-0.1005862280726432;-0.1916638016700744;0.1222558990120887
1767708643909140700;0.397140625;-0.3955728507578372;0.359885268641822;0.1422936707377433;-0.0930806398391723;-0.2210404574871063;0.1267796009778976
1767708643919142000;0.407141845703125;-0.3525333349764347;0.4091828219046816;0.2492798812508583;-0.0822724401950836;-0.2379703670740127;0.1224569305777549
1767708643929141800;0.417141845703125;-0.4629238009750843;0.3987067648693919;0.287294846868515;-0.075322650372982;-0.2314730435609817;0.1144557297229766
1767708643939143000;0.427142822265625;-0.3783867381572723;0.3529630316305905;0.4052238916784524;-0.0656694918870925;-0.2505969405174255;0.0998829081654548
1767708643949143000;0.43714306640625;-0.3908019830942154;0.2272363186817616;0.3793751646727323;-0.0633900910615921;-0.2493849396705627;0.0819289460778236
1767708643959143000;0.447142822265625;-0.3101812169373035;0.0882866976749151;0.387397143086791;-0.06061752140522;-0.2702337801456451;0.0519004464149475
1767708643969143800;0.457143798828125;-0.2910404631376266;-0.0485953963428735;0.3167898214221;-0.0628034397959709;-0.2820699512958526;0.022382766008377
1767708643979144000;0.46714404296875;-0.3403711880177259;-0.1474376825626939;0.2337099716752767;-0.0634406730532646;-0.3040566146373749;-0.004141584970057
1767708643989144800;0.477144775390625;-0.4189566489547491;-0.1417845521718263;0.034306758749485;-0.062361292541027;-0.3040963113307953;-0.0225629359483718
1767708643999144700;0.487144775390625;-0.4849088382899761;-0.0805932936280965;-0.1267179159432649;-0.05406504124403;-0.3055262565612793;-0.0385589674115181
1767708644009144800;0.497144775390625;-0.5153565835237502;-0.0396943700719624;-0.2651858909130096;-0.0333736129105091;-0.2748250663280487;-0.0658853948116302
1767708644019146000;0.50714599609375;-0.4871148239016533;-0.0229294785581529;-0.3298310893028974;-0.012000129558146;-0.2524467408657074;-0.0959492176771164
1767708644029145900;0.517145751953125;-0.4323825322389602;0.0266381238177418;-0.3447650390625;0.0194605905562639;-0.2539298236370086;-0.1180076524615287
1767708644039147000;0.52714697265625;-0.4955751937329768;0.0826151548445224;-0.419579749289155;0.0523415841162204;-0.2359919548034668;-0.1333624720573425
1767708644049147000;0.53714697265625;-0.4851823945343494;0.0605625321861356;-0.4908984340935945;0.0968997329473495;-0.2174693942070007;-0.1444596052169799
1767708644059147800;0.547147705078125;-0.4209446079015732;-0.0968860375855118;-0.4060264402329921;0.1540141403675079;-0.1941633373498916;-0.1693397164344787
1767708644069148000;0.55714794921875;-0.3939963586887344;-0.087760554908961;-0.4725198968380689;0.2130111455917358;-0.1724058538675308;-0.1918601989746093
1767708644079147800;0.567147705078125;-0.3995791637897491;-0.0619188786985352;-0.5112380422890186;0.2674499154090881;-0.1492379754781723;-0.2094925045967102
1767708644089148700;0.577148681640625;-0.3425309598674997;-0.1417592350674793;-0.4899205289721489;0.3160046637058258;-0.1345964521169662;-0.222305491566658
1767708644099148800;0.587148681640625;-0.2614910915156826;-0.2330003986338153;-0.5027741653263569;0.3551149666309356;-0.1118957847356796;-0.2335727363824844
1767708644109149700;0.597149658203125;-0.1845458355337381;-0.2582669783700257;-0.4928671038180589;0.3910601735115051;-0.0902978107333183;-0.2544239461421966
1767708644119149600;0.607149658203125;-0.0860450927605852;-0.2324287362257018;-0.5413116935133934;0.4214916825294494;-0.0394793264567852;-0.2812965214252472
1767708644129149700;0.617149658203125;0.1464035172093659;-0.2515329574072733;-0.5395160422682762;0.4473557770252228;0.038804292678833;-0.3034044802188873
1767708644139150800;0.62715087890625;0.5131623248824849;-0.335238501304388;-0.3331675402492284;0.4663209021091461;0.1108329445123672;-0.3192196190357208
1767708644149151000;0.63715087890625;0.8897948763161897;-0.4423660199843346;-0.0109264676839113;0.4758678078651428;0.1870419681072235;-0.3358105719089508
1767708644159151900;0.64715185546875;1.184534193971753;-0.4684664567288011;0.3551648525238037;0.4820119738578796;0.247897982597351;-0.3443292379379272
1767708644169151700;0.65715185546875;1.4188941539883613;-0.398174813417159;0.7009212407112121;0.4835302531719208;0.2566038370132446;-0.3447878360748291
1767708644179152600;0.667152587890625;1.3460492825299502;-0.2744075274404138;0.9509083934485912;0.4840115010738373;0.2434355765581131;-0.3533805310726166
1767708644189152800;0.67715283203125;1.082009639042616;-0.2002376544559374;1.2005039165198803;0.481715589761734;0.1916537582874298;-0.3766722381114959
1767708644199152600;0.687152587890625;0.8698580037027597;-0.2001109410700388;1.280804364681244;0.4647336602210998;0.134069561958313;-0.4012668132781982
1767708644209153500;0.697153564453125;0.744057202604413;-0.2017394373210146;1.1442138740211725;0.4361622035503387;0.0636730194091796;-0.4293927550315857
1767708644219154000;0.70715380859375;0.7181248889684677;-0.2950254228542558;0.8925754469454288;0.4110866785049438;0.0127475159242749;-0.486636072397232
1767708644229154800;0.71715478515625;0.7175304302066564;-0.4150212092019617;0.5150450333565473;0.409287691116333;-0.0285726189613342;-0.5775221586227417
1767708644239154700;0.72715478515625;0.67076809450984;-0.4561148516125977;0.0540828878432512;0.415231317281723;-0.042681511491537;-0.6725815534591675
1767708644249155800;0.73715576171875;0.6778992615640163;-0.4163706875821575;-0.4048912987232208;0.4204162657260895;-0.0574105754494667;-0.7539784908294678
1767708644259155700;0.74715576171875;0.7790227175235748;-0.42063923174683;-0.7560650357842444;0.4140524566173553;-0.083257682621479;-0.8312216401100159
1767708644269155800;0.75715576171875;0.8000637519866227;-0.3974058383386581;-1.025340826359391;0.4037090241909027;-0.0953194051980972;-0.8978525996208191
1767708644279156700;0.76715673828125;0.6470183856099844;-0.2246759301418438;-1.1048720437139272;0.4022845029830932;-0.0862987488508224;-0.9410887956619264
1767708644289156600;0.777156494140625;0.6038157882213592;-0.1075806510086171;-1.0334235950499773;0.4013259410858154;-0.0826685056090354;-0.9661465883255004
1767708644299157800;0.78715771484375;0.5361620556652545;-0.0984041505308821;-0.9206897807955742;0.3861858546733856;-0.0852845311164856;-0.9683655500411988
1767708644309158000;0.797157958984375;0.2060948195189237;-0.0132436951177194;-0.8325345274806022;0.3665439486503601;-0.0998383834958076;-0.9388501048088074
1767708644319157800;0.80715771484375;-0.2495926369944587;0.1000758466027677;-0.6898048034131526;0.3477894365787506;-0.1044823974370956;-0.8732863068580627
1767708644329158700;0.81715869140625;-0.672286097857356;0.2295941338542848;-0.4796837971180677;0.3456682860851288;-0.0759783610701561;-0.78194260597229
1767708644339158800;0.82715869140625;-0.8196756304293871;0.2649191297356039;-0.2110275997459888;0.3457838594913482;-0.0466934405267238;-0.6845524311065674
1767708644349159700;0.83715966796875;-0.7556950334280729;0.1418435158174485;0.0803781895726919;0.343313455581665;0.0057187750935554;-0.583699643611908
1767708644359159800;0.847159912109375;-0.5977946647683158;0.0173123327961191;0.3952870195537805;0.3232097923755646;0.0803310796618461;-0.4832673370838165
1767708644369160700;0.85716064453125;-0.3517261102467775;-0.0973877765625715;0.6713999626725912;0.2917048633098602;0.1164624541997909;-0.3683615326881408
1767708644379160800;0.867160888671875;-0.1763361890604719;-0.211266815329343;0.961399392324686;0.2533910274505615;0.1378740072250366;-0.2611328065395355
1767708644389161000;0.877160888671875;0.0835796524951234;-0.2287457003314048;1.2686568307697772;0.229444995522499;0.1238927394151687;-0.1828468292951584
1767708644399161900;0.887161865234375;0.140619600045681;-0.1414145863482728;1.54601539003551;0.2136082351207733;0.0835951194167137;-0.1333988606929779
1767708644409161700;0.89716162109375;-0.0781634361326694;-0.201702466311492;1.7769658338695764;0.2130559086799621;0.0282518025487661;-0.1021372377872467
1767708644419162600;0.90716259765625;-0.4053015965571627;-0.3818765530344098;1.966260909757018;0.2320298552513122;-0.0233165826648473;-0.0781091302633285
1767708644429162800;0.917162841796875;-0.7685667899608611;-0.6234936445724218;1.8766373374551533;0.2524847984313965;-0.0803456753492355;-0.0516936630010604
1767708644439163600;0.92716357421875;-0.9462281266778708;-0.9653411156877876;1.4012316560477018;0.2423224449157714;-0.1536747068166732;-0.0210756137967109
1767708644449163800;0.937163818359375;-0.992753731009364;-1.2073478641305118;0.7890139501839876;0.2077167928218841;-0.2113182991743087;0.0086149014532566
1767708644459163600;0.94716357421875;-1.0208785862535237;-1.322621060669422;0.2352326511979103;0.1687792390584945;-0.2339461743831634;0.0243274886161088
1767708644469164800;0.957164794921875;-1.0391396346092223;-1.2981605731517076;-0.2989385229110717;0.137028232216835;-0.2257484346628189;0.0258255153894424
1767708644479165000;0.9671650390625;-1.0335019209831953;-1.175110239805281;-0.8841162461578845;0.0962099060416221;-0.1895417273044586;0.0256467927247285
1767708644489165800;0.977165771484375;-0.8857505693614482;-0.923142069318518;-1.298767891395092;0.056211095303297;-0.1689038276672363;0.0292633641511201
1767708644499165700;0.987165771484375;-0.7285860772281885;-0.6970156846400349;-1.538310807007551;0.0313833020627498;-0.1515925377607345;0.0457736663520336
1767708644509165800;0.997165771484375;-0.6759773535907269;-0.502304282792285;-1.7454437374025582;0.0107877468690276;-0.1376551389694214;0.0705458521842956
1767708644519166700;1.007166748046875;-0.6034551747480407;-0.3262787305835634;-1.842148207876086;-0.0069417599588632;-0.1340047717094421;0.1091299802064895
1767708644529166600;1.01716650390625;-0.4953180406341329;-0.1335194857168942;-1.752488395217061;-0.017378157004714;-0.1477797031402588;0.1561600714921951
1767708644539168000;1.02716796875;-0.348842115775682;-0.0743413936264812;-1.5239268923461435;-0.0277072489261627;-0.1645030975341797;0.207603633403778
1767708644549167900;1.03716796875;-0.2451291913121938;-0.0728610188756138;-1.300041564592719;-0.0386672206223011;-0.1590604037046432;0.2658573687076568
1767708644559168800;1.047168701171875;0.0493248796612024;-0.3063593205615877;-1.048812302839756;-0.0737719237804412;-0.146715372800827;0.3123558461666107
1767708644569169000;1.0571689453125;0.2197363913804292;-0.67629314154163;-0.8206377534598112;-0.1130695194005966;-0.1439747065305709;0.3461505472660064
1767708644579168800;1.067168701171875;0.2808317883342504;-0.7352169666100293;-0.6293640709757804;-0.1555408090353012;-0.2211580276489257;0.3779117465019226
1767708644589169700;1.077169677734375;0.0914957959145307;-0.7694821512401103;-0.4876292031645775;-0.2021253556013107;-0.2927451133728027;0.4364922344684601
1767708644599169800;1.087169677734375;-0.0909101049810647;-0.8425359162088483;-0.3408955041527748;-0.2378974705934524;-0.3210166692733764;0.5014913082122803
1767708644609170700;1.097170654296875;-0.1703717642307281;-0.9081289899080992;-0.2183206793636083;-0.2714226841926574;-0.3053831160068512;0.5509962439537048
1767708644619170600;1.107170654296875;-0.2121282544642686;-0.9357840356834232;-0.11466039840281;-0.302318811416626;-0.2740286588668823;0.569290041923523
1767708644629172000;1.117171875;-0.2434475218355655;-0.9798908884353936;-0.1196107142865657;-0.3363126814365387;-0.2405622601509094;0.5732614398002625
1767708644639171800;1.127171875;-0.0981289503186941;-1.1291570285342634;-0.0833119049370288;-0.3630819916725158;-0.2197304815053939;0.5634247660636902
1767708644649171700;1.137171630859375;0.0591552957367151;-1.3008898519851266;-0.0466647205412387;-0.3908116221427917;-0.2119551450014114;0.5545353293418884
1767708644659172900;1.1471728515625;0.2077929286736994;-1.4214672193467617;0.0511082559466362;-0.4009993076324463;-0.2266409546136856;0.5591834187507629
1767708644669172700;1.1571728515625;0.2368658784229308;-1.3223418053366245;0.1585252590924501;-0.4135571718215942;-0.2708281278610229;0.586071789264679
1767708644679173600;1.167173583984375;0.0308680164724588;-1.1509189246177671;0.0802694685012102;-0.4351311922073364;-0.283041387796402;0.6303465962409973
1767708644689173800;1.177173828125;0.0460199198316782;-1.040097081464529;-0.0135819506287574;-0.4664947390556335;-0.2664298117160797;0.6709383130073547
1767708644699173600;1.187173583984375;0.1447247703421861;-0.9195743668995796;-0.0691980393886566;-0.4783348739147186;-0.2267684191465377;0.6905463337898254
1767708644709174800;1.1971748046875;0.217137022536993;-0.9260388867385684;-0.092776483374834;-0.4764543771743774;-0.1738883703947067;0.7025727033615112
1767708644719175000;1.2071748046875;0.2135796223163604;-0.9609702801924198;-0.1043687214910984;-0.4710750579833984;-0.1297520697116851;0.7217740416526794
1767708644729175800;1.21717578125;0.1317243459284305;-1.0115456713713704;-0.0926847134381532;-0.4671447873115539;-0.0607016086578369;0.7621405124664307
1767708644739175700;1.22717578125;0.0974463018167764;-1.09529932872653;-0.0836941822528839;-0.4607289433479309;0.033641941845417;0.8086102604866028
1767708644749176800;1.2371767578125;0.3874883285015821;-1.2443822212129831;0.0858650965511798;-0.4278047680854797;0.182055115699768;0.8358556628227234
1767708644759176700;1.2471767578125;0.9624748395364732;-1.3569891942173242;0.4252992959797382;-0.3720320463180542;0.344015508890152;0.8306412100791931
1767708644769176800;1.2571767578125;1.6441659676641225;-1.3760725187413394;0.697443335467577;-0.3222136199474334;0.3945271670818329;0.7808563113212585
1767708644779177700;1.267177734375;1.872182696133852;-1.322964467279613;0.7647352489739656;-0.3006452023983001;0.3430480062961578;0.700124979019165
1767708644789177600;1.277177490234375;1.3395225111097098;-1.112084897702187;0.6484656618088483;-0.2819532454013824;0.2761460244655609;0.6261445879936218
1767708644799178800;1.2871787109375;0.5781769045740366;-0.8784023254904896;0.5097217925071716;-0.2477409690618515;0.2100817859172821;0.5668703317642212
1767708644809179000;1.297178955078125;-0.073572601211071;-0.8319817889686674;0.265774504455924;-0.2157578021287918;0.1232614442706108;0.5240933895111084
1767708644819178800;1.3071787109375;-0.6289146467078477;-0.8781069227404892;-0.1173000992566347;-0.1941787451505661;0.0226576067507267;0.4888030588626861
1767708644829179600;1.3171796875;-1.029251862323284;-1.0632608071699738;-0.4613946917116642;-0.1714238673448562;-0.0271889213472604;0.4629636108875274
1767708644839179800;1.3271796875;-1.190224514567852;-1.1195982690069823;-0.7203992636412382;-0.1450005173683166;-0.0073283966630697;0.4625726640224457
1767708644849180700;1.3371806640625;-1.2008616439163684;-0.955013125353679;-0.9747884507298468;-0.1339558660984039;0.0280791874974966;0.5040251612663269
1767708644859180800;1.347180908203125;-0.9454711708307264;-0.678443962899968;-1.1105004049897194;-0.1623313724994659;0.0347667336463928;0.5519384145736694
1767708644869182000;1.357181884765625;-0.5120306174388155;-0.353253977401182;-0.933470936435461;-0.2110243439674377;0.0002433755435049;0.5899845957756042
1767708644879181800;1.367181884765625;-0.2407617168176919;0.014070483064372;-0.6130003806740045;-0.2568991184234619;-0.0160308293998241;0.6086997389793396
1767708644889182000;1.377181884765625;0.1153776067614555;0.3739711136721074;-0.2054179431706667;-0.2748387157917022;0.0197753701359033;0.6048296093940735
1767708644899182800;1.387182861328125;0.3635574178159236;0.7219406478643416;0.364918184775114;-0.2594703435897827;0.0646918714046478;0.6112806797027588
1767708644909182700;1.3971826171875;0.6596691928684711;0.9575241583265364;0.8765940339595079;-0.2308704107999801;0.0778878405690193;0.6238343119621277
1767708644919183600;1.40718359375;0.908220832910016;1.197427650879696;1.2038123104155063;-0.2060766965150833;0.0546935088932514;0.6297052502632141
1767708644929183700;1.417183837890625;0.7683125229388474;1.5337133962146936;1.4576824420660732;-0.1968158185482025;0.0391811281442642;0.6323239803314209
1767708644939184600;1.4271845703125;0.3822077577501535;1.8276079336091875;1.6963924139857292;-0.2125505059957504;0.0315136015415191;0.6351932287216187
1767708644949184800;1.437184814453125;0.224520739580132;2.0611429871089757;1.9475293212801217;-0.233073890209198;0.0134480483829975;0.622162938117981
1767708644959185000;1.447184814453125;0.2989409340638667;2.208073816128075;2.0472756436675787;-0.2510608732700348;-0.0045701609924435;0.5801101922988892
1767708644969185800;1.457185791015625;0.4396866447072476;2.286785972184688;2.0276427224367857;-0.2617010176181793;-0.0189357846975326;0.5107039213180542
1767708644979186000;1.46718603515625;0.4343710026424378;2.132305312307924;1.9533821389615535;-0.2573818862438202;-0.027122875675559;0.4343309104442596
1767708644989186800;1.477186767578125;0.1808867650369182;1.8244715352796017;1.6122721152752637;-0.2574527263641357;-0.0387172140181064;0.3835790455341339
1767708644999186700;1.487186767578125;-0.0767599990755319;1.501755100287497;1.2121452544748783;-0.254590094089508;-0.0367966406047344;0.3597375154495239
1767708645009186800;1.497186767578125;-0.0967518898118287;1.116632112677768;0.9743681794911624;-0.2501037418842315;-0.0193031374365091;0.337839663028717
1767708645019187700;1.507187744140625;-0.1059386376889422;0.8525373780023306;0.7390051799118519;-0.2365280389785766;0.0080723566934466;0.3205255270004272
1767708645029187600;1.5171875;-0.0466325353046879;0.6604973873209208;0.55504445078969;-0.2265718132257461;0.0121414000168442;0.2923732697963714
1767708645039188700;1.527188720703125;-0.0838601134043186;0.6602860095925629;0.2965595188200474;-0.2151159048080444;0.0049233310855925;0.2584311068058014
1767708645049188900;1.53718896484375;-0.0721142190963029;0.7522545375853776;0.1025298156261444;-0.2053961604833603;-0.0252066068351268;0.2246544957160949
1767708645059189800;1.547189697265625;-0.0974023165445774;0.942716465295106;-0.1130909571290016;-0.1996973007917404;-0.07267726957798;0.2037538290023803
1767708645069190000;1.55718994140625;-0.1774788928221911;1.213804565989226;-0.3977501947969198;-0.1939501911401748;-0.0961913838982582;0.1991007626056671
1767708645079189800;1.567189697265625;-0.1839578065127134;1.4530777247495947;-0.6883639569550752;-0.1799667477607727;-0.0858041942119598;0.1992612183094024
1767708645089190700;1.577190673828125;-0.0520043280035257;1.553526642448455;-0.9312140974193812;-0.1674443036317825;-0.0693908706307411;0.171352356672287
1767708645099190800;1.587190673828125;0.1307305856507271;1.5792057119756937;-1.0468599997282029;-0.1543996036052703;-0.0570263415575027;0.1463466137647628
1767708645109191700;1.597191650390625;0.2015611946772784;1.5326739701643586;-1.0914958447903391;-0.1476585865020752;-0.0538722574710845;0.1394399851560592
1767708645119191800;1.60719189453125;0.1469488761324435;1.3500174555085598;-1.0846931790381669;-0.1443349570035934;-0.0502373091876506;0.133372500538826
1767708645129192000;1.61719189453125;-0.0291026873003691;1.216082886184752;-1.2466133412659168;-0.1510392278432846;-0.0615689978003501;0.1202757656574249
1767708645139192800;1.62719287109375;-0.4378459852766245;1.1608202870376407;-1.4786521648585795;-0.1514818519353866;-0.0495075434446334;0.1278460621833801
1767708645149192700;1.637192626953125;-0.7567407430887222;1.1405651422552765;-1.528492008304596;-0.128608226776123;-0.0180763825774192;0.1666552424430847
1767708645159193900;1.64719384765625;-0.6721661978047341;1.1679139716256408;-1.4457406598597764;-0.0950414761900901;-0.0072026960551738;0.2082905620336532
1767708645169193700;1.65719384765625;-0.5468611443340778;1.1062567760705948;-1.2323784796863793;-0.0481352843344211;0.0099711259827017;0.2362431734800338
1767708645179194600;1.667194580078125;-0.2999807254403829;0.9689119599118828;-1.0254273355990648;0.0015933908289298;0.0290342979133129;0.2428648620843887
1767708645189194800;1.67719482421875;-0.0884632963508367;0.8823599040098488;-0.8836544738650322;0.0472589209675788;0.0389864146709442;0.2450728565454483
1767708645199194600;1.687194580078125;0.0529454082459211;0.6734921857114881;-0.7805939123630523;0.0887802690267562;0.0267979223281145;0.2419066280126571
1767708645209195800;1.69719580078125;0.1729408110011369;0.4633483465300873;-0.7186755085885524;0.1415659785270691;0.0081745591014623;0.230858713388443
1767708645219196000;1.70719580078125;0.0984334862232208;0.3541854495650157;-0.6488941163539886;0.2002226263284683;0.0016828381922096;0.2219776064157486
1767708645229196800;1.71719677734375;-0.0176736769217997;0.2592529206674546;-0.5509212333798408;0.2372710406780243;-0.0030817841179668;0.2165541499853134
1767708645239196700;1.72719677734375;-0.1267114862024784;0.1090375535523518;-0.4733358893960714;0.2769393622875213;-0.0150878466665744;0.2065963149070739
1767708645249197800;1.73719775390625;-0.3710509884417057;0.0299124327806755;-0.4080407026648521;0.3040281236171722;-0.0282454583793878;0.1866302192211151
1767708645259197700;1.74719775390625;-0.5418049569230526;0.0809104698184877;-0.3547270456284284;0.3169340789318084;-0.0063609322533011;0.1601341664791107
1767708645269197800;1.75719775390625;-0.6321990752059966;0.190457251534611;-0.1809106939017772;0.3223784565925598;0.0626164376735687;0.1434612572193145
1767708645279199000;1.767198974609375;-0.4364624950289726;0.2131992081640288;0.0745803169488906;0.300216406583786;0.1719911247491836;0.1382470577955246
1767708645289198800;1.77719873046875;0.079635189185664;0.1205696955118328;0.5898755256742239;0.2635901868343353;0.241559237241745;0.1546810865402221
1767708645299199700;1.78719970703125;0.6929951238870621;0.1046420220071449;1.2354068875968456;0.2292849570512771;0.2355729788541793;0.2092652469873428
1767708645309200000;1.797199951171875;0.844795458638668;0.3539747294237837;1.7950865969717502;0.2031300067901611;0.2056805789470672;0.3203092813491821
1767708645319199700;1.80719970703125;0.5125895299632102;0.7303271487418562;1.8173299929618831;0.1319530308246612;0.1871196776628494;0.4410929679870605
1767708645329200600;1.81720068359375;0.4368061208348721;0.9891353213164956;1.6040280185431242;0.0384603850543499;0.1054754853248596;0.4906201064586639
1767708645339200800;1.82720068359375;0.5879091940373182;0.9347991893645377;1.6658575749903917;-0.0088315336033701;-0.0291252043098211;0.4678661227226257
1767708645349201700;1.83720166015625;0.4007178854960948;0.7258683427020907;1.4735738386809825;-0.0284774042665958;-0.149072378873825;0.4543055891990661
1767708645359201800;1.847201904296875;0.0925344913125038;0.4987742455026134;0.7661988917857409;-0.0490279421210289;-0.1995972841978073;0.4424885511398315
1767708645369203000;1.857202880859375;-0.0706177699934691;0.3710150768781081;-0.1000315690696239;-0.0601373203098773;-0.1889454424381256;0.4098901152610779
1767708645379202800;1.867202880859375;-0.0217803815882653;0.3563667756594717;-0.8402455402493476;-0.0636998042464256;-0.1479634344577789;0.3215482532978058
1767708645389203000;1.877202880859375;0.0684422525852918;0.236285776980035;-1.527566710153222;-0.0620366558432579;-0.1064447611570358;0.1923095732927322
1767708645399203800;1.887203857421875;-0.0450822736553847;-0.008176675785426;-1.8750293177366255;-0.0240972824394702;-0.0278984699398279;0.072949081659317
1767708645409203700;1.89720361328125;-0.3953483212869614;-0.1725653104859404;-1.793697188439965;0.051423043012619;0.0852720290422439;0.0125126391649246
1767708645419204600;1.90720458984375;-0.725678519218415;-0.186474812568631;-1.6110060408622024;0.1058522015810012;0.1644225269556045;0.0201861169189214
1767708645429204700;1.917204833984375;-0.8101420053433627;-0.1739825568727217;-1.2888771964997052;0.1251340210437774;0.21710304915905;0.0451569817960262
1767708645439204600;1.92720458984375;-0.733963678613305;-0.0939259639372117;-0.7708411646336316;0.1392881870269775;0.2562164664268493;0.0615092664957046
1767708645449205800;1.937205810546875;-0.6568161415249109;-0.0539557360659353;-0.1454769769489765;0.1569087356328964;0.2593813836574554;0.0672025755047798
1767708645459206000;1.947205810546875;-0.5222470006246119;0.0133736599066294;0.3230640793859958;0.1665113121271133;0.2310773134231567;0.0755387172102928
1767708645469206800;1.957206787109375;-0.4595814682772383;0.1549688269861973;0.5749070891231298;0.1644135415554046;0.1816367954015731;0.0933355540037155
1767708645479207000;1.96720703125;-0.2840641578515991;0.294961015848536;0.818041891747713;0.1578059494495391;0.1027089729905128;0.1137259751558303
1767708645489207800;1.977207763671875;-0.1128226250490173;0.4296177802333608;0.9470382740169764;0.1459463536739349;0.016806049272418;0.1262984871864318
1767708645499207700;1.987207763671875;-0.0046802667707204;0.5028373302230611;1.0648135895699262;0.1378868371248245;-0.0546222068369388;0.1281722337007522
1767708645509207800;1.997207763671875;0.0597767886359244;0.4456260081609711;1.1034598388284445;0.1279316693544387;-0.0920404121279716;0.1129778400063514
1767708645519208700;2.007208740234375;0.0662707902977243;0.3762972550647333;0.963738064405322;0.1163221597671508;-0.0971177145838737;0.0845215395092964
1767708645529208600;2.01720849609375;-0.0014454861005768;0.2737533013153821;0.6227940449357032;0.0956938490271568;-0.095177337527275;0.0510844886302948
1767708645539209700;2.027209716796875;-0.0438514166861772;0.0481000779734458;0.2761649655669927;0.0857234746217727;-0.0806685164570808;0.0130213499069213
1767708645549209900;2.0372099609375;-0.0378114789348095;-0.2065565004802309;-0.012797522252798;0.0716135129332542;-0.0550422482192516;-0.0145823145285248
1767708645559210800;2.047210693359375;0.1113052427560091;-0.3897822846576571;-0.2291623913735151;0.0575816072523593;-0.027313495054841;-0.0370617806911468
1767708645569211000;2.0572109375;0.1966197196871042;-0.4797909472869708;-0.3462538163155317;0.0409259311854839;-0.0168992038816213;-0.0615066736936569
1767708645579210800;2.067210693359375;0.0929004020154476;-0.4579402038762346;-0.4081833260059356;0.0336930491030216;-0.0033277350012212;-0.0843869522213935
1767708645589211600;2.077211669921875;-0.0912345146298408;-0.2716111381875351;-0.3931155207335948;0.0295318849384784;0.0104681774973869;-0.0918346270918846
1767708645599211800;2.087211669921875;-0.1899994247645139;-0.0988063746562227;-0.2986585369259119;0.0237584169954061;0.0193237196654081;-0.0822893232107162
1767708645609213000;2.097212890625;-0.2146123994302004;0.0220073404782451;-0.1991401780754327;0.0205136127769947;0.0253265872597694;-0.0683662220835685
1767708645619212800;2.107212890625;-0.1548555941363796;0.1771833074091002;-0.1138800616800785;0.0214489139616489;0.0297943074256181;-0.0566863939166069
1767708645629213700;2.117213623046875;-0.0720429074257612;0.2946137915797531;-0.0724298609167337;0.0249402914196252;0.0175099838525056;-0.0463242642581462
1767708645639213800;2.1272138671875;-0.0782920309484005;0.3460309673450887;-0.0261135154217481;0.0344025008380413;0.0005762742366641;-0.0312238745391368
1767708645649213700;2.137213623046875;-0.0585333644460886;0.2970204873953014;-0.018028993165493;0.0414923951029777;-0.0105911996215581;-0.0121370367705821
1767708645659214800;2.14721484375;-0.0655687064429745;0.2031116755222901;-0.0214274034321308;0.0457084439694881;-0.017806502059102;0.0027846544981002
1767708645669214700;2.157214599609375;-0.0215355399817228;0.0831748710865154;-0.0475450105071067;0.0522813647985458;-0.0206314194947481;0.0099410824477672
1767708645679215600;2.167215576171875;-0.0126560679554939;-0.0148372798855183;-0.0543494298249483;0.0524422191083431;-0.0186510942876338;0.0128122363239526
1767708645689215700;2.1772158203125;0.0229343008637428;-0.0841311123654246;-0.0302063376933336;0.0486161410808563;-0.010807940736413;0.0104333935305476
1767708645699215600;2.187215576171875;0.0319827362487092;-0.0901078121548518;-0.0060913026124238;0.0363126024603843;-0.0061005372554063;-0.001093566417694
1767708645709216800;2.197216796875;0.0386140274893492;-0.0961495400045067;-0.0057797524452209;0.023663617670536;-0.0052376515232026;-0.0126480311155319
1767708645719217000;2.207216796875;0.0622936668276786;-0.0877913610391784;-0.0213233585357666;0.0159383192658424;-0.0035505390260368;-0.0195733159780502
1767708645729217800;2.2172177734375;0.033179727480933;-0.0862834315611049;-0.0437789359718561;0.0127006713300943;0.0041706198826432;-0.0231887977570295
1767708645739217700;2.2272177734375;0.0789105281729251;-0.1034162339386995;-0.0484352373450994;0.0104455072432756;0.0012805571313947;-0.031053377315402
1767708645749218800;2.23721875;0.0762502959877252;-0.1161369920277036;-0.0481640191882848;0.0143443839624524;0.0088318493217229;-0.0428520813584327
1767708645759218700;2.24721875;0.0422673623651266;-0.1372592385007999;-0.025953356423974;0.020300542935729;0.0198813024908304;-0.0584936253726482
1767708645769218600;2.257218505859375;0.0517647105613723;-0.1835811004211194;0.0159539404571056;0.0230646729469299;0.0290681216865777;-0.073057048022747
1767708645779220000;2.267219970703125;-0.0071814359366893;-0.2425673597338609;0.0129138421088457;0.0316871888935565;0.038873616605997;-0.087485522031784
1767708645789219800;2.2772197265625;-0.1435298614691942;-0.2231274585908278;-0.0233995802879333;0.0401358194649219;0.0462281182408332;-0.0956718027591705
1767708645799220700;2.287220703125;-0.1856570116460323;-0.1819505583435297;-0.0658767860114574;0.0461878515779972;0.0479109697043895;-0.1073020920157432
1767708645809220900;2.297220947265625;-0.2052338918406516;-0.1908325876530259;-0.0562707532763481;0.0524092093110084;0.0452191494405269;-0.1260891705751419
1767708645819221800;2.3072216796875;-0.2226432187378406;-0.2313023442779667;-0.0542243421405553;0.0594037361443042;0.0206315163522958;-0.1443467438220977
1767708645829221600;2.3172216796875;-0.2854524338722229;-0.2507176589690149;-0.0443763173431158;0.0708569809794426;-0.0159391146153211;-0.159050241112709
1767708645839221800;2.3272216796875;-0.3814331931810826;-0.2911019658002071;-0.0499041408538818;0.0889083817601203;-0.0484247431159019;-0.1703845113515854
1767708645849222700;2.33722265625;-0.505233833438158;-0.3317143457662314;-0.1020709659427404;0.1030047610402107;-0.0870512276887893;-0.1817548722028732
1767708645859222500;2.347222412109375;-0.6357342635948211;-0.3124017059983685;-0.1233165830671787;0.1197046786546707;-0.1310435980558395;-0.2024989128112793
1767708645869224000;2.357223876953125;-0.7085265280831605;-0.3467818587776273;-0.186353177216649;0.1471863687038421;-0.1665251553058624;-0.2500323355197906
1767708645879223800;2.367223876953125;-0.7363409291386603;-0.4454088582789525;-0.2501999187052249;0.1739207357168197;-0.1957724094390869;-0.3179405033588409
1767708645889224700;2.377224609375;-0.7350877142071723;-0.5658860897343605;-0.3656313014805317;0.21123668551445;-0.2034327238798141;-0.3869845569133758
1767708645899224800;2.387224853515625;-0.5460322922945022;-0.6348485668014735;-0.5412789602875709;0.2422491461038589;-0.1989227086305618;-0.4615212678909302
1767708645909224700;2.397224609375;-0.1540120925169438;-0.6803535228483378;-0.6715677204549312;0.2530048489570617;-0.2252160906791687;-0.5324644446372986
1767708645919225600;2.4072255859375;0.156018829229474;-0.6543215482302009;-0.8497212246030569;0.235638678073883;-0.2608457505702972;-0.5964640974998474
1767708645929225700;2.417225830078125;0.3001419804167002;-0.5500735305093228;-0.9281751681149004;0.2151059806346893;-0.3009361624717712;-0.6684719920158386
1767708645939227000;2.427226806640625;0.3367477368235588;-0.3958239759746939;-0.8427572308093308;0.1989102512598037;-0.3628179132938385;-0.7457817792892456
1767708645949226800;2.437226806640625;0.0829454827774316;-0.293414955450315;-0.7440396669477224;0.1772017627954483;-0.4246272146701813;-0.8198557496070862
1767708645959227000;2.447226806640625;-0.4232371758181601;-0.1790774688589386;-0.5479571228772402;0.1552631855010986;-0.4917844831943512;-0.8712283372879028
1767708645969227800;2.457227783203125;-1.1296942772161216;-0.0965901964440941;-0.4681166934430599;0.128757819533348;-0.5212079286575317;-0.8954916000366211
1767708645979228000;2.467227783203125;-1.683294447481632;-0.0832081888342276;-0.3048842795729637;0.1143780872225761;-0.4825186729431152;-0.890511691570282
1767708645989228800;2.477228759765625;-1.9683073208928108;-0.1158668698494322;-0.0773895291507244;0.105487123131752;-0.398628830909729;-0.8458635210990906
1767708645999228700;2.487228759765625;-1.950379011622816;-0.1422308529009111;0.0753273359239101;0.0835098922252655;-0.3115634024143219;-0.7787888050079346
1767708646009229600;2.4972294921875;-1.5272504838109016;-0.124915067772381;0.2786170348942279;0.036402840167284;-0.2439292222261428;-0.7333803176879883
1767708646019229700;2.507229736328125;-1.074348749025911;-0.0339906602713279;0.5715332287758589;-0.0162401497364044;-0.1958597600460052;-0.7222006320953369
1767708646029229800;2.517229736328125;-0.7815734979849308;0.0739458367039449;0.8485977735310792;-0.0610078871250152;-0.1703637242317199;-0.7230768203735352
1767708646039230700;2.527230712890625;-0.7597539534300565;0.1792888831199146;1.0563064579874275;-0.0758339688181877;-0.1559059470891952;-0.7095194458961487
1767708646049230800;2.53723095703125;-0.952512248448655;0.2128466683993116;1.257566112434864;-0.0576247945427894;-0.1605936735868454;-0.6727529764175415
1767708646059231700;2.547231689453125;-1.2007494157135483;0.1523604802518617;1.429262403267622;-0.0152275394648313;-0.1807540655136108;-0.6207238435745239
1767708646069231900;2.55723193359375;-1.3703284221313894;0.0464132208650466;1.4281255081921815;0.0332968235015869;-0.2229519337415695;-0.5552046298980713
1767708646079232800;2.567232666015625;-1.3894443337507545;-0.0574671873861458;1.2208096224457026;0.0841421633958816;-0.2681726813316345;-0.4886426925659179
1767708646089232100;2.577232177734375;-1.4200373326741158;-0.1561520271550864;0.859480402073264;0.1408365666866302;-0.2928553819656372;-0.4112053215503692
1767708646099232300;2.587232177734375;-1.3650168717198072;-0.2944555688107386;0.4902928694158792;0.1903338134288787;-0.2792836427688598;-0.3406313061714172
1767708646109233200;2.597233154296875;-1.1670914762616156;-0.4067016726134345;0.1184410859853029;0.2241700887680053;-0.2490803897380828;-0.2897634208202362
1767708646119233000;2.60723291015625;-0.9471170383416117;-0.4925087188344448;-0.2062339357286691;0.243733137845993;-0.2185624241828918;-0.2666413187980652
1767708646129234400;2.617234375;-0.8200821654036641;-0.472049977771379;-0.558477932369709;0.2569515109062195;-0.1749908030033111;-0.2579282522201538
1767708646139234300;2.627234375;-0.7833065323226154;-0.3894984992802143;-0.8018868757605552;0.2583045959472656;-0.1216517314314842;-0.2503137290477752
1767708646149235200;2.637235107421875;-0.7445866333059966;-0.3115215621629729;-1.020484618499875;0.2490444928407669;-0.0684220716357231;-0.2362194657325744
1767708646159235300;2.6472353515625;-0.7282352179639041;-0.2923811736894771;-1.1386983254700898;0.2445802390575409;0.0026158872060477;-0.2327906489372253
1767708646169235200;2.657235107421875;-0.7866220866113901;-0.2963919254344888;-1.2478238860994575;0.2478243261575698;0.1026595383882522;-0.2369452863931656
1767708646179236000;2.667236083984375;-0.9371849885225296;-0.3207850285381078;-1.3142606440812348;0.2488563060760498;0.2040404826402664;-0.23500756919384
1767708646189236200;2.677236328125;-0.8843921404898166;-0.2677604906413704;-1.287051734638214;0.2425634711980819;0.2560474872589111;-0.2251175791025161
1767708646199237000;2.687237060546875;-0.8201379872441291;-0.2654191882122307;-1.245646542060375;0.2145520746707916;0.2859281599521637;-0.2149621397256851
1767708646209237200;2.6972373046875;-0.7752865997351706;-0.3570492049656808;-1.1128607043802738;0.172780379652977;0.2894243001937866;-0.2095744758844375
1767708646219237400;2.7072373046875;-0.8481823245979845;-0.4358525099044665;-0.965562357223034;0.1314300149679184;0.3098952174186706;-0.2078998833894729
1767708646229238300;2.71723828125;-1.066681137007475;-0.4615669795386493;-0.9173264418423176;0.0988537594676017;0.3587654829025268;-0.2089230269193649
1767708646239238100;2.727238037109375;-1.236282501387596;-0.3965881287476047;-0.9719079268574714;0.0719582289457321;0.4131642878055572;-0.2101925611495971
1767708646249239300;2.7372392578125;-1.2768003897368907;-0.216365563240461;-0.9490747482806444;0.0537139512598514;0.4437626004219055;-0.2047222256660461
1767708646259239200;2.7472392578125;-1.2985469421207905;-0.0703867742491886;-0.9517284776598216;0.0329183936119079;0.4747031927108764;-0.1759275943040847
1767708646269240000;2.757239990234375;-1.3372405376523733;-0.0035696021150797;-0.8959054681509733;0.0185937266796827;0.5056750178337097;-0.1376259475946426
1767708646279240200;2.767240234375;-1.440862240168452;0.0459720986345782;-0.8317734799802303;-0.0082085924223065;0.5239714980125427;-0.1063923835754394
1767708646289240000;2.777239990234375;-1.6873036831229924;0.073903257937543;-0.8191197501122951;-0.0317977182567119;0.5439544916152954;-0.0843236148357391
1767708646299241200;2.7872412109375;-1.8781863204628229;0.0249736246716231;-0.8379010229498147;-0.0495980642735958;0.5717969536781311;-0.0720908939838409
1767708646309241300;2.797241455078125;-2.0158634373158217;0.0086489877386018;-0.9180085788875818;-0.0691307559609413;0.5922402143478394;-0.0613128207623958
1767708646319242200;2.8072421875;-2.1083020670384167;-0.0859374676676467;-0.9462877479106188;-0.0855422243475914;0.5888635516166687;-0.0584629736840724
1767708646329242000;2.8172421875;-2.1986223894327876;-0.2732806057697162;-0.9459247598171232;-0.0910493731498718;0.5739003419876099;-0.0569281913340091
1767708646339243300;2.8272431640625;-2.287067565605044;-0.3902823066016659;-0.8949807545214891;-0.0829603224992752;0.5529098510742188;-0.0462112799286842
1767708646349243100;2.8372431640625;-2.3219255284965037;-0.5156611559608951;-0.7251864979177713;-0.0673113241791725;0.529511570930481;-0.0245853494852781
1767708646359243300;2.8472431640625;-2.3259932163268324;-0.7076101438906043;-0.5133358913511038;-0.0573933608829975;0.5037551522254944;5.30462712049e-05
1767708646369244400;2.857244384765625;-2.3526515061497686;-0.8094622794508933;-0.274402047547698;-0.0411203801631927;0.4687495529651642;0.0210717767477035
1767708646379244300;2.867244384765625;-2.340163195976615;-0.7809948943793773;-0.0896516293525695;-0.0382244996726512;0.4273067712783813;0.0441872961819171
1767708646389245200;2.8772451171875;-2.3795739998668433;-0.7006968573708087;-0.0208241768419742;-0.0601151511073112;0.3782630562782287;0.0824382826685905
1767708646399245300;2.887245361328125;-2.3751976844787595;-0.5918879249425605;-0.0087362641632556;-0.0952017232775688;0.3105263411998749;0.1289369910955429
1767708646409246200;2.89724609375;-2.384113981384038;-0.4310981184516101;-0.0340986689567565;-0.1397470831871032;0.2224532216787338;0.1747092753648758
1767708646419246000;2.90724609375;-2.37836696216464;-0.3191604230109602;-0.115626613086462;-0.1792303025722503;0.1318719834089279;0.2032123655080795
1767708646429246200;2.91724609375;-2.3855711944550273;-0.3202470492038876;-0.2489946345686912;-0.2138564437627792;0.0396009013056755;0.2156463861465454
1767708646439247000;2.9272470703125;-2.3383511781185864;-0.4049468648353591;-0.3512959021359682;-0.2353836297988891;-0.0476441495120525;0.2188239842653274
1767708646449247200;2.937247314453125;-2.3135060751974583;-0.6432453698772936;-0.4023474594593048;-0.2385237514972686;-0.0860368087887764;0.2191355675458908
1767708646459248400;2.947248291015625;-2.238682012620568;-0.8683532251629978;-0.4094505694627761;-0.2100363969802856;-0.0643191859126091;0.2262428402900695
1767708646469248300;2.957248291015625;-1.8815619343757628;-1.081378282336518;-0.2408797171741724;-0.1406258940696716;0.0063701597973704;0.2383652925491333
1767708646479249200;2.967249267578125;-1.542615810725093;-1.2328012351430953;0.1665460684627294;-0.040463849902153;0.1028414890170097;0.2767859101295471
1767708646489249300;2.977249267578125;-1.1370248392999172;-1.1279606583565474;0.6601350568145513;0.0415998585522174;0.1267984956502914;0.3151016235351562
1767708646499249200;2.987249267578125;-0.7504384280741214;-0.8730275736495852;1.02819621579051;0.0803812891244888;0.0781031027436256;0.3036611974239349
1767708646509250000;2.99725;-0.7874807492673397;-0.6384113007843494;1.3595651821851729;0.0961208343505859;-0.0082168709486722;0.2289733737707138
1767708646519250200;3.007250244140625;-1.1916928335547448;-0.5977862987987697;1.8978759403169152;0.1305187493562698;-0.0771831572055816;0.1243090033531189
1767708646529251300;3.017251220703125;-1.677686544471979;-0.7812713732331991;2.338299740192294;0.1617306768894195;-0.1268688589334488;0.033861469477415
1767708646539251200;3.027251220703125;-2.0571862123072147;-1.1888630169562997;2.3275620730787514;0.1392994076013565;-0.1392799913883209;0.0166928675025701
1767708646549252400;3.03725244140625;-2.0456769762992857;-1.7234692214816807;1.7411188599407672;-0.0033476585522294;-0.1090899854898452;0.108192965388298
1767708646559252200;3.047252197265625;-1.4886048190742731;-1.864639879538864;1.2389485057264569;-0.1889641135931015;-0.1311572045087814;0.2597550451755523
1767708646569252400;3.05725244140625;-0.744195149770379;-1.6853113402619957;2.0040332987904548;-0.2965066134929657;-0.1654599905014038;0.3851036727428436
1767708646579253200;3.067253173828125;-0.0440869790077209;-1.278102266115695;2.8845629186332222;-0.354878306388855;-0.1193825155496597;0.4476589560508728
1767708646589253000;3.077253173828125;0.5917921729505061;-0.4293483521748334;3.5270734714299437;-0.3743401765823364;-0.0100446995347738;0.4508767127990722
1767708646599254000;3.08725390625;1.323273971620202;0.1842487157506868;4.07621366661191;-0.3446912169456482;0.1040528416633606;0.4197739362716675
1767708646609254100;3.097254150390625;2.099901318439841;0.4176514846403151;4.0985511706262825;-0.3027171194553375;0.1993517875671386;0.3813955783843994
1767708646619255300;3.10725537109375;2.6957553340017792;0.5502634270582348;3.90500603607893;-0.2655340731143951;0.2466652393341064;0.3107152879238128
1767708646629255200;3.117255126953125;2.874575193104148;0.790243053587526;3.394490462845564;-0.2466905564069748;0.2145560830831527;0.2110799103975296
1767708646639255300;3.12725537109375;2.470477675107121;1.1243570078413934;2.6211457909584044;-0.2608377933502197;0.1780894100666046;0.1143358051776886
1767708646649256200;3.137256103515625;1.807146452599764;1.3630005634613334;1.8304618617355823;-0.3019714653491974;0.163486823439598;0.0293749514967203
1767708646659256300;3.14725634765625;1.3438222541302445;1.5371021618701517;1.152299565321207;-0.3499424159526825;0.1652841717004776;-0.0602262243628501
1767708646669257200;3.15725732421875;0.9406143784493208;1.4080514190651476;0.4774140986204147;-0.3957014083862304;0.201346293091774;-0.1425946056842804
1767708646679257000;3.167257080078125;0.6568599806666374;1.0647110790435224;-0.0513186838269233;-0.4189420044422149;0.2593741714954376;-0.1997575014829635
1767708646689258200;3.17725830078125;0.5347749852210283;0.7378888892330229;-0.3394470589101314;-0.4105471968650818;0.294939637184143;-0.2179330438375473
1767708646699258400;3.18725830078125;0.4057067067593335;0.3937323009250685;-0.6251496681511401;-0.3980641365051269;0.3155018985271454;-0.2043780833482742
1767708646709259300;3.19725927734375;0.3543067743897438;0.2070425852304324;-0.905121040263772;-0.3914890885353088;0.3495875298976898;-0.1703525483608245
1767708646719259100;3.207259033203125;0.3411018403798341;0.0980773479956202;-0.9946826532453298;-0.3913122713565826;0.4011921286582947;-0.1392412334680557
1767708646729259300;3.21725927734375;0.320419117835164;0.0443014985412359;-1.0001900184899568;-0.3892027139663696;0.4641075134277344;-0.1250042468309402
1767708646739260200;3.22726025390625;0.509566309684515;0.0836410272935405;-1.080953992509842;-0.381617784500122;0.4824947714805603;-0.1283784806728363
1767708646749260300;3.23726025390625;0.5632090525448322;0.1815983108397573;-1.3048638701826334;-0.3823632001876831;0.4780161678791046;-0.1260078996419906
1767708646759261200;3.24726123046875;0.5014858790814877;0.4003466410309076;-1.6211778907865284;-0.3821248412132263;0.4582751989364624;-0.115159772336483
1767708646769261000;3.257260986328125;0.5569874015510082;0.7363876908898354;-1.925965139725804;-0.3833637535572052;0.4037873744964599;-0.1233191788196563
1767708646779261200;3.26726123046875;0.4293512017190456;0.9822752993538976;-2.101962342622876;-0.3843427002429962;0.3676981031894684;-0.1614132672548294
1767708646789262300;3.277262451171875;0.1900280480707995;1.0835793725773692;-2.163876654744148;-0.368329107761383;0.3693031668663025;-0.2258407324552536
1767708646799262200;3.28726220703125;-0.0710369635199196;0.967363853687048;-2.30986567286849;-0.3275598883628845;0.4062132835388183;-0.2992010712623596
1767708646809263000;3.29726318359375;-0.2153448784232139;0.8640735750824212;-2.4118361010462044;-0.2672739028930664;0.4111779332160949;-0.3548616468906402
1767708646819263200;3.30726318359375;-0.2648071572611108;0.7296915542520582;-2.4275299292623997;-0.1997113972902298;0.3795381784439087;-0.3657742738723755
1767708646829264100;3.31726416015625;-0.4397182819545269;0.6342253934018314;-2.5727263357043264;-0.1407735049724578;0.3298057913780212;-0.3292247951030731
1767708646839264300;3.32726416015625;-0.5597872248699888;0.5685966638673097;-2.7253660438895224;-0.0956480652093887;0.2690150141716003;-0.2654376626014709
1767708646849265400;3.337265380859375;-0.6230605869174003;0.4050382329132407;-2.8686890576750037;-0.076279692351818;0.1920216828584671;-0.1998213976621627
1767708646859265300;3.347265380859375;-0.8463175536394119;0.3689404260285198;-2.992577887672186;-0.0729076340794563;0.1428119838237762;-0.1405486613512039
1767708646869265400;3.357265380859375;-1.1735235551357268;0.5323074260637164;-3.038442982268333;-0.0765327289700508;0.1346171647310257;-0.0754956230521202
1767708646879266300;3.367266357421875;-1.323635790669918;0.6866692818664014;-3.077361034205556;-0.0831533223390579;0.1433449387550354;-0.0091972332447767
1767708646889266200;3.37726611328125;-1.342849025183916;0.8005358995430171;-3.067957246044278;-0.0955247730016708;0.1599161922931671;0.0342610292136669
1767708646899267000;3.38726708984375;-1.2993500751972198;0.9005110622502863;-3.0319255631983277;-0.1129815205931663;0.196498841047287;0.0528464838862419
1767708646909267200;3.39726708984375;-1.1926187162280082;1.0064501017980276;-2.922997570967674;-0.1223875358700752;0.227646917104721;0.0536417067050933
1767708646919268000;3.40726806640625;-1.1313280889630315;0.9262840206060556;-2.806781759816408;-0.125049889087677;0.252659261226654;0.0396517068147659
1767708646929268200;3.417268310546875;-1.0716120906036346;0.848371052103117;-2.6823049007982016;-0.1254400312900543;0.2612753808498382;0.0146510191261768
1767708646939268000;3.42726806640625;-0.9495113861322404;0.8247448234524577;-2.3647388343065976;-0.1190415397286415;0.2556520700454712;-0.0191528182476758
1767708646949269200;3.437269287109375;-0.7448994986474513;0.8374598550535738;-1.818570932933688;-0.0907627642154693;0.2555362284183502;-0.0935801789164543
1767708646959269400;3.447269287109375;-0.7422937000632286;0.8371726356100291;-1.1867974627286195;-0.0374258197844028;0.2516593337059021;-0.1990759521722793
1767708646969270300;3.457270263671875;-1.1956547229230403;0.6525621373422443;-0.3824988496512174;0.0346981771290302;0.2342563420534134;-0.3055967986583709
1767708646979270100;3.467270263671875;-1.8501801231622697;0.4502794234573841;0.554408490973711;0.1316095441579818;0.1707077324390411;-0.3884141743183136
1767708646989271000;3.47727099609375;-2.613626501369476;0.1938394413188099;1.343218443018198;0.241157129406929;0.0726760253310203;-0.4324013590812683
1767708646999271200;3.487271240234375;-3.2171418453395364;-0.0618614128902554;2.001270263817906;0.3583069443702698;-0.0260406918823719;-0.4273826479911804
1767708647009271000;3.49727099609375;-3.3944670819699763;-0.3868850288461893;2.474793784740567;0.4470285177230835;-0.1270054578781128;-0.386784940958023
1767708647019272400;3.5072724609375;-3.2693899189710613;-0.9571506488390268;2.6470406951934096;0.4625254571437835;-0.1668625771999359;-0.3316359221935272
1767708647029272300;3.517272216796875;-3.100737818139791;-1.2847078018605709;2.631649064794183;0.4101147055625915;-0.1930214762687683;-0.2783668637275696
1767708647039273200;3.527273193359375;-2.803724710333347;-0.9343583867944776;2.497925069481134;0.2962890863418579;-0.2107139229774475;-0.2929830849170685
1767708647049273300;3.5372734375;-2.7892613006949425;-0.0380152944112196;1.9843267278015613;0.0897769853472709;-0.2133240401744842;-0.411588579416275
1767708647059274200;3.547274169921875;-2.724206352460384;0.8202955158933997;2.0934014350265264;-0.0973918363451957;-0.2743538320064544;-0.5989435315132141
1767708647069274000;3.557274169921875;-2.7907693671703337;1.0887763566985726;2.5580226875692604;-0.2162818312644958;-0.3370500802993774;-0.7774544954299927
1767708647079274200;3.567274169921875;-3.309016995960474;1.1709596959970892;2.53556886369884;-0.254635602235794;-0.359719455242157;-0.8707442283630371
1767708647089275600;3.577275634765625;-3.85340093652606;1.360230660356581;2.270078436881304;-0.1631642431020736;-0.3220126926898956;-0.8806617259979248
1767708647099275500;3.587275634765625;-4.033417311936617;1.0743218610189855;1.512097922864556;-0.0092188846319913;-0.1599164605140686;-0.7724739909172058
1767708647109276400;3.5972763671875;-2.8719126958966252;0.6002431538989768;1.049485672056675;0.1541148871183395;-0.004171323031187;-0.5967978835105896
1767708647119276800;3.60727685546875;-0.499786089426279;0.4605234253024682;0.9989017322450876;0.246167317032814;0.0840275138616561;-0.3966719508171081
1767708647129277700;3.617277587890625;1.9815783058762548;0.9684157738927752;1.6043804852426051;0.241002157330513;0.0640070736408233;-0.2378258556127548
1767708647139277800;3.62727783203125;3.9871091497480866;1.733752422825992;2.6677912222772835;0.1570089757442474;-0.1067052781581878;-0.1816478073596954
1767708647149278700;3.63727880859375;4.76424970678687;2.416967034193873;3.5109061804831025;0.0468004643917083;-0.2386059015989303;-0.2215966582298278
1767708647159278600;3.647278564453125;4.566311890238524;2.998698124118149;4.104405741873383;-0.06160519272089;-0.2898721098899841;-0.2422772198915481
1767708647169278700;3.65727880859375;3.58877501758337;2.907205543074012;4.269171941182017;-0.1532443016767501;-0.3011695146560669;-0.136768102645874
1767708647179279600;3.667279541015625;2.333723518317938;2.1235984203696248;3.666113108807802;-0.1993635892868042;-0.3854969143867492;0.000166043639183
1767708647189279500;3.677279541015625;1.499675079143047;1.150900804439187;2.437870706012845;-0.1602886021137237;-0.5362159013748169;0.0143722640350461
1767708647199280600;3.68728076171875;0.9344120166778564;0.1532032238194718;0.8642267198175191;-0.022101966664195;-0.60538649559021;-0.0157811101526021
1767708647209280800;3.69728076171875;0.4840028293609619;-1.0272055973179637;-0.2072451585978269;0.1737930029630661;-0.5711868405342102;0.0049890149384737
1767708647219281700;3.70728173828125;0.3345616249561309;-1.9157219781309365;-0.1412508836865425;0.3684408068656921;-0.5014133453369141;0.0419140085577964
1767708647229281500;3.717281494140625;0.2040671130836009;-2.5013448147967456;0.3839788590759038;0.4881627261638641;-0.4649049639701843;0.0531196147203445
1767708647239281700;3.72728173828125;-0.1400759946882724;-2.948930469125509;0.9039280310869215;0.4719134569168091;-0.4182959198951721;-0.011320624500513
1767708647249282600;3.737282470703125;-0.48835167222023;-2.7955270830914376;1.3886568366348742;0.3908297121524811;-0.3233516812324524;-0.1172452494502067
1767708647259282700;3.74728271484375;-0.4706336447000503;-1.7989912031948565;1.83343123293519;0.331602394580841;-0.2089040279388427;-0.1567053794860839
1767708647269283600;3.75728369140625;-0.3714017015755176;-0.8812827762976289;1.792356295225024;0.2329216003417968;-0.1094376221299171;-0.0971467122435569
1767708647279283700;3.76728369140625;0.0896177270829677;-0.0270309042613022;1.6981354582607746;0.1242685765027999;-0.0685465410351753;-0.0338810086250305
1767708647289284600;3.77728466796875;0.6546212618291377;0.718516957025975;1.979328481122851;0.0642111003398895;-0.0732914954423904;-0.0110332164913415
1767708647299284700;3.78728466796875;0.8118225788414478;1.0596077645551412;2.0330676700949666;0.0143811693415045;-0.0781291648745536;-0.0055933189578354
1767708647309284600;3.79728466796875;0.6444622713863849;1.2254179199587554;1.505460676807165;-0.0387177355587482;-0.0783914923667907;0.0093861632049083
1767708647319285500;3.807285400390625;0.3525122921884059;1.1631038679301735;0.6990881800651549;-0.0935953333973884;-0.0742230117321014;0.0348886139690876
1767708647329285600;3.81728564453125;0.2220844158113002;0.9571866700004784;-0.1569745225191116;-0.1293029934167862;-0.057355348020792;0.0582943372428417
1767708647339286500;3.82728662109375;0.1979968532592058;0.6287620864946395;-1.04033731996119;-0.1376346349716186;-0.0745035409927368;0.0923834219574928
1767708647349286700;3.83728662109375;0.1441045195519924;0.3619201720029115;-1.8225369139552112;-0.1195243522524833;-0.0995383262634277;0.1768599599599838
1767708647359287800;3.847287841796875;0.2079115135520696;0.0983796371441334;-2.467871292001009;-0.0852843895554542;-0.1659724563360214;0.3098720014095306
1767708647369287700;3.85728759765625;0.2191360873997211;-0.1911180169982835;-3.008383359569311;-0.0433023162186145;-0.2051957547664642;0.468095451593399
1767708647379288600;3.86728857421875;0.1914040308654308;-0.4071171580791473;-3.3872722020298243;0.0282975565642118;-0.187269389629364;0.6151952147483826
1767708647389288700;3.877288818359375;0.3843295722097158;-0.343835210866481;-3.504430262467265;0.1458276361227035;-0.16143698990345;0.7409989833831787
1767708647399288600;3.88728857421875;0.3977688994973897;-0.4246784241350367;-3.482517705866694;0.2812428176403045;-0.1053773537278175;0.8335397839546204
1767708647409289500;3.89728955078125;0.2591571321427822;-0.554915892506577;-3.496735031789541;0.4019002616405487;-0.0274300891906023;0.9009065628051758
1767708647419289600;3.90728955078125;0.2030681651741266;-0.6224500538036227;-3.523988949418068;0.4690339267253876;0.0311579871922731;0.9342969059944152
1767708647429290500;3.91729052734375;0.1014829369217157;-0.6600491320967674;-3.4497330421179533;0.4958426356315613;0.0773635655641555;0.93417227268219
1767708647439291000;3.927290771484375;0.0216021754771471;-0.5986401026165112;-3.2820459869265552;0.4773518741130829;0.0715822428464889;0.8869417905807495
1767708647449291800;3.937291748046875;0.0483487189722713;-0.7634634754724801;-3.1854274411708117;0.4159023463726043;0.0235896855592727;0.7880628705024719
1767708647459291600;3.947291748046875;-0.0179880766332149;-1.052878310169652;-3.0228491072952743;0.3293451070785522;-0.0045540682040154;0.6675918698310852
1767708647469291800;3.957291748046875;-0.1654144340842962;-1.1378772183455526;-2.735447877442837;0.2422008216381073;-0.0436580553650856;0.547821581363678
1767708647479292700;3.967292724609375;-0.3301765417397022;-1.1656023336824028;-2.4772452695459126;0.1538629829883575;-0.0920386388897895;0.4544287621974945
1767708647489292500;3.97729248046875;-0.7864145813405513;-1.2602198418140411;-2.3503876528710124;0.0701292008161544;-0.0619351677596569;0.407677412033081
1767708647499293400;3.98729345703125;-1.2283137144654988;-1.1325801348507405;-2.12349554451704;0.0097625330090522;0.0094825569540262;0.4130178391933441
1767708647509293600;3.99729345703125;-1.371406426626444;-1.014692006573081;-2.0032342573672532;-0.0559929758310318;0.0656165778636932;0.4314460456371307
1767708647519294700;4.007294677734375;-1.5082202046483757;-0.8496204676423221;-1.9206027359098192;-0.119561567902565;0.1158288791775703;0.4560991823673248
1767708647529294800;4.017294921875;-1.8215560862243176;-0.6364332056444137;-1.806418722847104;-0.1755204647779464;0.1363535225391388;0.4882425665855407
1767708647539295700;4.027295654296875;-1.9787252545326948;-0.3218040328549221;-1.7034037540525198;-0.2423996329307556;0.0953046157956123;0.5393185615539551
1767708647549295600;4.037295654296875;-1.9129361468046904;-0.0321490829586749;-1.5607406654804945;-0.3178315758705139;-0.010061134584248;0.5981954336166382
1767708647559295700;4.047295654296875;-1.768031416785717;0.1054965838767122;-1.2899193990290163;-0.3980467915534973;-0.0943749547004699;0.6408874988555908
1767708647569296600;4.057296630859375;-1.5255127002328632;0.409564185905084;-0.8489829734563827;-0.4621205329895019;-0.1411276459693908;0.6489480137825012
1767708647579296500;4.067296630859375;-1.07036420943439;0.6816616097722202;-0.3294727773845196;-0.4701038897037506;-0.2008927017450332;0.6099795699119568
1767708647589297400;4.07729736328125;-0.5578033941090107;0.8172185926660895;-0.1205845277547836;-0.4629581570625305;-0.2660370767116546;0.5406109690666199
1767708647599297800;4.0872978515625;-0.3256108412593603;1.026787371905893;-0.1843330695658922;-0.4368860721588135;-0.2868512868881225;0.4985508322715759
1767708647609298700;4.097298583984375;-0.9400865551829336;0.8890789831317961;-0.0725695616483688;-0.3618642687797546;-0.2676544487476349;0.5722829103469849
1767708647619298800;4.107298828125;-2.4733961929023263;0.5666197012385353;0.8927630784720182;-0.1704783141613006;-0.2436412572860717;0.8006892204284668
1767708647629298700;4.117298583984375;-4.441249924808741;0.0621365765698254;2.0332915419787168;0.0392112284898757;-0.188679814338684;1.0834778547286987
1767708647639299600;4.127299560546875;-5.932368772530555;-0.6432246193502098;2.9920524024933575;0.236617237329483;-0.0630220249295234;1.2824844121932983
1767708647649299700;4.1372998046875;-5.4905386129885905;-1.4000591051369904;3.379496891853213;0.3629105389118194;0.0301958359777927;1.2329574823379517
1767708647659300600;4.147300537109375;-3.7981747238665817;-2.4058247318021952;3.0102064833432434;0.4035370647907257;-0.0109380166977643;0.9460442066192628
1767708647669300500;4.157300537109375;-2.0324936695992943;-3.293962634691596;2.098514247995615;0.3665036857128143;-0.0638659298419952;0.5941576361656189
1767708647679301600;4.167301513671875;-0.9827905553996562;-3.6207889892205594;1.3000269515454768;0.3000617921352386;0.0033157735597342;0.3677572906017303
1767708647689301800;4.1773017578125;0.1942944916099309;-2.949909543290734;1.734782642656565;0.2895667850971222;0.1012765988707542;0.2454989999532699
1767708647699302700;4.187302734375;1.6614251455008984;-1.9494348626405;2.76013399040997;0.3229415118694305;0.1619804203510284;0.1770456433296203
1767708647709302800;4.197302734375;2.3661937092900276;-1.344794021771848;3.797981247121096;0.3524274826049804;0.1114775463938713;0.1799321323633194
1767708647719302700;4.207302734375;2.0565689571917054;-0.3192631892656907;4.684986200457811;0.3537473380565643;0.0302166566252708;0.2216700464487075
1767708647729303600;4.217303466796875;1.9383961667537688;0.3959797145256772;5.276042460349202;0.3323083519935608;-0.0563914738595485;0.2431077063083648
1767708647739303700;4.2273037109375;2.0749276207029816;0.6186224583394825;5.896002743163704;0.3031217157840729;-0.1349207013845443;0.2309188693761825
1767708647749304600;4.2373046875;2.362224221137166;0.7378015032105147;5.770232921725511;0.2250045239925384;-0.1484921723604202;0.1726811230182647
1767708647759304700;4.2473046875;2.8337393248468636;0.4586573026370257;4.629081357884407;0.0887719094753265;-0.0738050192594528;0.120253212749958
1767708647769305600;4.2573056640625;2.933199231508374;0.2774722853058949;2.8047984770447014;-0.0954618453979492;-0.004323951434344;0.1437023431062698
1767708647779305700;4.2673056640625;2.814970911490917;0.3672389558728784;1.1520113960295917;-0.2286052852869033;0.0538199469447135;0.2139075100421905
1767708647789305600;4.2773056640625;2.9475761319071054;0.577651638590917;0.0873047739654779;-0.2536610960960388;0.1008801385760307;0.2557444274425506
1767708647799306800;4.287306640625;3.029993133831024;0.9581200783930718;-0.6800748520374298;-0.2229791134595871;0.2175177782773971;0.2258522063493728
1767708647809306600;4.297306640625;2.7233821765959263;1.4228927221052348;-0.9080909959852695;-0.1749005317687988;0.3515520393848419;0.183363065123558
1767708647819307500;4.3073076171875;2.097332344734669;1.7419379212386903;-0.6385328813374043;-0.1366191357374191;0.4445303976535797;0.1745189428329467
1767708647829307600;4.3173076171875;1.370622582772374;1.9236001641601324;-0.0820540138304233;-0.0969436392188072;0.4954534769058227;0.1721439361572265
1767708647839308800;4.327308837890625;1.089631219962239;1.894264617951959;0.5519365479022265;-0.0363533310592174;0.5734168887138367;0.1212733089923858
1767708647849308700;4.33730859375;1.2230208687543869;1.688872101483494;1.0671931781828403;0.0199288483709096;0.6431099772453308;0.0343714393675327
1767708647859309600;4.3473095703125;1.2030664604842662;1.2964134372234344;1.3000035706698894;0.0119879245758056;0.6626095175743103;-0.0187415238469839
1767708647869309700;4.357309814453125;0.905191767412424;0.926047362305969;1.3101286588430403;-0.0670831948518753;0.6111367344856262;-0.0131283774971961
1767708647879309600;4.3673095703125;0.4721931491017341;0.5302666044184938;1.223615327516198;-0.1789165139198303;0.5187829732894897;0.0203747749328613
1767708647889310700;4.377310791015625;0.0124093814517371;0.1701596010510809;1.0509908159226178;-0.2640420496463775;0.4456488192081451;0.0462524443864822
1767708647899310600;4.387310546875;-0.3181295455932617;-0.0191814785357099;0.5791109705537557;-0.289903461933136;0.3835906684398651;0.0530832409858703
1767708647909311500;4.3973115234375;-0.4688403315424919;-0.238177034086734;-0.2715752996891736;-0.2601777911186218;0.3229747414588928;0.0379447676241397
1767708647919312000;4.407311767578125;-0.4716811079263687;-0.4599843499897048;-1.247398354163766;-0.1927039474248886;0.2796392440795898;0.014316139742732
1767708647929312800;4.417312744140625;-0.3877403305012732;-0.6446374818228184;-2.2236007633447645;-0.1178949847817421;0.2570468187332153;-0.0076642171479761
1767708647939312600;4.427312744140625;-0.2396071764877065;-0.7833169075861572;-3.0003216336667538;-0.0350885167717933;0.2269967645406723;-0.021704401820898
1767708647949312800;4.437312744140625;-0.0190905214497819;-0.8289281735517084;-3.591968260666728;0.0515454113483428;0.2123133242130279;-0.0353419408202171
1767708647959313700;4.447313720703125;0.2115349647462368;-0.7673779455024748;-4.17800581561327;0.083385095000267;0.2178779989480972;-0.062914177775383
1767708647969313500;4.4573134765625;0.312582432860136;-0.4496665887886658;-4.489700944244861;0.065225251019001;0.2138379514217376;-0.1121509224176406
1767708647979314700;4.467314697265625;0.3233446133604273;0.0342353648805525;-4.450232857209444;0.0022036794107407;0.2222673892974853;-0.1738180071115493
1767708647989314600;4.477314453125;0.2247264182200655;0.4834929801426827;-4.328395114523172;-0.0742221102118492;0.2464048266410827;-0.2430214136838913
1767708647999315700;4.487315673828125;0.0867067715397104;0.8755151526816188;-4.114460687419772;-0.1441151648759842;0.2950123250484466;-0.320198506116867
1767708648009315800;4.49731591796875;0.1992670193254947;1.2076083416976031;-3.979003584703803;-0.2078211009502411;0.3166294991970062;-0.4095092117786407
1767708648019316700;4.507316650390625;0.2752898997655138;1.403739839476347;-3.805572432902455;-0.2557942271232605;0.3073574602603912;-0.4979927539825439
1767708648029316600;4.517316650390625;0.0156066979220136;1.6745304185286165;-3.5545530145078894;-0.2469967752695083;0.2895738184452057;-0.5464391112327576
1767708648039316700;4.527316650390625;-0.4009668187558651;1.901597298927605;-3.378353567036986;-0.2054932862520218;0.2771981060504913;-0.5624105930328369
1767708648049317600;4.537317626953125;-0.7213982115507126;2.0611451790660618;-3.1438135742783544;-0.1736003458499908;0.2750735282897949;-0.5432114005088806
1767708648059317500;4.5473173828125;-1.011539606956765;2.223191159630567;-2.7235785759508606;-0.1321136206388473;0.3198375403881073;-0.4757716059684753
1767708648069318700;4.557318603515625;-1.1266777058739217;2.1968957117706536;-2.336567217311263;-0.1241171956062316;0.3931731879711151;-0.3681335747241974
1767708648079318800;4.56731884765625;-1.1288322535593065;1.9321169403538108;-2.019303933158517;-0.092415727674961;0.4827243685722351;-0.2641515135765075
1767708648089319400;4.5773193359375;-0.9892168621201068;1.4547629013575614;-1.6864344990730284;0.0028105895034968;0.5048030018806458;-0.2241436243057251
1767708648099319600;4.587319580078125;-0.9613268385451288;0.9781077313456684;-1.6266145288825034;0.1213159263134002;0.4385981559753418;-0.2249822467565536
1767708648109319400;4.5973193359375;-1.2930688029706476;0.5273324141301214;-1.2528519433945418;0.2664052546024322;0.2959934175014496;-0.2219337075948715
1767708648119320300;4.6073203125;-1.6881506553411485;0.2598102805555798;-0.879501445838809;0.4176653325557709;0.1648623049259185;-0.2020691931247711
1767708648129320400;4.617320556640625;-1.6363503254771232;0.1580533489980734;-0.3316419381171465;0.535444438457489;0.0156964864581823;-0.1757566630840301
1767708648139321300;4.6273212890625;-1.4079261852502822;0.0736931497176643;0.4491173939406871;0.5951471924781799;-0.1414268165826797;-0.1518971472978592
1767708648149321200;4.6373212890625;-1.2101695704877375;0.1824940541030839;1.1543898155987262;0.5756046175956726;-0.3079515099525451;-0.1380831450223922
1767708648159322400;4.647322265625;-1.2860007642805575;0.4852540715310722;1.8069436235040424;0.4542075991630554;-0.4439652562141418;-0.1390045881271362
1767708648169322200;4.657322265625;-1.9415479087829588;0.6760674430269747;2.394763385692239;0.2621950209140777;-0.448986679315567;-0.1861831396818161
1767708648179323400;4.667323486328125;-2.5384195769548414;0.7679157787062227;3.1102240238875147;0.0660516172647476;-0.4105178415775299;-0.3131818175315857
1767708648189323500;4.677323486328125;-2.8898130942463873;0.7040988478340208;3.574565290445089;-0.1254639476537704;-0.4379928112030029;-0.4995834529399872
1767708648199323400;4.687323486328125;-3.616602935707569;0.378844784123078;3.4338895762979984;-0.2552608251571655;-0.4559635818004608;-0.6634296774864197
1767708648209324300;4.69732421875;-4.098865058881044;0.3078040029445663;2.719958047366142;-0.2773211300373077;-0.4884616136550903;-0.7044135928153992
1767708648219324400;4.707324462890625;-3.7371126446604728;0.0820292264490388;2.5074422548890114;-0.2088171988725662;-0.5234355330467224;-0.6777568459510803
1767708648229325300;4.7173251953125;-3.3263515771210193;0.01891298890881;2.2181617871612307;-0.1730916947126388;-0.5733543634414673;-0.6577088236808777
1767708648239325200;4.7273251953125;-2.808674441695213;0.2469559866142459;1.7981670273303985;-0.1248106360435485;-0.4831100106239319;-0.6425670981407166
1767708648249326600;4.73732666015625;-1.2952233506560324;0.5303009450795129;1.8925474387705328;-0.0344663597643375;-0.3404343426227569;-0.5909995436668396
1767708648259326500;4.747326416015625;0.961891559755802;0.9152871180344372;2.1897417483627795;0.0112811001017689;-0.2325825840234756;-0.4766854643821716
1767708648269327400;4.757327392578125;3.253031489366293;1.6483675110071896;2.7534400457292794;-0.0074784727767109;-0.141565054655075;-0.3705590367317199
1767708648279327500;4.767327392578125;5.339988570559025;2.3184642821267247;3.632661505582929;-0.1032678112387657;-0.1599126905202865;-0.349519282579422
1767708648289327400;4.777327392578125;6.752770963668823;2.6847046554163096;4.366488990595936;-0.2889932096004486;-0.3120766580104828;-0.3462752997875213
1767708648299328300;4.787328369140625;6.345307768630981;3.010186609598994;4.412191003584861;-0.4985957443714142;-0.3742065131664276;-0.2589491009712219
1767708648309328400;4.797328369140625;4.266505936843156;2.948490324142575;4.1993414491087195;-0.5964664220809937;-0.4571298956871032;-0.1144851297140121
1767708648319329300;4.807329345703125;2.2766601533591744;2.325584781656414;2.7985598749160765;-0.6022879481315613;-0.5726200342178345;0.0228398647159338
1767708648329329200;4.8173291015625;1.1396949352920054;1.2294729675032197;0.9128741386085748;-0.5212882161140442;-0.6242284178733826;0.2033459842205047
1767708648339330600;4.82733056640625;0.6417594421684741;0.1030980439681559;0.1289671561747789;-0.3829279541969299;-0.6311654448509216;0.3476836681365967
1767708648349330400;4.837330322265625;0.3777788353919982;-0.8214689435869454;0.2116875249594449;-0.2015517950057983;-0.5011683106422424;0.4035461544990539
1767708648359330300;4.847330322265625;0.1056833112210035;-1.181478751923889;0.6222130301773547;0.0297072529792785;-0.2903843522071838;0.3923994600772857
1767708648369331500;4.85733154296875;-0.0041758266632095;-1.2357523400336503;1.0044278021901845;0.2105478644371032;-0.063569575548172;0.3471267819404602
1767708648379331300;4.867331298828125;0.0547597641915082;-1.149994503249228;1.4220909042030572;0.3180002272129059;0.1012037694454193;0.3021498918533325
1767708648389332200;4.877332275390625;0.3616244039267301;-0.5135569867558777;1.7733353684127329;0.347761869430542;0.1758993119001388;0.2877728044986725
1767708648399332400;4.887332275390625;0.646116468334198;0.2853149798966012;1.940534932348132;0.2979687452316284;0.1897746473550796;0.320900410413742
1767708648409333500;4.89733349609375;0.5259516272962093;0.6386496395848691;2.1549130115658044;0.1722161620855331;0.2502493858337402;0.3819010257720947
1767708648419333400;4.90733349609375;0.609472791069746;0.952138665895909;2.486856562978029;0.0357934050261974;0.2688289582729339;0.4417027235031128
1767708648429334500;4.91733447265625;0.9137737177968024;1.1332286618873475;2.5105636017799378;-0.0632391721010208;0.2454136461019516;0.4896439015865326
1767708648439334400;4.92733447265625;1.0792857670366764;0.8464964904028922;1.8371657432883977;-0.1252695620059967;0.2117455601692199;0.5447971820831299
1767708648449334300;4.937334228515625;1.0240870269060134;0.4697288778800517;0.8227139752119779;-0.1468126773834228;0.1859903931617736;0.6051436066627502
1767708648459335400;4.94733544921875;0.8487199386060238;0.0816632974797859;-0.3283019800394773;-0.1662321835756302;0.1469460576772689;0.6822266578674316
1767708648469335300;4.957335205078125;0.6462006394863128;-0.3522435582496225;-1.4878162990450858;-0.1885390877723693;0.0875995233654975;0.7769764065742493
1767708648479336200;4.967336181640625;0.5871440548837185;-0.7996331054843961;-2.455928925272822;-0.1778571456670761;0.0699345096945762;0.8637171983718872
1767708648489336300;4.97733642578125;0.5381108516454697;-0.9589537527382374;-3.2641771527588364;-0.1184026300907135;0.0459296181797981;0.9479863047599792
1767708648499337500;4.98733740234375;0.347456177842617;-0.8146363210879266;-3.879679287120699;-0.0060305553488433;0.041071742773056;1.025873064994812
1767708648509337300;4.99733740234375;0.3533984273731708;-0.7647730967663228;-4.386604726907611;0.1217066347599029;0.0516082718968391;1.0680564641952517
1767708648519338500;5.00733837890625;0.5343173045814037;-0.8218762092135846;-4.700142268535495;0.2466251999139785;0.0255785919725894;1.0549335479736328
1767708648529338400;5.01733837890625;0.5970856031835079;-0.9057146222427488;-4.842478024849295;0.3129885196685791;-0.0019782003946602;1.015340805053711
1767708648539338200;5.027338134765625;0.2490647771954536;-1.233820495188236;-4.5703819161564105;0.3668235242366791;0.0314450040459632;1.0089935064315796
1767708648549339400;5.03733935546875;-0.0697451701437123;-1.3951555510044098;-4.099755285719037;0.3999569118022918;0.1085494831204414;1.0278642177581787
1767708648559339300;5.04733935546875;-0.2323603288982994;-1.3830246759667992;-3.569041558587551;0.3927959501743316;0.1607144176959991;1.0109938383102417
1767708648569340400;5.05734033203125;-0.466055669260025;-1.4462255207672714;-2.988233720988035;0.3515098094940185;0.1873141229152679;0.9443986415863036
1767708648579340500;5.067340576171875;-0.8246832294583321;-1.3874154582716525;-2.4112422268062828;0.305706650018692;0.1817355901002884;0.8525139689445496
1767708648589341400;5.077341552734375;-1.1761071418881417;-1.3399790227055548;-2.1829180398225785;0.2483959197998047;0.1663504391908645;0.756959855556488
1767708648599341300;5.08734130859375;-1.5614917761087417;-1.2337959452688694;-2.031578892841935;0.1789124459028244;0.1421540230512619;0.6751350164413452
1767708648609341400;5.097341552734375;-1.7941630523860457;-1.0518765857812016;-1.904738227301836;0.0911713913083076;0.1201021894812583;0.6197004318237305
1767708648619342300;5.10734228515625;-1.902182697600126;-0.7694497102752328;-1.762059356638789;0.0212160069495439;0.081490084528923;0.5833941102027893
1767708648629342200;5.11734228515625;-1.9477192908942695;-0.4278148589972406;-1.7481226012229918;-0.0325683057308197;0.0542242005467414;0.5610077381134033
1767708648639343400;5.12734326171875;-1.882135934871435;-0.1641120462488383;-1.9287398651361465;-0.0972506329417228;0.0364800877869129;0.5420972108840942
1767708648649343200;5.13734326171875;-1.859705491876602;-0.0150311082574538;-1.8907494494378565;-0.1467942893505096;0.0129682188853621;0.5294647216796875
1767708648659344400;5.147344482421875;-2.0347429098308085;-0.0457878646414726;-1.6964362531274555;-0.182185560464859;-0.0365750975906848;0.538322389125824
1767708648669344500;5.157344482421875;-2.5012930846095083;0.0684629117808304;-1.6226666680395605;-0.219167023897171;-0.1128968223929405;0.5794329643249512
1767708648679345400;5.167345458984375;-2.92574716193676;0.2760690857107751;-1.5567939736813303;-0.2405482232570648;-0.1771427989006042;0.6341779232025146
1767708648689345300;5.17734521484375;-2.879295207363367;0.1703281077520921;-0.9269307210117578;-0.2000705748796463;-0.1743195801973343;0.6516109704971313
1767708648699345400;5.187345458984375;-1.9616005167305468;0.1262890778056346;-0.0476449637502431;-0.1313607543706894;-0.1897597014904022;0.5777421593666077
1767708648709346300;5.19734619140625;-0.3695511052727699;-0.10374373972686;0.9500631747961044;-0.0988267883658409;-0.2517258524894714;0.4043525457382202
1767708648719346200;5.20734619140625;0.6187818866848945;-0.2760164239417761;1.211906769543886;-0.1129415184259414;-0.3427942991256714;0.2477721273899078
1767708648729347600;5.21734765625;0.0067874681830406;-0.0353225116632878;0.3668465224891901;-0.1938917487859726;-0.3829371929168701;0.2432018667459488
1767708648739347500;5.227347412109375;-2.506925537538528;0.6644878451965749;-0.4226736236512661;-0.2766420841217041;-0.4380278587341308;0.5059322118759155
1767708648749348400;5.237348388671875;-5.399075550299883;1.4926402120701967;0.583804681327939;-0.1478305608034134;-0.4457132220268249;0.9147039651870728
1767708648759348500;5.247348388671875;-6.45428135356903;1.245814153712243;2.83298119995594;0.1358869820833206;-0.3328193426132202;1.0979695320129397
1767708648769349400;5.257349365234375;-5.730607013779879;0.538284600777179;3.547130171030759;0.3466918766498565;-0.2369162589311599;0.9753621220588684
1767708648779349200;5.267349365234375;-3.8949914225429296;-0.899398132572323;3.067754416948557;0.3906850814819336;-0.1165977716445922;0.5992469787597656
1767708648789349400;5.277349365234375;-1.6073878503650425;-2.7436814527809616;2.3708809903234243;0.376642495393753;-0.0120348827913403;0.1561981290578842
1767708648799350300;5.287350341796875;0.014334819389251;-3.833841665053367;1.575812562406063;0.3420494198799133;0.0832957103848457;-0.1288565993309021
1767708648809350100;5.29735009765625;1.1107722076684237;-3.574572889229655;1.4980191286295652;0.3633443117141723;0.2695167362689972;-0.2139648348093032
1767708648819351600;5.3073515625;2.816061629337072;-2.4697096133440732;2.612618201109767;0.4478035271167755;0.3986654877662658;-0.1760273277759552
1767708648829351400;5.317351318359375;3.931873000216484;-1.5495806813016533;3.709694476380944;0.5178816318511963;0.3652049899101257;0.0020534684881567
1767708648839352300;5.327352294921875;3.696612291967869;-0.4549242901211604;4.257639908820391;0.4839908480644226;0.2094792127609253;0.1990349888801574
1767708648849352400;5.3373525390625;3.2945021483957766;0.2818745388528332;4.8841474213212726;0.4155731499195099;0.0521127581596374;0.3009592294692993
1767708648859353300;5.347353271484375;2.5782407152116296;0.2732746144203469;5.745521089795232;0.4043862819671631;0.0113179236650466;0.2906320095062256
1767708648869353200;5.357353271484375;2.4142905084609985;0.0460515205463394;5.3904345632046455;0.3291266560554504;0.0009963542688637;0.1213777735829353
1767708648879353300;5.367353271484375;2.6604630713462827;-0.2433938736858777;3.713465227091312;0.1481576859951019;0.0346722900867462;-0.1269177943468094
1767708648889354500;5.3773544921875;2.5770786856949326;-0.0562009394431486;1.7709966963320969;-0.0507156141102314;0.0496863164007663;-0.235899418592453
1767708648899354400;5.387354248046875;2.8715584756314754;0.2588622773820534;0.7621025623828173;-0.1721088886260986;0.0835132524371147;-0.2580862045288086
1767708648909355500;5.39735546875;3.420053943169117;0.3203329373890534;0.6367606109678745;-0.2016461044549942;0.1830012500286102;-0.3207356035709381
1767708648919355400;5.40735546875;3.347659738087654;0.8804689756967127;1.092782961991429;-0.1822913140058517;0.2994751334190368;-0.3977491557598114
1767708648929356300;5.417356201171875;2.2157062107026575;1.356686265747994;1.5117641608655452;-0.1736783534288406;0.3248182535171509;-0.4136206805706024
1767708648939356400;5.4273564453125;1.1963783610224723;1.5676713415265082;1.7972902444958685;-0.2012974768877029;0.3864701688289642;-0.4214224219322204
1767708648949357300;5.437357421875;1.434084708857536;1.437880594009161;2.1669781278908253;-0.2205593585968017;0.541928768157959;-0.533439040184021
1767708648959357200;5.447357177734375;1.967452749890089;1.1955276624772695;2.605615044349432;-0.1743173003196716;0.705706775188446;-0.658953845500946
1767708648969357300;5.457357421875;1.734571045732498;1.1239563911512491;2.6488182262599467;-0.1371704339981079;0.7256806492805481;-0.6486194133758545
1767708648979358500;5.4673583984375;1.1416495764911174;0.8517945968110113;1.9352374104619023;-0.2255229353904724;0.5796864032745361;-0.4981551170349121
1767708648989358300;5.4773583984375;0.581566510479711;0.6171724056616426;0.953045989999175;-0.3656613826751709;0.3747555911540985;-0.323663979768753
1767708648999359500;5.487359375;0.2767851432919502;0.3885424406643957;0.1151058040827512;-0.4648199081420898;0.2281190156936645;-0.2192329168319702
1767708649009359400;5.497359375;0.1640332088589668;0.1655364530287683;-0.6620604719191789;-0.5073437690734863;0.1531976163387298;-0.2217761278152465
1767708649019360300;5.5073603515625;0.1609808355510234;-0.1877885437820106;-1.4994979690104722;-0.4695252478122711;0.1322507858276367;-0.2867375612258911
1767708649029360400;5.5173603515625;0.18748890324831;-0.5041451614186168;-2.4405139139980077;-0.3963425755500793;0.1419025659561157;-0.3570323288440704
1767708649039361300;5.527361328125;0.1250186742773279;-0.7282016810204833;-3.37122239998281;-0.3238459825515747;0.147575095295906;-0.3937964737415313
1767708649049361400;5.537361328125;0.1766237007649615;-0.7379628312520682;-3.9842543448388574;-0.2451219111680984;0.0933569073677063;-0.4010199904441833
1767708649059361500;5.547361572265625;0.1072984182674437;-0.627387071814388;-4.310053402146697;-0.1729726195335388;0.0601526126265525;-0.3998274505138397
1767708649069362400;5.557362548828125;0.1103424256058409;-0.428011842874065;-4.701598897084594;-0.1299285143613815;0.0552985370159149;-0.4123843610286712
1767708649079362300;5.5673623046875;0.1637455875566229;-0.2417306714477017;-4.694994384253024;-0.0991937667131424;0.1223076656460762;-0.4411763250827789
1767708649089363200;5.57736328125;0.116711376115866;0.2301172444129362;-4.409122263664007;-0.0898417830467224;0.1740702688694;-0.4574017226696014
1767708649099363000;5.587363037109375;0.0350572117906063;0.5633283680755645;-4.333391607636213;-0.1191141828894615;0.2282618731260299;-0.4837347865104675
1767708649109364000;5.597364013671875;-0.0530266567885875;0.8218649571672082;-3.975395331078768;-0.1451367139816284;0.2066570371389389;-0.5411695241928101
1767708649119364000;5.607364013671875;-0.1717033050954342;1.4133745137840508;-3.7861756585150954;-0.1704271584749221;0.2366165369749069;-0.6021889448165894
1767708649129364000;5.617364013671875;-0.4257342533309012;1.8803706787645815;-3.915755978152155;-0.1983709335327148;0.2651174664497375;-0.6367042660713196
1767708649139365000;5.627365234375;-0.5273264958459883;1.9445986746557056;-4.075983949509263;-0.2160822749137878;0.243294209241867;-0.6300773620605469
1767708649149365200;5.637365234375;-0.6117850866001099;1.85239896825552;-4.1285236995637415;-0.2124060541391372;0.2232248932123184;-0.6081752777099609
1767708649159366100;5.6473662109375;-0.8525847242753952;1.7527042299248277;-4.2194425723731515;-0.1874993592500686;0.2110959589481353;-0.5781753659248352
1767708649169366000;5.657365966796875;-1.0338426241796463;1.5648988080732524;-3.912449922344088;-0.1143841296434402;0.2102613300085067;-0.5637356638908386
1767708649179367200;5.6673671875;-1.0528139396965503;1.3980563870124518;-3.3015760323047636;-0.014443689957261;0.2264894396066665;-0.574225902557373
1767708649189367000;5.677366943359375;-1.0286042120695114;1.2105829005289823;-2.734438408139348;0.0665382444858551;0.1858125776052475;-0.5505789518356323
1767708649199368000;5.687367919921875;-1.2058242347598076;0.974427362332493;-2.149230874276161;0.1546346247196197;0.058893971145153;-0.4901852905750274
1767708649209368000;5.6973681640625;-1.1404782676894216;0.7657562625847757;-1.5591735622942446;0.2510660886764526;-0.1481023579835891;-0.4206022024154663
1767708649219368200;5.7073681640625;-0.9623124885816128;0.6717805594880133;-1.0575041433393957;0.3512676060199737;-0.3246932625770569;-0.3736717700958252
1767708649229369000;5.717369140625;-0.8865314906060695;0.6975738299794495;-0.5299988568603993;0.4200301766395569;-0.4074475169181824;-0.3442885875701904
1767708649239369200;5.727369140625;-0.6570271539270878;0.653288771116361;0.1224970833778381;0.4294157326221466;-0.4629848003387451;-0.2948194146156311
1767708649249370000;5.7373701171875;-0.6031015755373984;0.6311784999866038;0.7413432674705982;0.3766273558139801;-0.5157867670059204;-0.1873845607042312
1767708649259370000;5.747369873046875;-1.21783031437397;0.8270640601802617;1.290834175786376;0.2905974388122558;-0.5727112889289856;-0.0731457695364952
1767708649269371100;5.75737109375;-1.9512718688093125;1.3248041037969291;1.6012649835705757;0.1852196007966995;-0.5048467516899109;-0.0388487800955772
1767708649279371000;5.76737109375;-2.761083838480711;1.7425857176229356;2.0120757354706527;0.0729844123125076;-0.4334762692451477;-0.0989288389682769
1767708649289372200;5.7773720703125;-3.621804011482;1.719347465376556;2.5938696614980694;-0.0397386737167835;-0.3522431850433349;-0.2353772222995758
1767708649299372300;5.787372314453125;-4.247049541223049;0.965500763228908;3.975072090473771;-0.1863560825586319;-0.3200580179691314;-0.4113026261329651
1767708649309372200;5.7973720703125;-4.80483423063159;0.1347789294597692;4.873929394167662;-0.4313775599002838;-0.2497409582138061;-0.5333970785140991
1767708649319373000;5.807373046875;-5.672925224661827;-0.267705600382667;4.56044329046607;-0.620314359664917;-0.1862863004207611;-0.4956207275390625
1767708649329373200;5.817373291015625;-5.20793689237237;-0.0491480983221903;3.622242402899265;-0.5449138879776001;-0.0544960498809814;-0.4598603248596191
1767708649339374000;5.8273740234375;-2.599400407618284;-0.3828557002648711;2.8126339929759503;-0.3265104591846466;-0.1168422475457191;-0.4822899997234344
1767708649349374000;5.8373740234375;-0.0785585729300975;-1.3027460012458263;2.1762895615935323;-0.207600399851799;-0.0902820974588394;-0.5069348216056824
1767708649359375000;5.847375;2.057923878931999;-1.448894301585108;2.876245756664872;-0.0941089987754821;-0.0785197168588638;-0.4923921227455139
1767708649369375000;5.857375;4.717078790289163;-0.5435077422529458;4.157705954906344;-0.062250580638647;-0.2083569765090942;-0.4684905707836151
1767708649379376000;5.867376220703125;6.802493902736902;0.355996042650938;4.824790976989269;-0.0983713045716285;-0.4031656384468078;-0.4635804891586303
1767708649389376300;5.877376220703125;7.2058420636713505;1.112641800932586;4.491311302050948;-0.2025041878223419;-0.5132018327713013;-0.4062360823154449
1767708649399376100;5.887376220703125;6.29558833669424;2.402117401716858;3.86798534219563;-0.4277234375476837;-0.3332328498363495;-0.3167690336704254
1767708649409377000;5.897376953125;4.684720827519893;3.422394368815422;3.145391783380508;-0.7235639095306396;-0.355977326631546;-0.1644017696380615
1767708649419377200;5.907377197265625;2.3761083695828913;2.9528894358843565;2.2620219716757535;-0.7132241725921631;-0.4090008437633514;0.0046985754743218
1767708649429378000;5.9173779296875;1.3223510115563868;1.7359144231654702;0.9486550615638494;-0.5601698160171509;-0.3861810863018036;0.1223172917962074
1767708649439378000;5.9273779296875;0.9789619370222092;0.3025559096906334;0.5375836129009723;-0.340075820684433;-0.4436978995800018;0.230232834815979
1767708649449379300;5.93737939453125;0.6215817465364932;-1.0225225540682672;0.5466168141841888;-0.1259302645921707;-0.4055022299289703;0.294494479894638
1767708649459379200;5.947379150390625;0.6986229006409644;-1.7386510085225104;1.2903881855845452;0.0811693966388702;-0.2917112410068512;0.2724888026714325
1767708649469380000;5.957380126953125;0.7227589785099029;-2.169191712287068;2.1793132933288812;0.2673171460628509;-0.1198953092098236;0.2051339149475097
1767708649479380200;5.967380126953125;0.595591565233469;-2.270513613428175;2.637940858414769;0.4060047268867492;-0.0032712235115468;0.1597323417663574
1767708649489380000;5.977380126953125;0.5225415265917778;-1.8963757648870347;2.800897377952934;0.4782629609107971;0.0880845785140991;0.1803149133920669
1767708649499381000;5.987381103515625;0.2671417011559009;-1.2667165103569626;2.228572706538438;0.4201016724109649;0.2318532019853592;0.2841744720935821
1767708649509381000;5.997381103515625;0.3623953882992267;-0.584927949736826;1.5202607710540297;0.2504958212375641;0.286182552576065;0.4003824293613434
1767708649519382000;6.007382080078125;0.9628326399981976;-0.1485022065216675;1.312738549080491;0.0424531362950801;0.2582840919494629;0.4295863807201385
1767708649529382000;6.0173818359375;1.420155552226305;-0.0290616611702367;1.489661050128937;-0.094586469233036;0.2158319801092147;0.394548088312149
1767708649539383300;6.02738330078125;1.4549848735451698;0.0927516046619042;1.221881051069498;-0.176836609840393;0.1828692406415939;0.3706637918949127
1767708649549383200;6.037383056640625;1.0690730005800724;-0.0842610588880255;0.342133521515131;-0.2437229752540588;0.1671191304922104;0.3943101167678833
1767708649559383000;6.047383056640625;0.6054653089940547;-0.2791224271330982;-0.7005033075600862;-0.3185346126556396;0.1062552481889724;0.4525366723537445
1767708649569384200;6.05738427734375;0.332146380507946;-0.3086743560383096;-1.5318459949076175;-0.3633346259593963;0.0434950999915599;0.516071617603302
1767708649579384000;6.067384033203125;0.3857096283912658;-0.4261731562048196;-2.4041414548903703;-0.3711118698120117;-0.0197027791291475;0.5514424443244934
1767708649589385000;6.077385009765625;0.4980313547134399;-0.8639536019645631;-3.3488147533416748;-0.3357692956924438;-0.1389795541763305;0.5711204409599304
1767708649599385000;6.087385009765625;0.3212508924841881;-1.2074843499917536;-4.083070692899823;-0.259743183851242;-0.1183162629604339;0.5796116590499878
1767708649609386200;6.09738623046875;0.3421452119529247;-1.2518252306953073;-4.5776557065516705;-0.1395560652017593;-0.0860336944460868;0.5775330662727356
1767708649619386000;6.10738623046875;0.2834838006803766;-1.4224248123325407;-5.149172568714619;-0.0093991039320826;-0.0687569230794906;0.569067120552063
1767708649629387300;6.11738720703125;0.1262087882441934;-1.5945236926168205;-5.577083508497476;0.1158898398280143;-0.0411615185439586;0.5675262212753296
1767708649639387100;6.12738720703125;-0.0074210899114608;-1.7096905792370438;-5.503453039619326;0.2494497150182724;0.0062817819416522;0.5813663005828857
1767708649649387000;6.137386962890625;-0.1560907254219055;-1.812974428100884;-5.181375633183121;0.3645070791244507;0.0587420612573623;0.5914791226387024
1767708649659388200;6.14738818359375;-0.2295370699048042;-1.8918435282848771;-4.7495413824766874;0.4303518831729889;0.1062546074390411;0.5867806673049927
1767708649669388000;6.157387939453125;-0.4133212734162807;-1.900465372288227;-4.326505355253816;0.4243389964103699;0.1183701306581497;0.5649334192276001
1767708649679389000;6.167388916015625;-0.8087035700380801;-1.7297434794455766;-3.956551514399051;0.3689367771148681;0.0931545570492744;0.5321361422538757
1767708649689389000;6.17738916015625;-1.167365032505989;-1.5033921999700366;-3.607856734672189;0.2867343127727508;0.0572727210819721;0.4941717684268951
1767708649699390200;6.18739013671875;-1.2414321392357348;-1.38101830458045;-3.097422409981489;0.200579360127449;0.0250881668180227;0.4410881996154785
1767708649709390000;6.19739013671875;-1.2000351299643517;-1.2272498846262692;-2.449588616335392;0.1471592783927917;0.0157788209617137;0.3662355244159698
1767708649719391200;6.20739111328125;-1.2861281900525092;-1.0581595385082063;-1.914697311258316;0.1291116178035736;0.0780114382505416;0.2805608212947845
1767708649729391000;6.21739111328125;-1.6321405988276003;-0.866012580320984;-1.6494582288533448;0.1075836941599845;0.0968927145004272;0.2354226410388946
1767708649739391000;6.227390869140625;-2.031983966511488;-0.6486153724778443;-1.4355425064504146;0.0515910163521766;0.0581456273794174;0.250578910112381
1767708649749392100;6.23739208984375;-2.2898013744831083;-0.4914577119441702;-1.375848208466172;-0.0428196415305137;-0.0354018993675708;0.2982614636421203
1767708649759392000;6.24739208984375;-2.5013129583537577;-0.2603659599432721;-1.2760580469369889;-0.1582637578248977;-0.1224344819784164;0.3455950021743774
1767708649769393200;6.25739306640625;-2.2986884452939034;-0.0664929086158052;-0.8967635462850332;-0.2788381278514862;-0.1747754514217376;0.3540119230747223
1767708649779393300;6.267393310546875;-1.785092441701889;-0.2464720938211306;-0.1458610078305006;-0.3657474219799042;-0.1899889409542083;0.3225660324096679
1767708649789394200;6.277394287109375;-1.1363339344263077;-0.5139502238571644;0.6043395198345184;-0.4279927015304565;-0.1938987374305725;0.2919468879699707
1767708649799394000;6.28739404296875;-0.6559598169565201;-0.4781838408838957;1.0557207670539617;-0.4765234887599945;-0.2228121310472488;0.3132090270519256
1767708649809395200;6.297395263671875;-1.0020902991533278;-0.0204844234935939;1.027913307195902;-0.5309842824935913;-0.2926679253578186;0.4051802158355713
1767708649819395000;6.30739501953125;-2.4958932713925837;0.7608325424470007;1.1643898160874844;-0.4898824393749237;-0.3556934893131256;0.5649251341819763
1767708649829395000;6.31739501953125;-4.590534477347135;1.2326707406312227;2.016880505403876;-0.283122569322586;-0.31629279255867;0.772998034954071
1767708649839396000;6.32739599609375;-6.1445531410962335;1.1119384019035845;3.2704619321167465;0.013300304301083;-0.2090278714895248;0.941783607006073
1767708649849396000;6.33739599609375;-6.2251978726506225;0.1013682975661009;4.466107302689552;0.2866098582744598;-0.1352104544639587;0.9491726160049438
1767708649859397000;6.347397216796875;-4.508386355492473;-1.32133803512156;4.671658516851068;0.4341753423213959;-0.0222295671701431;0.7480037808418274
1767708649869397200;6.357397216796875;-2.133629400518537;-2.6069886707901953;3.296056976622342;0.4104540050029754;0.1512945294380188;0.4429149031639099
1767708649879398100;6.367398193359375;-0.1318406657844781;-3.0339865873813627;1.603584366428852;0.3107963800430298;0.3491572737693786;0.1994796097278595
1767708649889398000;6.37739794921875;1.7352233721613883;-2.7650717390730977;0.9787146842628716;0.2968489229679107;0.5297473073005676;0.0752476006746292
1767708649899398100;6.387398193359375;3.332104441559314;-2.5118247077569364;2.081928439375758;0.443237841129303;0.5390515923500061;0.0928100794553756
1767708649909399000;6.39739892578125;3.478057219326496;-2.2201465312376616;3.350198316654563;0.580186128616333;0.426259696483612;0.1652185171842575
1767708649919399000;6.40739892578125;2.6302152325987813;-1.424940010023862;4.071436953729391;0.6300809383392334;0.2356048077344894;0.1749153435230255
1767708649929400300;6.417400390625;1.8984031790614129;-0.8197489148613065;5.224354358687997;0.7023839354515076;0.0663073062896728;0.1684375554323196
1767708649939400200;6.427400146484375;1.6907506087064743;-0.6965182565119117;6.060660805922747;0.7403896450996399;-0.0302778258919715;0.1879713088274002
1767708649949401000;6.437401123046875;2.2244892366170883;-0.4687691660024225;5.466655633097886;0.6373820304870605;-0.0366694964468479;0.1369579434394836
1767708649959401200;6.447401123046875;2.950687541925907;-0.3748812873195856;4.040138729146123;0.4158112704753876;-0.0391169413924217;0.0457007363438606
1767708649969402000;6.457402099609375;3.525412844741344;-0.1325429505686275;2.8365461989611385;0.1860376894474029;-0.1148005351424217;-0.0125884348526597
1767708649979402000;6.467402099609375;3.628497956162691;0.3892769654840231;1.7144108857572078;-0.0018792164046317;-0.1300577819347381;-0.08865737169981
1767708649989402000;6.477402099609375;3.123454676860571;1.1141670377384871;1.0635007534056902;-0.1446549594402313;-0.0378273352980613;-0.1853648722171783
1767708649999403000;6.487403076171875;2.528237205636501;1.81339177673012;0.9999550406903028;-0.2086629718542099;0.1579972952604293;-0.2796075046062469
1767708650009403000;6.49740283203125;1.8162988963484763;2.182012615415454;1.258480304670334;-0.2238581776618957;0.3064004778861999;-0.3584360480308532
1767708650019404300;6.507404296875;1.257138242411613;2.012665371926874;1.5178490337371826;-0.2299317717552185;0.4146286845207214;-0.410307765007019
1767708650029404200;6.517404052734375;1.3571066831171512;1.4273315813355147;1.6797089902102946;-0.2415074557065963;0.5131248831748962;-0.4674014449119568
1767708650039405000;6.527405029296875;1.8770178612053392;0.7789384002409875;2.0329449204981325;-0.2398861348628997;0.5598577857017517;-0.5454118847846985
1767708650049405200;6.5374052734375;1.9072212762892244;0.4363417181935161;2.01651868635416;-0.243511751294136;0.5515007972717285;-0.5898364782333374
1767708650059406000;6.547406005859375;1.4161691129386424;0.1899936526108533;1.3977572579354047;-0.2994932532310486;0.4445677399635315;-0.5659015774726868
1767708650069406000;6.557406005859375;0.903888283598423;0.0327883352768607;0.9126303929805756;-0.3437494039535522;0.3112589716911316;-0.5168850421905518
1767708650079406000;6.567406005859375;0.5166822791695594;-0.1214890571127645;0.485114005473256;-0.344177097082138;0.2099468559026718;-0.4814027547836303
1767708650089407200;6.5774072265625;0.3304746479034424;-0.3322836700867861;-0.0816489401608705;-0.3263887763023376;0.123613029718399;-0.474779725074768
1767708650099408000;6.587407958984375;0.1428910886416211;-0.4374153753070161;-0.7489578341275454;-0.2788495421409607;0.061435293406248;-0.4794885814189911
1767708650109409000;6.597408935546875;-0.1084311851570382;-0.477298436351493;-1.7058417948544025;-0.2114036530256271;0.0343578718602657;-0.4752160906791687
1767708650119409200;6.6074091796875;-0.3483622233042493;-0.4019720137430355;-2.7699750009447333;-0.1353994160890579;0.0505270287394523;-0.4627645313739776
1767708650129410000;6.61741015625;-0.4668272381544113;-0.4247460825437679;-3.637802375602722;-0.0708963200449943;0.0717207267880439;-0.462627649307251
1767708650139410000;6.627409912109375;-0.3338566915571689;-0.510284431358613;-4.216043577584624;-0.0504764914512634;0.0793651789426803;-0.4714681208133697
1767708650149411000;6.6374111328125;-0.1166144916126504;-0.4697327503375709;-4.632794825449586;-0.0659558475017547;0.0784253478050232;-0.4786647856235504
1767708650159411000;6.647410888671875;0.0442740260124206;-0.1927981886375695;-4.862525372099876;-0.0826286002993583;0.1003711968660354;-0.4917977452278137
1767708650169410800;6.657410888671875;0.222957691514492;0.2367735970295965;-5.082748085692525;-0.1026241406798362;0.1370035111904144;-0.5321894288063049
1767708650179412000;6.667411865234375;0.362681767492555;0.6923439665019512;-5.141833311867714;-0.1368143558502197;0.1585978418588638;-0.5981864929199219
1767708650189411800;6.677411865234375;0.2644844646453857;1.2297639132738112;-4.992712425458431;-0.1718554198741912;0.2005274444818496;-0.6554402112960815
1767708650199413000;6.6874130859375;0.0052384121101349;1.7114552508220076;-4.722698968258499;-0.2010521292686462;0.2482272088527679;-0.6833058595657349
1767708650209413000;6.6974130859375;-0.2240870243379846;1.8162609024256464;-4.49725764323473;-0.2183150053024292;0.2931051850318908;-0.6862539649009705
1767708650219414000;6.7074140625;-0.4006009080529212;1.7039911985516547;-4.16735641130507;-0.1975961774587631;0.320379763841629;-0.6773064136505127
1767708650229414000;6.717413818359375;-0.7128432222384959;1.5257900558695197;-3.9466777706384657;-0.159031480550766;0.3488620221614837;-0.6716890335083008
1767708650239415000;6.7274150390625;-0.9660241295158862;1.5324115198358892;-3.732907009664178;-0.1127529665827751;0.3297036588191986;-0.6584272980690002
1767708650249415000;6.737414794921875;-1.1804933941483498;1.667814115885645;-3.344233270770311;-0.0718761086463928;0.2952026724815368;-0.6017285585403442
1767708650259414800;6.747414794921875;-1.3705658841490744;1.7986445817142724;-2.9902099894970653;-0.0461281277239322;0.2770364582538605;-0.5116847157478333
1767708650269416200;6.757416259765625;-1.3289409113407131;1.6299867817945777;-2.4559821167647837;-0.0058414279483258;0.2471770942211151;-0.4460921287536621
1767708650279416000;6.767416015625;-1.1746389690317214;1.28806164233312;-1.850606239619851;0.0529824756085872;0.1832244843244552;-0.4489249289035797
1767708650289417000;6.7774169921875;-1.197921571876481;1.0012462495446204;-1.3224129708766936;0.139185830950737;0.0785747170448303;-0.4943654239177704
1767708650299417000;6.7874169921875;-1.3685913692057132;0.6211074070230126;-0.9312351402074098;0.2456236034631729;-0.024094134569168;-0.5320768356323242
1767708650309418000;6.79741796875;-1.4402537528812884;0.158501987814717;-0.6513987926512956;0.3342568278312683;-0.0758623257279396;-0.5130696892738342
1767708650319417900;6.80741796875;-1.303758539289236;-0.1859295084444805;-0.0823158796370029;0.3917731046676636;-0.0953718423843383;-0.4046953320503235
1767708650329419000;6.8174189453125;-0.902290273817256;-0.3515726367181166;0.6900824513107537;0.4008267223834991;-0.174500361084938;-0.2285424917936325
1767708650339419000;6.8274189453125;-0.850668807651475;-0.280251833021827;1.2054735216259955;0.3633105158805847;-0.2819269597530365;-0.0758565440773963
1767708650349418800;6.837418701171875;-1.1990799481313674;0.3170201961118727;1.5036615184307098;0.2748722732067108;-0.3278175294399261;-0.043306965380907
1767708650359420200;6.847420166015625;-1.799932283437252;1.0413844909265637;2.015454271993041;0.1395826041698455;-0.3299767971038818;-0.1857898235321045
1767708650369420000;6.857419921875;-2.6662626975357533;1.344635616339743;3.146390146768093;-0.0118737174198031;-0.3668558597564697;-0.4743221402168274
1767708650379421000;6.8674208984375;-3.8585435601115226;0.8061288972444832;4.102638147678971;-0.2034652531147003;-0.4355587661266327;-0.7647779583930969
1767708650389421000;6.877421142578125;-4.862015669012069;-0.0903589556380175;4.744793311166763;-0.4173174202442169;-0.5121054649353027;-0.9115100502967834
1767708650399422000;6.887421875;-5.045393045288324;-0.986888346107304;4.730834343919158;-0.5160245299339294;-0.5522124171257019;-0.8699026703834534
1767708650409421800;6.897421875;-4.220104251152277;-1.5007313101977109;3.6160546541750422;-0.3696827888488769;-0.4552724659442901;-0.6961517930030823
1767708650419422000;6.907421875;-1.8649322866141795;-1.6088243129089477;2.2165566900521516;-0.1366936564445495;-0.3604240417480469;-0.5838570594787598
1767708650429423000;6.917423095703125;1.2235469384551048;-1.330786246946454;1.4201274951756;0.0002527439501136;-0.1725718230009079;-0.5494434237480164
1767708650439423000;6.927423095703125;4.261164575815201;-0.3272246696641668;2.071753082320094;0.1142493486404419;-0.0446663200855255;-0.5313584208488464
1767708650449424100;6.937424072265625;7.122292842847108;0.7991773976061493;3.1167373513042924;0.1250734329223632;-0.2192789018154144;-0.54373699426651
1767708650459424000;6.947424072265625;7.85180538727045;2.0371609307579694;3.653383391094207;0.0040700547397136;-0.4267716407775879;-0.5068737864494324
1767708650469425000;6.9574248046875;6.444215886628627;3.56915554035604;4.058344247922301;-0.2317752093076706;-0.3985969424247741;-0.3577705025672912
1767708650479425000;6.967425048828125;4.571232395505905;4.537895943093299;4.149485823571681;-0.6453481316566467;-0.3303171992301941;-0.2867618501186371
1767708650489426000;6.977426025390625;2.693930456662178;4.229501317311823;3.720378952002525;-0.814186692237854;-0.4813771843910217;-0.3002260327339172
1767708650499425800;6.98742578125;1.1769500224530696;2.720363121035695;1.6576123092144728;-0.6956523656845093;-0.4709442555904388;-0.2268202602863311
1767708650509426000;6.997426025390625;0.5334545502722263;0.8766340737089514;-0.5035410580456257;-0.4479784071445465;-0.3446691930294037;-0.0134820370003581
1767708650519427000;7.007427001953125;0.9682324532151222;-0.3962571066949516;-0.8065887698411941;-0.1611924469470977;-0.2073786854743957;0.2264123111963272
1767708650529427000;7.017427001953125;1.647417662936449;-0.9325329979982226;-0.1110036294609308;0.0991135165095329;-0.1518487632274627;0.3765807151794433
1767708650539428000;7.027427978515625;1.6204571752965449;-0.8605159556660801;0.9973504111498592;0.235497161746025;-0.1680593788623809;0.4378401041030884
1767708650549428000;7.037427978515625;0.7975275115072726;-0.1110875083521008;2.1568688218086955;0.2797122895717621;-0.1678162366151809;0.4676550030708313
1767708650559428900;7.047428955078125;-0.0214870246648788;0.7433227508500218;3.365498177117109;0.3253032267093658;-0.0958381965756416;0.522240936756134
1767708650569429000;7.057428955078125;-0.1188180934709962;1.3182367081053554;3.913577465069294;0.3579218685626983;0.0123916054144501;0.6298853754997253
1767708650579430000;7.067429931640625;0.3420820835888385;1.3321908530473707;4.213081805169582;0.3434830904006958;0.073495365679264;0.776361882686615
1767708650589430000;7.077429931640625;0.9402338546991348;1.0316171301499009;3.82915555306375;0.2465594559907913;0.0680550560355186;0.8890929818153381
1767708650599430100;7.08743017578125;1.6039304033875466;0.6179089032426476;3.0685943749040363;0.1204603314399719;0.0115185379981994;0.9047570824623108
1767708650609431000;7.09743115234375;1.906088472867012;0.04030278429389;2.129172421109676;-0.0014157721307128;-0.0551598221063613;0.8609305620193481
1767708650619431000;7.107430908203125;1.685994938611984;-0.4677055188262835;0.9843605811953544;-0.1091925948858261;-0.0893139988183975;0.8118345141410828
1767708650629432000;7.11743212890625;1.220258418303728;-0.8904055555604398;-0.3346300140172243;-0.1870597004890442;-0.1110078394412994;0.8065752983093262
1767708650639432000;7.127431884765625;0.7100222465336322;-1.2561359335012734;-1.7645786459833384;-0.2449629306793213;-0.1589387059211731;0.8526597619056702
1767708650649432800;7.137432861328125;0.3863678000390529;-1.4570162332423031;-2.8470968190699812;-0.2601645290851593;-0.2052313685417175;0.916539430618286
1767708650659433000;7.147432861328125;0.3629167818248272;-1.499443900735676;-3.6888375663131474;-0.2109335660934448;-0.2060658484697342;0.9565277099609376
1767708650669434000;7.15743408203125;0.4113485120385885;-1.448011235140264;-4.4613411112010475;-0.1070612370967865;-0.1793271750211715;0.973012626171112
1767708650679434000;7.16743408203125;0.3769353703051805;-1.3760555676065385;-5.037861480739712;0.0216048285365104;-0.1497263610363006;0.9811444282531738
1767708650689434000;7.17743408203125;0.2329161909490823;-1.2140867439314722;-5.378215717622638;0.1374611258506775;-0.1211746111512184;1.012678146362305
1767708650699435000;7.18743505859375;0.068419456231594;-1.070866386802867;-5.357312045803666;0.2329740822315216;-0.0913259834051132;1.0669440031051636
1767708650709435000;7.197434814453125;-0.0230184720158576;-1.034470473754406;-5.079536137908697;0.3335528969764709;-0.0418127551674842;1.0979887247085571
1767708650719436000;7.20743603515625;-0.1324053230630699;-1.1194305842898786;-4.518071883204579;0.4232273995876312;0.0548939928412437;1.0848987102508545
1767708650729436000;7.217435791015625;-0.2747504225939512;-1.2266302914232017;-3.930703371915221;0.470082014799118;0.1622422933578491;1.038590908050537
1767708650739436800;7.227436767578125;-0.4728378767460584;-1.2069232089776545;-3.505942420595884;0.4710109233856201;0.1962753534317016;0.9719631671905518
1767708650749437200;7.237437255859375;-0.6209416950672865;-1.3685720799833536;-3.2264351588636635;0.4175955951213836;0.1686896234750747;0.8739469051361084
1767708650759438000;7.24743798828125;-0.8742389952659606;-1.4561131469227373;-2.9083021061390637;0.3348991274833679;0.1337271034717559;0.7699615955352783
1767708650769438000;7.25743798828125;-1.1177414621591568;-1.3207852235443889;-2.7432699493706223;0.2356628328561782;0.0841320380568504;0.6897588968276978
1767708650779438000;7.26743798828125;-1.2206377730101343;-1.3283579968862236;-2.7797067058861256;0.1206904351711273;0.0550782829523086;0.6359068751335144
1767708650789439000;7.27743896484375;-1.375878603604436;-1.2151926593467592;-2.8715006079643963;0.0248502045869827;0.0882702246308326;0.5845538377761841
1767708650799438800;7.28743896484375;-1.384703715094924;-1.1205563734494148;-2.720843013507128;-0.0351284407079219;0.1252357065677642;0.4997779726982116
1767708650809440000;7.29743994140625;-1.556383054792881;-0.9664138594858348;-2.4358406614899635;-0.0658560246229171;0.1032504215836525;0.4204691052436828
1767708650819439900;7.30743994140625;-1.988359344318509;-0.706166228692606;-2.1875188116163016;-0.1185144409537315;0.0086568081751465;0.3933482766151428
1767708650829441000;7.31744091796875;-2.415266075494886;-0.6078954587504267;-1.9555852019637825;-0.1969474107027053;-0.0761814936995506;0.4239558279514313
1767708650839441200;7.327441162109375;-2.494962128022313;-0.4621916507756337;-1.5235744256466626;-0.2891122102737427;-0.1151901483535766;0.477881908416748
1767708650849441000;7.33744091796875;-1.76093882817626;-0.3739204794634133;-0.7446236043155193;-0.3697123229503631;-0.1207204610109329;0.526519775390625
1767708650859442000;7.34744189453125;-0.4074678712129592;-0.5551243476254866;0.1954378164261579;-0.4372338354587555;-0.1321739107370376;0.5234038829803467
1767708650869442000;7.357442138671875;0.8722416839689016;-0.7787759031556546;0.8430114978313445;-0.5162306427955627;-0.1558371633291244;0.4649675190448761
1767708650879443000;7.36744287109375;1.137705807301402;-0.7792297844029963;0.8453677055686711;-0.5658243298530579;-0.2101659178733825;0.392839252948761
1767708650889442800;7.37744287109375;-0.8536305070012807;-0.4123288648454472;0.965248468968272;-0.4839581847190857;-0.3097344934940338;0.4196865856647491
1767708650899444000;7.38744384765625;-4.474063230130076;0.1751072317874059;1.6162901187449692;-0.2503547668457031;-0.2618955969810486;0.6056455373764038
1767708650909444000;7.397444091796875;-7.228324529114365;0.5759465882387012;3.059804919248819;0.0654412358999252;-0.1183240339159965;0.8222776651382446
1767708650919445000;7.407445068359375;-7.527091787111758;0.145075118149817;4.421062876826524;0.3311839401721954;-0.0019942326471209;0.9062622785568236
1767708650929445000;7.417445068359375;-5.665108413431048;-0.934884967951849;5.113905440500378;0.5207797884941101;0.0876053348183631;0.7884178161621094
1767708650939445000;7.427445068359375;-2.6588556361496445;-2.583241884499788;4.300678255558013;0.5842596888542175;0.1318625509738922;0.4614062011241913
1767708650949446000;7.43744580078125;-0.1957686558157205;-3.939215179672837;2.017666102823615;0.4598793983459472;0.1694660931825637;0.119115836918354
1767708650959446000;7.447446044921875;1.1163836178094149;-3.937466874700784;1.048884783554077;0.3524898290634155;0.1864528059959411;-0.0577806495130062
1767708650969447000;7.457447021484375;2.024493903017044;-2.7949960449546576;1.680180114853382;0.3718473017215729;0.2197231501340866;-0.0644927620887756
1767708650979446800;7.46744677734375;2.753162982353568;-1.256631461933255;2.5951269680827855;0.4625103771686554;0.2487321645021438;-0.012520644813776
1767708650989448200;7.4774482421875;3.0959102518528696;-0.4525291020803153;3.647343526408076;0.5093368887901306;0.1927733719348907;0.0429087430238723
1767708650999448000;7.487447998046875;3.0802883198291062;0.1447709841040894;4.611041258803009;0.4652232527732849;0.0531443692743778;0.0600573718547821
1767708651009449000;7.497448974609375;2.970663577505946;0.4486380859911441;5.557953276091814;0.4051498472690582;-0.0075422972440719;0.0488200299441814
1767708651019449000;7.507448974609375;2.9336294396191835;0.4518514220144599;6.112746382468939;0.3793422281742096;0.0330439060926437;0.0148465177044272
1767708651029449000;7.517448974609375;3.136406512892246;0.1626480015782639;5.283527263146638;0.3376807868480682;0.0727484375238418;-0.0752761885523796
1767708651039449900;7.527449951171875;3.141635645717382;-0.0702032617752905;3.2450849142760037;0.2229746878147125;0.0824133828282356;-0.1672680079936981
1767708651049450000;7.537449951171875;3.174786804690957;-0.0681304055905668;0.6768956374794244;0.0329000875353813;0.1020174473524093;-0.2578341364860534
1767708651059451000;7.547450927734375;3.1434868265420195;0.2793314485075883;-0.7794318828463553;-0.0944766998291015;0.167585864663124;-0.3293311297893524
1767708651069451000;7.557450927734375;2.9984903265863654;0.6988706648569554;-0.9491513206481932;-0.1082295253872871;0.2654890120029449;-0.3779231607913971
1767708651079452200;7.5674521484375;2.3557132318079472;1.2669812987729907;-0.4970791685551404;-0.0652054324746131;0.3244453370571136;-0.3418988883495331
1767708651089452000;7.5774521484375;1.3636930757701395;1.691422955010086;0.4647334807455539;-0.0290658082813024;0.3105415105819702;-0.2673104107379913
1767708651099452200;7.5874521484375;0.980797335755825;1.689194026914239;1.180207562944293;-0.0628120005130767;0.383254200220108;-0.3006502687931061
1767708651109452300;7.597452392578125;1.592372067540884;1.043602970693633;1.860658847078681;-0.1081371381878852;0.5614097714424133;-0.491290271282196
1767708651119452200;7.6074521484375;2.0982745940208436;0.4411258837301284;2.743652811208367;-0.1169266924262046;0.7046172618865967;-0.6978093981742859
1767708651129453000;7.617453125;1.3360393451690673;0.2722001535892486;2.918318473240733;-0.1546972393989563;0.7371078133583069;-0.7451872825622559
1767708651139453200;7.627453125;0.2436287236213684;0.1998559981945902;2.371631516429782;-0.2719862759113312;0.6272668838500977;-0.657410204410553
1767708651149454300;7.637454345703125;-0.0742073554506525;0.0156058850712608;1.6263959176957603;-0.3847535848617553;0.4876677393913269;-0.5870247483253479
1767708651159454500;7.647454345703125;0.1050853453278541;-0.2139007805621251;0.7453636090278625;-0.4449722170829773;0.4005548655986786;-0.6160221099853516
1767708651169455400;7.657455322265625;0.360833509277366;-0.3623943653859198;-0.247335176923871;-0.4446121454238891;0.3443565964698791;-0.708422064781189
1767708651179455200;7.667455322265625;0.5043745862603187;-0.5046828119592741;-1.229753391879797;-0.3580951392650604;0.2933387160301208;-0.7890183329582214
1767708651189456100;7.6774560546875;0.3764075470387935;-0.4509719357661902;-2.0609692379772664;-0.1505288928747177;0.2743107080459595;-0.8192569613456726
1767708651199456300;7.687456298828125;0.1192962415099143;-0.7549658423706889;-3.361087959459424;-0.0226683225482702;0.2939784824848175;-0.7928556203842163
1767708651209456000;7.6974560546875;0.301744118383713;-1.1891964866943656;-4.441573165413737;-0.013957655057311;0.2832880318164825;-0.7700033187866211
1767708651219457000;7.70745703125;0.5732277577340602;-0.987677450658381;-4.592620051449537;0.0116505026817321;0.2496973127126693;-0.7921416163444519
1767708651229457400;7.71745751953125;0.3627273967325687;-0.6026014439955354;-4.711850826507806;0.0219106078147888;0.2746827006340027;-0.8293213248252869
1767708651239458300;7.727458251953125;0.0485550643324851;0.1373958522262051;-5.048960382381082;-0.0224818903952837;0.3740889132022857;-0.85233074426651
1767708651249458400;7.73745849609375;0.0555962150156497;0.5595851629592478;-4.908107558101415;-0.0653622671961784;0.4658166468143463;-0.8607064485549927
1767708651259459300;7.747459228515625;0.2264695720929652;0.9181571935780346;-4.726071659561992;-0.1311218440532684;0.5447183847427368;-0.8446800708770752
1767708651269459200;7.757459228515625;0.1265722969274967;1.433394973027706;-4.779633153879642;-0.2174636423587799;0.6177942156791687;-0.8032052516937256
1767708651279459300;7.767459228515625;-0.0714894382614642;1.7462516927845777;-4.558004665142297;-0.2775781154632568;0.6888694763183594;-0.7652994394302368
1767708651289460200;7.777460205078125;-0.2929354831039905;1.8236361073687672;-4.583555870506167;-0.3223026990890503;0.7684117555618286;-0.7517694234848022
1767708651299460000;7.787460205078125;-0.5060054023325443;1.7608242618858814;-4.718907759281993;-0.3508110344409942;0.774879515171051;-0.7649432420730591
1767708651309461200;7.797461181640625;-0.933066520353034;1.8065671914070844;-4.501729235690832;-0.3470499217510223;0.7262970209121704;-0.7426795363426208
1767708651319461400;7.80746142578125;-1.7230477811992166;1.819597791763395;-4.053346001243591;-0.3108735382556915;0.7070434093475342;-0.656668484210968
1767708651329462300;7.817462158203125;-2.0295568854950368;1.782544072393328;-3.4598031852334734;-0.2255021184682846;0.7431635856628418;-0.5585904717445374
1767708651339462400;7.82746240234375;-1.963385500451177;1.7816218429818749;-2.5643945606887337;-0.1020829752087593;0.747400164604187;-0.4619496762752533
1767708651349463300;7.83746337890625;-1.7783317153953015;1.6522019746035337;-1.566671809095144;0.016955766826868;0.6232230067253113;-0.3592932522296905
1767708651359463200;7.847463134765625;-1.3984298964999615;1.415116096754372;-0.7069687041819095;0.1100170314311981;0.4158395826816559;-0.277263730764389
1767708651369463300;7.85746337890625;-1.1763025183297693;1.0073775188412517;0.0726899731576442;0.1967386156320572;0.2072101980447769;-0.2212278842926025
1767708651379464200;7.867464111328125;-0.8095452815592289;0.5829815283767878;0.6159235746443271;0.2722442746162414;0.0225151777267456;-0.208692118525505
1767708651389464300;7.87746435546875;-0.5551261377237737;0.2462844257619232;0.9896867446541786;0.3299376666545868;-0.0967935398221015;-0.2226776182651519
1767708651399465200;7.88746533203125;-0.6479772937700152;0.0808518349664285;1.360893215918541;0.3572806119918823;-0.1629986613988876;-0.2274236381053924
1767708651409465300;7.89746533203125;-0.9461234972596168;0.3769626236382871;1.867275634869933;0.3480285108089447;-0.2334602177143097;-0.1833970546722412
