timestamp;acc_x;acc_y;acc_z;gyro_x;gyro_y;gyro_z
185349;9.46;-0.72;1.0;-1.375;0.375;0.5
185349;9.46;-0.7;1.02;-2.5625;0.625;0.125
185349;9.45;-0.66;1.05;-3.125;0.875;0.3125
185349;9.46;-0.9;1.03;-3.625;0.25;-0.4375
185349;9.46;-0.9;1.05;-3.125;0.1875;-0.25
185349;9.47;-0.9;1.05;-2.1875;0.1875;-0.1875
185349;9.45;-0.92;1.07;-1.5;-0.125;-0.1875
185349;9.45;-0.86;1.04;1.0;-0.1875;-0.125
185349;9.44;-0.84;1.0;1.125;0.0625;0.0
185349;9.42;-0.86;1.08;1.4375;-0.125;0.0625
185349;9.48;-0.85;1.05;0.9375;-0.1875;0.0625
185349;9.48;-0.84;1.07;1.0;-0.0625;-0.0625
185349;9.48;-0.84;1.1;1.0625;0.0625;-0.0625
185349;9.46;-0.81;1.08;1.125;0.125;0.0
185349;9.46;-0.87;1.06;0.4375;-0.5625;0.1875
185349;9.47;-0.84;1.06;0.0;0.0625;0.375
185349;9.44;-0.81;1.06;0.25;-0.4375;0.4375
185349;9.44;-0.83;1.08;-0.1875;-0.6875;0.375
185349;9.45;-0.83;1.05;-0.1875;-0.625;0.3125
185349;9.46;-0.84;1.05;-0.3125;-0.4375;0.125
185349;9.47;-0.86;1.04;-0.4375;-0.3125;0.25
185349;9.45;-0.82;1.01;0.6875;-1.5;0.0625
185349;9.47;-0.82;1.06;0.5625;-1.1875;0.0625
185349;9.47;-0.79;1.02;0.5;-1.3125;0.125
185350;9.47;-0.82;1.06;0.375;-1.5;0.0
185350;9.48;-0.81;1.0;0.125;-1.125;-0.0625
185350;9.49;-0.82;1.03;0.125;-0.6875;-0.125
185350;9.48;-0.82;1.01;0.125;-0.5625;0.0625
185350;9.45;-0.84;1.03;0.125;-0.5;-0.125
185350;9.47;-0.79;1.04;-0.0625;0.25;0.0
185350;9.46;-0.81;0.96;0.0625;-0.1875;0.0
185350;9.47;-0.79;0.99;-0.0625;-0.4375;0.0625
185350;9.45;-0.82;1.02;0.375;-0.25;0.0625
185350;9.5;-0.8;1.02;0.4375;-0.25;0.0
185350;9.47;-0.79;1.04;0.25;-0.0625;-0.125
185350;9.47;-0.82;1.03;-0.0625;-0.125;-0.1875
185350;9.46;-0.8;1.03;-0.125;-0.6875;0.125
185350;9.47;-0.82;1.03;-0.0625;-0.5625;0.0
185350;9.46;-0.83;1.04;0.0;-0.375;0.0625
185350;9.47;-0.81;1.07;0.0625;-0.3125;0.125
185350;9.47;-0.79;1.04;0.0625;-0.5625;0.1875
185350;9.49;-0.79;1.04;0.375;-0.625;0.3125
185350;9.49;-0.79;0.99;0.25;-0.3125;0.375
185350;9.48;-0.8;0.98;0.25;-0.25;0.4375
185350;9.46;-0.79;1.01;-0.375;-0.125;0.375
185351;9.45;-0.81;1.04;-0.5;0.0625;0.3125
185351;9.45;-0.81;1.06;-0.4375;0.3125;0.3125
185351;9.46;-0.81;1.02;-0.375;0.25;0.3125
185351;9.46;-0.82;1.01;-0.0625;0.25;0.125
185351;9.48;-0.83;1.03;-0.0625;0.125;0.25
185351;9.46;-0.8;1.04;0.125;0.25;0.125
185351;9.49;-0.78;1.03;0.0;0.625;-0.0625
185351;9.48;-0.83;1.05;-0.375;0.3125;-0.125
185351;9.47;-0.8;1.04;0.0;0.0;-0.125
185351;9.44;-0.8;1.04;-0.1875;-0.25;-0.125
185351;9.47;-0.8;1.05;-0.4375;0.0;0.25
185351;9.48;-0.81;1.01;-0.3125;0.125;0.1875
185351;9.5;-0.84;1.03;-0.3125;-0.25;0.3125
185351;9.5;-0.83;1.0;-0.875;-0.3125;0.25
185351;9.5;-0.79;1.04;0.375;-1.25;1.0
185351;9.5;-0.79;1.07;1.3125;-1.1875;0.9375
185351;9.51;-0.78;1.02;1.625;-1.3125;1.0
185351;9.43;-0.78;0.96;2.25;-1.6875;1.4375
185351;9.52;-0.88;0.98;6.3125;-1.875;2.9375
185351;9.5;-0.9;1.04;6.4375;-1.375;3.1875
185351;9.51;-0.92;0.98;6.625;-1.4375;3.3125
185352;9.48;-0.92;1.0;6.8125;-1.4375;3.75
185352;9.51;-0.98;1.01;5.875;-0.75;4.1875
185352;9.43;-1.01;1.03;5.1875;0.1875;3.875
185352;9.42;-1.03;1.02;4.9375;0.1875;3.5
185352;9.42;-1.03;1.05;4.6875;-0.1875;2.625
185352;9.44;-0.93;1.01;2.6875;-0.3125;1.3125
185352;9.45;-0.96;1.02;2.375;-0.375;1.0625
185352;9.46;-0.99;1.01;1.4375;-0.0625;0.625
185352;9.45;-1.01;1.01;1.0;0.0;0.375
185352;9.45;-1.03;0.93;-1.5625;-0.875;-0.0625
185352;9.46;-1.0;0.89;-1.6875;-0.8125;0.0
185352;9.48;-0.98;0.9;-1.5;-0.8125;0.125
185352;9.47;-0.87;0.79;4.8125;-2.9375;0.875
185352;9.48;-0.83;0.77;5.375;-3.125;1.1875
185352;9.53;-0.84;0.8;5.5;-3.25;1.3125
185352;9.47;-0.86;0.71;5.5;-3.0625;1.375
185352;9.42;-0.9;0.44;12.125;-6.3125;3.875
185352;9.43;-0.9;0.4;12.25;-6.8125;4.1875
185352;9.45;-0.95;0.45;13.0;-7.8125;4.5
185352;9.45;-0.95;0.43;14.25;-8.5625;5.125
185352;9.42;-1.27;0.24;22.875;-10.625;6.875
185353;9.3;-1.25;0.17;24.5625;-10.3125;7.75
185353;9.23;-1.41;0.05;26.1875;-11.3125;7.875
185353;9.3;-1.56;0.19;30.25;-13.5625;7.5
185353;9.84;-1.55;0.89;29.8125;-10.9375;1.1875
185353;9.72;-1.44;0.7;28.875;-10.375;1.6875
185353;9.63;-1.46;0.51;26.9375;-10.1875;2.25
185353;8.99;-1.39;0.21;22.6875;-8.1875;-8.625
185353;8.98;-1.17;0.12;22.0625;-8.6875;-12.0
185353;9.14;-1.12;0.0;21.5625;-9.4375;-13.4375
185353;9.37;-1.07;-0.12;20.5;-11.5;-16.1875
185353;7.23;0.31;-0.39;10.0;-15.0;-9.5625
185353;7.01;0.44;-0.95;4.4375;-16.75;-8.0
185353;7.19;-0.1;-1.13;-1.8125;-23.0;-5.4375
185353;8.24;1.52;-0.22;26.5;-4.625;-6.375
185353;8.88;1.2;-0.42;26.375;-11.6875;-9.875
185353;9.28;1.08;-0.15;27.1875;-17.375;-10.125
185353;9.86;0.79;-0.07;22.8125;-18.1875;-9.25
185353;9.1;-0.82;-0.33;14.6875;18.0625;-10.3125
185353;9.01;-0.49;-0.54;17.9375;19.6875;-12.5
185353;8.98;-0.47;-0.56;24.0625;20.4375;-15.875
185354;9.55;0.91;-0.26;20.8125;38.375;-20.0625
185354;9.02;0.99;-0.49;18.125;41.0;-22.4375
185354;8.91;0.85;-0.46;17.6875;40.0;-22.9375
185354;8.92;0.5;0.0;17.4375;38.875;-20.875
185354;9.94;1.88;-1.43;41.0;-5.25;-24.375
185354;12.22;2.29;0.11;38.5625;0.0625;-36.3125
185354;12.77;1.55;0.22;32.5625;22.9375;-56.9375
185354;11.33;2.03;3.51;13.5;65.0;-26.875
185354;10.63;1.95;3.33;-5.8125;60.125;-17.25
185354;10.9;1.42;3.08;-14.4375;56.8125;-14.5
185354;11.44;0.67;3.6;-21.4375;52.1875;-5.25
185354;6.39;0.81;3.37;-40.125;66.875;35.9375
185354;5.95;1.04;3.49;-40.1875;66.9375;34.25
185354;6.24;0.78;3.23;-40.4375;66.375;30.125
185354;7.71;-0.8;6.11;-33.5625;69.9375;21.3125
185354;7.72;-0.63;7.13;-29.125;77.9375;22.0
185354;7.4;-0.1;7.04;-29.8125;82.875;21.9375
185354;6.97;0.42;6.72;-33.25;86.9375;18.5625
185354;6.99;-0.38;7.99;-11.0;78.5625;3.5625
185354;6.55;-1.49;8.15;-12.75;79.75;1.25
185355;6.3;-1.6;8.46;-7.9375;82.75;0.5
185355;4.56;-1.61;8.53;-0.4375;66.4375;-17.875
185355;3.23;-1.7;8.61;1.0;62.3125;-19.1875
185355;2.95;-1.49;8.52;3.625;59.0625;-19.1875
185355;2.78;-1.08;8.28;10.4375;54.0;-16.5
185355;2.33;0.14;8.59;27.0;36.5625;-9.1875
185355;2.2;1.55;8.52;26.1875;36.375;-11.0625
185355;2.26;1.72;8.63;21.5625;38.6875;-17.875
185355;2.3;0.28;8.82;18.875;38.8125;-20.1875
185355;1.86;1.57;9.58;1.3125;36.25;-16.4375
185355;1.94;1.47;9.29;-0.9375;34.3125;-14.4375
185355;2.03;1.12;9.76;-1.0;32.4375;-9.6875
185355;0.3;-0.18;9.53;-4.75;8.6875;-3.9375
185355;0.46;0.23;9.02;-1.5;8.8125;-0.625
185355;0.52;0.43;9.2;-1.875;8.875;1.5625
185355;0.37;-0.14;9.62;-4.1875;8.125;1.0
185355;0.94;0.58;9.15;6.1875;3.5;0.3125
185355;1.12;0.5;9.15;3.9375;8.75;0.75
185355;1.4;0.33;9.56;3.125;12.5;0.8125
185355;1.37;0.33;9.88;1.75;20.375;1.4375
185355;0.93;1.02;8.99;-7.75;21.375;-19.3125
185356;0.71;0.93;9.28;-7.3125;22.125;-18.0625
185356;0.25;0.45;9.6;-9.375;21.25;-17.4375
185356;0.13;0.16;9.33;-12.4375;19.25;-19.25
185356;0.0;0.0;9.84;-16.4375;11.4375;-18.875
185356;-0.45;-0.31;9.92;-19.4375;10.125;-19.3125
185356;-0.56;-0.45;10.01;-20.0625;6.6875;-18.625
185356;-0.17;-0.82;9.99;-11.0;8.25;-9.5
185356;-0.5;-0.83;9.86;-17.1875;4.8125;-11.25
185356;-0.74;-0.8;9.86;-18.3125;3.3125;-10.75
185356;-0.7;-0.56;9.36;-15.6875;1.4375;-9.0
185356;0.81;-1.28;9.06;-7.0;-0.4375;-1.25
185356;0.37;-1.48;9.5;-8.3125;0.5625;-0.3125
185356;0.1;-1.57;9.46;-8.8125;1.3125;1.6875
185356;-1.17;-1.35;9.43;5.8125;2.5625;3.0
185356;-0.91;-1.15;9.36;5.0625;-6.625;1.3125
185356;-0.39;-1.09;9.27;4.25;-8.6875;0.8125
185356;-0.09;-0.99;9.62;7.375;-4.9375;1.3125
185356;-0.09;-0.11;9.8;8.9375;3.875;-0.0625
185356;-0.35;-0.05;9.63;8.625;3.0625;-0.625
185356;-0.36;-0.08;9.65;8.75;-0.9375;-1.5625
185357;-0.43;0.02;9.5;9.4375;-2.6875;-1.25
185357;-0.28;-0.54;9.42;-8.875;-1.4375;-3.3125
185357;-0.18;-0.85;9.52;-9.5625;-1.1875;-4.875
185357;-0.44;-0.86;9.5;-4.8125;2.0;-5.125
185357;-0.44;-0.93;9.56;-3.1875;0.375;-5.0625
185357;-0.12;-0.57;9.36;-1.8125;0.8125;-2.3125
185357;-0.13;-0.45;9.29;-1.1875;1.0625;-2.0625
185357;-0.08;-0.4;9.38;0.0;0.625;-1.9375
185357;-0.31;-0.61;9.55;-0.9375;-1.0;0.0
185357;-0.25;-0.55;9.63;-0.25;-0.875;0.25
185357;-0.12;-0.55;9.66;0.375;-1.0625;0.8125
185357;-0.04;-0.6;9.64;0.3125;0.3125;1.3125
185357;-0.3;-0.76;9.51;2.375;0.5;-0.5
185357;-0.33;-0.7;9.58;2.875;-0.4375;-0.625
185357;-0.34;-0.63;9.62;2.8125;-0.6875;-0.9375
185357;-0.29;-0.56;9.52;1.875;-0.3125;-0.875
185357;-0.2;-0.61;10.01;5.1875;-5.75;-5.125
185357;-0.25;-0.69;9.64;2.25;-5.0;-5.0625
185357;-0.01;-0.75;9.42;1.375;-3.25;-5.625
185357;-0.19;-0.57;9.42;4.1875;-4.25;-1.25
185357;-0.18;-0.41;9.68;5.5625;-4.4375;-2.125
185358;0.01;-0.48;9.59;4.1875;-3.5625;-2.375
185358;0.0;-0.41;9.61;1.3125;-3.375;-0.4375
185358;-0.01;-0.54;9.57;1.6875;-2.6875;-1.5
185358;-0.04;-0.54;9.54;1.8125;-2.5;-1.5
185358;-0.01;-0.53;9.48;3.1875;-2.1875;-1.5
185358;-0.03;-0.36;9.46;-1.0;-0.125;-0.125
185358;-0.01;-0.35;9.5;-0.3125;-1.0;-0.375
185358;-0.01;-0.49;9.61;-0.25;-1.4375;-0.5
185358;-0.05;-0.48;9.66;-0.625;-1.4375;-0.9375
185358;-0.03;-0.43;9.41;0.1875;-0.125;-0.375
185358;0.01;-0.41;9.5;0.3125;-0.25;-0.3125
185358;0.0;-0.42;9.47;-0.375;0.0;-0.1875
185358;-0.03;-0.43;9.51;-0.1875;0.125;-0.1875
185358;-0.12;-0.58;9.53;-0.6875;-0.3125;-1.125
185358;-0.09;-0.53;9.59;-0.5;-0.5625;-1.1875
185358;0.0;-0.46;9.6;0.0625;-1.125;-1.25
185358;-0.13;-0.78;8.94;0.6875;4.6875;-0.0625
185358;-0.14;-0.84;8.82;1.0625;4.125;-0.75
185358;-0.15;-0.53;9.4;-1.0;1.375;-1.4375
185358;0.02;-0.39;9.65;-4.125;-0.375;-1.3125
185359;-0.08;-0.02;9.93;-0.1875;2.125;-2.6875
185359;-0.46;0.16;9.66;-3.0625;2.9375;-0.9375
185359;-0.62;-0.05;9.38;-4.3125;3.1875;-0.3125
185359;-0.67;-0.18;9.37;-2.0;0.875;0.5
185359;0.22;-0.54;9.65;0.9375;-4.75;-2.9375
185359;0.28;-0.53;9.39;2.6875;-1.5625;-1.75
185359;0.18;-0.52;9.38;3.5625;1.0;-1.1875
185359;-0.18;-0.34;9.42;1.4375;0.6875;0.0625
185359;-0.23;-0.38;9.3;1.1875;0.5625;-0.1875
185359;-0.17;-0.33;9.45;2.0;-1.125;-0.5625
185359;-0.12;-0.33;9.55;2.5625;-3.0625;-1.6875
185359;0.03;-0.28;9.46;-0.875;-3.125;-0.0625
185359;0.0;-0.23;9.58;0.875;-3.25;0.0
185359;0.01;-0.2;9.62;0.8125;-3.5;0.0625
185359;0.0;-0.33;9.56;-0.5625;-2.9375;0.625
185359;0.08;-0.31;9.53;0.5;-1.375;-0.3125
185359;0.15;-0.24;9.59;0.8125;-1.5625;-0.5
185359;0.19;-0.21;9.58;0.75;0.0;-1.25
185359;-0.07;-0.21;9.42;0.5625;0.8125;-1.3125
185359;0.07;-0.27;9.8;1.0625;1.9375;-2.25
185359;0.03;-0.37;9.72;-0.1875;1.5625;-1.625
185400;-0.15;-0.33;9.62;-0.4375;1.5625;-0.375
185400;-0.08;-0.27;9.63;2.6875;0.125;-3.4375
185400;-0.04;-0.25;9.63;2.1875;-0.3125;-3.375
185400;-0.09;-0.18;9.61;1.4375;-0.3125;-2.3125
185400;-0.01;-0.2;9.45;1.625;0.4375;-1.9375
185400;0.0;-0.15;9.57;1.5;-0.375;-0.5625
185400;-0.02;-0.08;9.55;1.0;0.6875;0.0625
185400;-0.09;-0.03;9.53;-0.375;0.875;0.5625
185400;-0.06;-0.04;9.56;-0.375;0.0625;0.5
185400;0.03;-0.22;9.59;-0.875;-0.125;-0.9375
185400;0.03;-0.22;9.56;-0.5625;0.3125;-0.625
185400;-0.02;-0.22;9.58;-0.5;0.25;-0.5
185400;0.0;-0.13;9.56;0.5;-0.3125;-0.125
185400;0.01;-0.11;9.53;-0.1875;-0.3125;-0.0625
185400;-0.01;-0.15;9.52;-0.625;0.1875;0.0
185400;-0.02;-0.16;9.5;-0.5625;0.1875;-0.25
185400;-0.16;-0.2;9.44;-0.125;-0.125;0.75
185400;-0.09;-0.16;9.48;0.0625;0.3125;0.6875
185400;0.0;-0.17;9.52;-0.0625;-0.0625;0.5
185400;0.0;-0.17;9.51;-0.125;0.25;0.1875
185400;-0.17;-0.13;9.53;-1.5;1.625;-0.5
185401;-0.12;-0.13;9.55;-1.25;0.875;-0.5
185401;0.0;-0.15;9.58;-1.0;0.375;-0.5625
185401;-0.06;-0.13;9.41;-1.1875;0.5;-0.5
185401;-0.03;-0.12;9.54;-1.3125;0.0625;0.6875
185401;-0.05;-0.16;9.56;-1.5;0.0;0.875
185401;-0.06;-0.17;9.5;-1.3125;0.0;0.875
185401;-0.07;-0.18;9.51;-1.3125;0.625;1.6875
185401;-0.11;-0.22;9.54;-1.125;0.5625;1.625
185401;-0.18;-0.28;9.53;-0.875;0.25;1.5625
185401;-0.16;-0.3;9.54;-1.5;-0.3125;1.25
185401;-0.02;-0.3;9.48;-3.25;-0.5625;2.5
185401;0.0;-0.32;9.42;-2.8125;0.875;2.0625
185401;0.0;-0.37;9.38;-2.0;1.375;1.5
185401;-0.05;-0.34;9.38;-0.6875;1.875;1.125
185401;-0.14;-0.42;9.42;-0.6875;0.875;-1.3125
185401;-0.23;-0.41;9.47;0.625;0.4375;-1.625
185401;-0.25;-0.41;9.47;1.0625;0.0625;-1.75
185401;-0.24;-0.36;9.53;1.0625;-0.1875;-1.625
185401;-0.07;-0.1;9.51;0.3125;0.3125;-0.3125
185401;-0.2;-0.1;9.67;0.5;0.0;-0.3125
185401;-0.16;-0.17;9.67;-0.375;-0.375;-0.375
185402;-0.14;-0.42;9.5;-1.3125;-0.4375;-0.125
185402;-0.13;-0.41;9.52;-0.5;-0.625;0.125
185402;-0.16;-0.32;9.65;0.0625;-0.5;0.25
185402;-0.11;-0.34;9.6;-0.5625;-0.4375;0.3125
185402;-0.08;-0.21;9.45;0.3125;-0.5625;-0.75
185402;-0.12;-0.28;9.46;0.5625;-0.3125;-0.875
185402;-0.21;-0.27;9.45;1.0625;-0.125;-0.75
185402;-0.08;-0.22;9.6;-0.75;0.4375;0.625
185402;-0.08;-0.3;9.48;-1.25;1.3125;0.9375
185402;-0.1;-0.29;9.49;-1.125;1.4375;0.6875
185402;-0.13;-0.32;9.44;-0.625;0.875;0.5625
185402;-0.19;-0.28;9.58;0.125;0.1875;0.125
185402;-0.11;-0.3;9.53;0.375;-0.25;0.1875
185402;-0.18;-0.24;9.51;0.625;-0.25;0.3125
185402;-0.11;-0.24;9.52;1.0625;-0.375;0.4375
185402;-0.2;-0.24;9.58;-0.1875;-0.25;-0.25
185402;-0.22;-0.23;9.6;-0.6875;-0.4375;-0.25
185402;-0.29;-0.23;9.57;-0.6875;-0.5625;-0.0625
185402;-0.31;-0.25;9.57;-0.1875;-1.4375;0.0625
185402;-0.14;-0.21;9.45;-0.25;0.0625;0.1875
185403;-0.14;-0.2;9.5;-0.5;0.3125;0.25
185403;-0.12;-0.25;9.51;-0.8125;0.3125;0.5
185403;-0.19;-0.28;9.5;-0.6875;0.6875;-0.25
185403;-0.18;-0.3;9.52;-0.875;0.5;-0.1875
185403;-0.24;-0.28;9.6;0.0625;0.0625;0.0
185403;-0.18;-0.31;9.57;0.1875;0.0;0.0
185403;-0.24;-0.22;9.61;0.375;1.125;0.0625
185403;-0.26;-0.29;9.52;-0.75;0.6875;0.0
185403;-0.27;-0.32;9.51;-0.6875;0.5625;-0.3125
185403;-0.27;-0.24;9.53;-0.4375;0.625;-0.1875
185403;-0.17;-0.29;9.57;-0.1875;-0.5625;0.0
185403;-0.27;-0.29;9.54;0.3125;-0.875;0.0
185403;-0.26;-0.29;9.54;0.4375;-1.1875;-0.125
185403;-0.22;-0.23;9.59;0.6875;-1.9375;-0.0625
185403;-0.21;-0.25;9.51;0.875;-2.1875;0.0625
185403;-0.16;-0.21;9.6;1.0;-2.0;0.25
185403;-0.17;-0.22;9.55;1.0;-1.6875;0.125
185403;-0.15;-0.27;9.54;0.5;-1.0;0.0625
185403;-0.14;-0.23;9.55;0.5625;-1.125;0.0
185403;-0.18;-0.2;9.54;0.5;-1.125;-0.0625
185403;-0.19;-0.21;9.55;0.1875;-1.4375;-0.1875
185404;-0.11;-0.18;9.5;0.5625;-1.625;-0.125
185404;-0.11;-0.15;9.56;0.5;-1.3125;0.0625
185404;-0.1;-0.17;9.55;0.5;-1.0;-0.0625
185404;-0.14;-0.2;9.5;0.5;-1.25;-0.0625
185404;-0.06;-0.15;9.53;0.0;-1.1875;0.1875
185404;-0.12;-0.19;9.52;-0.0625;-0.875;0.125
185404;-0.12;-0.24;9.49;0.0;-0.625;0.0
185404;-0.12;-0.2;9.51;0.0;-0.4375;-0.3125
185404;-0.1;-0.21;9.51;-0.0625;-0.5;-0.3125
185404;-0.1;-0.19;9.5;-0.25;0.0;-0.3125
185404;-0.11;-0.2;9.49;-0.0625;0.0;-0.375
185404;-0.08;-0.21;9.53;-0.6875;0.3125;0.125
185404;-0.08;-0.19;9.51;-0.6875;0.4375;0.25
185404;-0.06;-0.17;9.58;-0.6875;0.375;0.0
185404;-0.26;-0.15;9.5;0.0;0.3125;0.0
185404;-0.21;-0.15;9.52;0.125;0.0625;0.1875
185404;-0.18;-0.17;9.54;0.8125;-0.3125;0.25
185404;-0.17;-0.22;9.55;1.1875;-0.5;0.375
185404;-0.16;-0.17;9.44;-0.375;0.5;0.125
185404;-0.19;-0.18;9.49;-0.6875;0.25;0.1875
185404;-0.13;-0.21;9.55;-0.625;-1.125;0.125
185405;-0.1;-0.23;9.57;-0.4375;-1.375;0.1875
185405;-0.13;-0.17;9.49;0.0;0.125;-0.1875
185405;-0.11;-0.19;9.51;-0.0625;-0.0625;-0.125
185405;-0.09;-0.21;9.51;0.125;-0.4375;-0.125
185405;0.01;-0.17;9.6;-0.5;-0.25;-0.125
185405;0.0;-0.14;9.56;-0.6875;0.625;-0.0625
185405;-0.08;-0.2;9.5;-0.75;1.125;-0.0625
185405;-0.12;-0.2;9.47;-0.5625;0.8125;0.0625
185405;-0.08;-0.21;9.55;-0.0625;-0.5625;0.0
185405;-0.08;-0.21;9.56;-0.4375;0.0625;0.0
185405;-0.09;-0.2;9.57;-0.625;0.3125;0.125
185405;-0.06;-0.21;9.58;-0.5;0.125;0.1875
185405;-0.14;-0.23;9.5;-0.125;0.0625;-0.1875
185405;-0.19;-0.23;9.55;-0.3125;-0.1875;-0.1875
185405;-0.17;-0.23;9.54;-0.6875;-0.0625;-0.0625
185405;-0.18;-0.21;9.5;-0.75;0.6875;0.125
185405;-0.27;-0.27;9.47;-0.8125;0.25;0.25
185405;-0.28;-0.28;9.47;-0.5;-0.1875;0.25
185405;-0.26;-0.25;9.57;-0.5;-0.875;0.3125
185405;-0.21;-0.22;9.48;-1.0625;0.5;0.3125
185406;-0.31;-0.25;9.48;-1.125;0.5625;0.3125
185406;-0.27;-0.23;9.52;-0.875;-0.1875;0.3125
185406;-0.18;-0.24;9.56;-0.5625;-0.125;0.375
185406;-0.19;-0.25;9.46;-0.75;1.0625;0.3125
185406;-0.18;-0.24;9.44;-0.5625;0.625;0.375
185406;-0.23;-0.25;9.45;-0.3125;0.5625;0.1875
185406;-0.23;-0.3;9.37;-0.0625;0.8125;0.3125
185406;-0.27;-0.32;9.54;-0.3125;-0.3125;-0.375
185406;-0.22;-0.31;9.54;0.3125;-0.6875;-0.125
185406;-0.2;-0.29;9.52;0.875;-0.875;-0.375
185406;-0.19;-0.22;9.54;0.75;-1.4375;0.4375
185406;-0.23;-0.21;9.48;0.375;-1.1875;0.5
185406;-0.21;-0.2;9.48;0.1875;-1.75;0.5
185406;-0.2;-0.21;9.52;0.5;-2.125;0.5
185406;-0.14;-0.22;9.52;0.9375;-1.5625;-0.0625
185406;-0.12;-0.2;9.53;1.0;-1.625;-0.0625
185406;-0.12;-0.23;9.5;1.0;-1.5;-0.125
185406;-0.1;-0.16;9.53;0.3125;-1.5;0.0
185406;-0.11;-0.18;9.54;0.0625;-1.125;-0.125
185406;-0.1;-0.14;9.56;0.1875;-1.0625;-0.0625
185406;-0.11;-0.18;9.52;0.3125;-0.8125;-0.125
185407;-0.11;-0.19;9.51;0.25;-0.75;0.125
185407;-0.1;-0.17;9.54;0.3125;-0.5;0.25
185407;-0.08;-0.17;9.51;0.375;-0.4375;0.125
185407;-0.06;-0.17;9.51;0.125;0.0625;0.0
185407;-0.01;-0.16;9.55;-0.3125;0.8125;-0.375
185407;-0.02;-0.17;9.55;-0.6875;0.9375;-0.3125
185407;-0.07;-0.18;9.53;-0.8125;0.875;-0.1875
185407;-0.16;-0.18;9.55;-0.1875;0.125;0.0625
185407;-0.2;-0.18;9.48;0.375;-0.375;-0.4375
185407;-0.13;-0.17;9.5;0.5;-0.6875;-0.625
185407;-0.18;-0.17;9.5;0.3125;-0.5625;-0.3125
185407;-0.12;-0.16;9.55;-0.5;0.5625;-0.125
185407;-0.1;-0.18;9.56;-0.75;-0.4375;-0.3125
185407;-0.11;-0.17;9.58;-0.5;-0.0625;-0.375
185407;-0.06;-0.16;9.5;-0.25;0.4375;-0.375
185407;-0.15;-0.2;9.53;0.375;-0.75;0.375
185407;-0.09;-0.17;9.5;0.25;0.0;0.3125
185407;-0.05;-0.21;9.49;-0.625;0.875;0.1875
185407;-0.11;-0.23;9.5;-0.625;0.8125;0.0
185407;-0.07;-0.13;9.58;-0.375;0.9375;0.25
185408;-0.11;-0.17;9.57;-1.0625;1.125;-0.0625
185408;-0.19;-0.19;9.49;-1.5625;0.75;0.0625
185408;-0.13;-0.22;9.52;-0.5625;0.875;0.5
185408;-0.13;-0.2;9.49;-0.5;1.125;0.3125
185408;-0.15;-0.23;9.53;-0.4375;0.375;-0.1875
185408;-0.13;-0.25;9.52;-1.0;0.625;-0.0625
185408;-0.23;-0.22;9.56;-0.125;0.875;-0.25
185408;-0.22;-0.25;9.53;-0.1875;0.25;-0.375
185408;-0.23;-0.19;9.53;-0.1875;0.25;-0.375
185408;-0.17;-0.17;9.59;-0.1875;-0.0625;-0.25
185408;-0.2;-0.2;9.57;-0.875;0.125;0.0
185408;-0.19;-0.24;9.56;-0.75;0.25;-0.125
185408;-0.23;-0.27;9.55;-0.6875;0.375;-0.125
185408;-0.25;-0.22;9.51;0.4375;-0.375;-0.0625
185408;-0.21;-0.23;9.51;0.0625;-0.125;0.0625
185408;-0.19;-0.22;9.5;-0.1875;-0.1875;0.125
185408;-0.21;-0.23;9.49;-0.375;0.1875;-0.0625
185408;-0.25;-0.22;9.44;-0.3125;0.125;0.1875
185408;-0.27;-0.22;9.52;-0.375;-0.0625;0.3125
185408;-0.25;-0.25;9.55;-0.4375;0.0625;0.125
185408;-0.25;-0.25;9.53;-0.375;0.125;0.0625
185409;-0.2;-0.25;9.54;-0.625;0.1875;0.0625
185409;-0.25;-0.27;9.5;-0.4375;0.5;-0.125
185409;-0.29;-0.29;9.48;0.1875;0.3125;-0.0625
185409;-0.31;-0.2;9.53;-0.375;0.25;0.3125
185409;-0.29;-0.22;9.54;-0.4375;0.125;0.0625
185409;-0.27;-0.24;9.53;-0.125;-0.4375;0.125
185409;-0.28;-0.22;9.56;0.25;-0.5625;0.125
185409;-0.33;-0.21;9.51;0.8125;-1.5;0.0625
185409;-0.23;-0.2;9.54;0.625;-1.625;-0.25
185409;-0.22;-0.22;9.56;0.6875;-1.75;-0.0625
185409;-0.2;-0.22;9.55;0.5625;-1.4375;-0.1875
185409;-0.18;-0.17;9.53;1.1875;-1.8125;0.0
185409;-0.13;-0.18;9.52;1.5625;-1.6875;0.0
185409;-0.19;-0.16;9.53;1.375;-1.5;0.125
185409;-0.17;-0.16;9.53;0.625;-1.5;0.0625
185409;-0.15;-0.17;9.54;0.625;-1.5;-0.0625
185409;-0.15;-0.17;9.52;0.625;-1.125;0.0
185409;-0.16;-0.18;9.51;0.6875;-1.1875;-0.0625
185409;-0.12;-0.13;9.52;0.875;-1.5625;-0.1875
185409;-0.2;-0.12;9.56;0.8125;-1.625;0.0
185409;-0.16;-0.13;9.52;0.75;-1.5;-0.125
185410;-0.07;-0.15;9.55;0.625;-1.4375;-0.125
185410;-0.15;-0.17;9.48;-0.25;-0.0625;0.125
185410;-0.13;-0.16;9.5;-0.0625;0.0;0.125
185410;-0.15;-0.14;9.55;0.375;-0.4375;-0.0625
185410;-0.07;-0.13;9.5;-0.1875;0.625;0.25
185410;-0.06;-0.11;9.51;-0.25;0.8125;0.1875
185410;-0.15;-0.12;9.43;-0.75;0.9375;0.375
185410;-0.11;-0.12;9.45;-1.0625;0.875;0.25
185410;-0.12;-0.16;9.54;-0.9375;0.4375;0.1875
185410;-0.14;-0.15;9.55;-0.875;0.5;0.125
185410;-0.11;-0.14;9.56;-0.75;0.25;0.0625
185410;-0.12;-0.13;9.52;-0.3125;0.125;-0.0625
185410;-0.15;-0.14;9.55;-0.8125;0.6875;0.0625
185410;-0.1;-0.11;9.57;-0.9375;0.875;0.125
185410;-0.13;-0.12;9.57;-1.0625;1.0625;0.0625
185410;-0.18;-0.16;9.52;-1.0625;1.1875;0.125
185410;-0.18;-0.19;9.51;-1.0;0.875;0.125
185410;-0.17;-0.17;9.5;-0.625;1.0;0.0625
185410;-0.16;-0.2;9.52;-0.625;0.6875;0.125
185410;-0.18;-0.17;9.51;-0.625;0.9375;0.0
185410;-0.26;-0.19;9.51;-0.6875;0.625;0.0
185411;-0.23;-0.18;9.52;-0.75;0.375;0.0625
185411;-0.2;-0.18;9.56;-0.75;0.5625;0.1875
185411;-0.2;-0.2;9.5;-0.625;0.75;0.1875
185411;-0.16;-0.2;9.53;-0.5;0.4375;0.125
185411;-0.27;-0.2;9.48;-0.625;0.5;0.1875
185411;-0.23;-0.2;9.49;-0.625;0.25;0.0625
185411;-0.22;-0.21;9.53;-0.5;0.75;0.125
185411;-0.26;-0.22;9.56;-0.375;0.75;0.1875
185411;-0.26;-0.2;9.55;-0.4375;0.4375;0.1875
185411;-0.26;-0.18;9.52;-0.8125;1.25;0.375
185411;-0.24;-0.25;9.49;-0.8125;1.1875;0.3125
185411;-0.23;-0.21;9.5;-0.625;1.375;0.375
185411;-0.26;-0.21;9.52;-0.25;1.5625;0.4375
185411;-0.31;-0.21;9.47;-1.0625;1.5625;0.25
185411;-0.33;-0.23;9.49;-0.75;1.3125;0.25
185411;-0.31;-0.29;9.46;0.625;0.1875;0.25
185411;-0.35;-0.2;9.59;0.3125;-0.1875;0.125
185411;-0.22;-0.2;9.51;-0.25;-0.125;-0.0625
185411;-0.27;-0.19;9.5;0.0;-0.1875;0.0
185411;-0.32;-0.24;9.55;0.125;-0.875;-0.25
185412;-0.34;-0.24;9.55;0.125;-1.1875;0.0625
185412;-0.2;-0.22;9.58;0.875;-2.375;0.125
185412;-0.19;-0.18;9.58;0.75;-2.125;0.25
185412;-0.19;-0.17;9.53;0.625;-1.6875;0.3125
185412;-0.19;-0.17;9.56;0.5;-1.5625;-0.375
185412;-0.16;-0.17;9.55;0.6875;-1.75;-0.3125
185412;-0.18;-0.17;9.56;0.3125;-1.4375;-0.3125
185412;-0.22;-0.17;9.54;0.3125;-1.4375;-0.1875
185412;-0.12;-0.12;9.52;0.5;-1.125;0.0625
185412;-0.11;-0.13;9.53;0.1875;-0.9375;0.0625
185412;-0.12;-0.14;9.48;0.375;-0.75;0.125
185412;-0.13;-0.12;9.48;0.1875;-0.6875;0.125
185412;-0.13;-0.13;9.52;0.0625;-0.375;0.125
185412;-0.14;-0.13;9.52;0.1875;-0.625;0.125
185412;-0.12;-0.12;9.55;0.125;-0.625;0.1875
185412;-0.05;-0.09;9.53;-0.8125;0.25;0.125
185412;-0.09;-0.1;9.5;-0.75;1.0625;0.0625
185412;-0.11;-0.11;9.51;-0.6875;0.875;0.0
185412;-0.13;-0.12;9.49;-0.9375;0.6875;0.0
185412;-0.13;-0.17;9.5;-0.5;0.0625;0.1875
185412;-0.11;-0.15;9.52;-0.25;0.375;0.1875
185413;-0.12;-0.13;9.55;-0.375;0.25;0.3125
185413;-0.08;-0.15;9.51;-0.5625;0.4375;0.125
185413;-0.16;-0.14;9.52;-0.5625;0.6875;-0.1875
185413;-0.15;-0.15;9.54;-0.4375;0.5;-0.0625
185413;-0.16;-0.14;9.55;-0.5625;0.25;0.0625
185413;-0.19;-0.15;9.51;-0.6875;0.3125;0.125
185413;-0.18;-0.16;9.49;-0.75;0.5;0.125
185413;-0.19;-0.16;9.53;-0.75;0.375;0.0625
185413;-0.15;-0.12;9.52;-0.8125;0.3125;0.0625
185413;-0.16;-0.15;9.55;-0.125;0.0;-0.0625
185413;-0.17;-0.15;9.5;-0.3125;0.3125;0.0625
185413;-0.18;-0.18;9.54;-0.5;0.3125;-0.0625
185413;-0.21;-0.16;9.53;-0.5;0.0625;0.0625
185413;-0.17;-0.13;9.54;-0.6875;0.9375;0.0625
185413;-0.16;-0.16;9.51;-0.375;0.625;-0.0625
185413;-0.2;-0.16;9.5;-0.25;0.625;-0.1875
185413;-0.23;-0.19;9.53;-0.1875;0.625;-0.125
185413;-0.17;-0.19;9.54;-0.4375;0.4375;0.1875
185413;-0.19;-0.18;9.54;-0.125;0.5;0.25
185413;-0.17;-0.19;9.52;0.0;0.375;0.125
185413;-0.21;-0.18;9.52;-0.3125;0.4375;-0.25
185414;-0.22;-0.17;9.53;-0.25;0.25;0.125
185414;-0.23;-0.18;9.55;-0.1875;0.1875;0.0
185414;-0.24;-0.19;9.55;-0.5625;0.4375;0.3125
185414;-0.25;-0.17;9.5;-0.6875;1.25;0.0625
185414;-0.24;-0.18;9.54;-0.6875;1.25;0.125
185414;-0.26;-0.2;9.5;-0.5625;1.0625;0.0625
185414;-0.25;-0.2;9.51;-0.5;0.9375;-0.0625
185414;-0.27;-0.2;9.53;-0.125;0.125;0.0
185414;-0.27;-0.19;9.52;-0.125;0.375;0.0625
185414;-0.27;-0.2;9.54;-0.125;0.125;-0.125
185414;-0.26;-0.21;9.55;-0.0625;-0.25;0.0
185414;-0.18;-0.18;9.54;-0.0625;-1.375;-0.125
185414;-0.21;-0.16;9.59;0.4375;-1.375;0.0625
185414;-0.22;-0.14;9.54;0.4375;-1.25;0.0
185414;-0.2;-0.17;9.58;0.875;-2.375;-0.1875
185414;-0.18;-0.22;9.53;1.125;-2.3125;-0.0625
185414;-0.16;-0.15;9.56;1.0625;-2.25;-0.0625
185414;-0.14;-0.18;9.52;0.9375;-2.0;-0.0625
185414;-0.17;-0.13;9.51;0.3125;-1.125;-0.1875
185414;-0.17;-0.15;9.52;0.4375;-1.4375;-0.125
185415;-0.13;-0.15;9.54;0.625;-1.75;-0.0625
185415;-0.11;-0.11;9.55;1.1875;-1.375;-0.125
185415;-0.09;-0.12;9.52;0.75;-0.875;-0.0625
185415;-0.09;-0.11;9.52;0.5625;-0.8125;0.0625
185415;-0.1;-0.09;9.54;0.6875;-0.8125;0.0
185415;-0.06;-0.09;9.55;0.5625;-0.8125;-0.0625
185415;-0.11;-0.09;9.54;0.5;-0.4375;0.0
185415;-0.09;-0.07;9.5;0.25;-0.6875;0.0
185415;-0.1;-0.06;9.52;0.125;-0.75;-0.0625
185415;-0.08;-0.12;9.48;-0.0625;-0.375;-0.0625
185415;-0.05;-0.09;9.53;-0.3125;-0.3125;0.0
185415;0.0;-0.09;9.57;-0.0625;-0.3125;-0.125
185415;-0.12;-0.1;9.57;-1.0;0.375;-0.1875
185415;-0.11;-0.11;9.61;-0.75;0.0;-0.125
185415;-0.09;-0.1;9.55;-0.5;-0.0625;-0.1875
185415;-0.07;-0.11;9.56;0.0625;0.0625;-0.25
185415;-0.11;-0.11;9.53;-0.6875;0.375;-0.0625
185415;-0.1;-0.13;9.5;-0.9375;0.875;-0.1875
185415;-0.12;-0.13;9.52;-0.9375;0.8125;-0.25
185415;-0.15;-0.12;9.49;-0.5625;0.5625;-0.25
185415;-0.14;-0.12;9.53;-0.1875;0.625;0.0625
185416;-0.11;-0.12;9.53;-0.25;0.625;0.0
185416;-0.1;-0.11;9.55;-0.6875;0.8125;0.0625
185416;-0.18;-0.12;9.56;-0.5625;0.625;0.0
185416;-0.15;-0.12;9.57;-0.5;0.4375;-0.0625
185416;-0.17;-0.12;9.58;-0.375;0.25;0.0
185416;-0.13;-0.12;9.53;-0.25;0.4375;0.0625
185416;-0.22;-0.17;9.52;-0.375;0.25;-0.1875
