timestamp;acc_x;acc_y;acc_z;gyro_x;gyro_y;gyro_z
191001;9.02;0.09;-3.53;-0.875;-1.6875;-4.875
191001;8.95;0.05;-3.49;-1.0;-1.9375;-4.5
191001;8.96;0.03;-3.48;-0.25;-1.9375;-4.5
191001;9.34;0.33;-3.52;6.6875;-0.8125;-2.0
191001;9.16;0.59;-3.54;5.5;-1.1875;-3.0
191001;9.17;0.64;-3.53;4.3125;-1.8125;-3.375
191001;9.25;0.33;-3.52;4.0625;-1.5;-4.0
191001;9.04;0.27;-3.34;5.3125;-7.5625;-1.4375
191001;9.06;0.21;-3.26;5.5;-8.1875;-1.3125
191001;9.08;0.19;-3.28;6.25;-7.75;-0.5625
191001;9.39;0.11;-2.84;7.625;-0.375;2.9375
191001;9.39;0.09;-2.86;8.8125;0.75;4.6875
191001;9.55;0.04;-2.86;9.375;1.1875;5.25
191001;9.47;0.05;-2.99;10.125;1.75;5.8125
191001;9.93;0.03;-2.72;18.375;6.875;-1.8125
191001;9.82;0.23;-3.05;22.6875;9.75;-3.625
191001;9.97;0.68;-3.37;21.75;7.5625;-4.1875
191001;8.44;-0.82;-3.78;41.125;10.25;-4.6875
191001;8.37;-0.01;-3.85;39.8125;8.0625;-5.5625
191001;8.2;0.39;-4.04;36.6875;7.3125;-6.0625
191001;8.19;0.2;-4.11;29.1875;5.5;-6.6875
191001;9.2;-1.06;-3.54;5.8125;4.9375;11.6875
191001;9.17;-1.22;-3.37;6.9375;6.0;12.25
191001;9.11;-1.4;-3.36;8.5;5.375;11.4375
191002;8.99;-1.0;-2.72;6.875;-0.1875;2.5625
191002;9.09;-1.06;-2.74;4.5;-0.5625;2.125
191002;9.09;-1.15;-2.81;4.125;-1.0625;1.8125
191002;9.11;-1.23;-2.71;4.8125;-1.8125;2.3125
191002;9.29;-1.41;-2.29;-18.5;-2.0625;-2.75
191002;9.22;-1.19;-2.08;-17.25;-0.6875;-3.0
191002;9.27;-1.02;-2.06;-17.625;-0.125;-3.5
191002;11.91;-1.95;-4.42;-13.3125;7.4375;2.0
191002;11.88;-1.97;-4.78;-8.9375;15.5625;1.375
191002;11.91;-1.86;-5.3;-3.875;16.125;1.0625
191002;11.68;-1.65;-4.58;2.125;15.0;2.375
191002;8.58;-1.68;-3.82;-20.125;0.375;10.3125
191002;8.61;-1.89;-3.61;-7.9375;0.375;7.6875
191002;9.14;-1.94;-3.35;9.75;-2.1875;-0.1875
191002;8.71;0.37;-3.07;3.4375;-3.875;-7.8125
191002;9.0;0.12;-3.14;3.5625;-6.875;-7.5625
191002;9.31;-0.02;-3.1;4.4375;-8.0;-7.75
191002;9.29;-0.15;-3.1;6.75;-8.0625;-7.4375
191002;9.13;0.75;-2.29;8.6875;-5.75;-4.25
191002;9.08;0.65;-2.36;8.0625;-6.5625;-2.625
191002;9.07;0.36;-2.54;9.1875;-7.8125;0.25
191003;9.08;-0.03;-2.47;11.125;-8.1875;2.1875
191003;9.39;0.26;-2.29;14.3125;1.9375;1.875
191003;9.71;0.09;-1.95;15.625;3.8125;-1.1875
191003;10.08;-0.13;-1.8;16.75;5.5;-3.4375
191003;10.22;-0.18;-1.74;22.125;10.125;-7.625
191003;8.09;-1.21;-3.59;-2.0625;20.375;0.5625
191003;6.72;-1.86;-3.5;22.875;14.625;5.125
191003;6.43;-2.02;-3.34;35.625;8.6875;4.9375
191003;8.87;-0.98;-3.41;-5.375;7.625;15.4375
191003;7.98;-1.14;-3.16;1.4375;7.375;15.9375
191003;7.51;-1.17;-2.75;11.8125;2.375;15.625
191003;7.63;-1.07;-2.35;13.8125;-3.375;14.9375
191003;8.96;-0.32;-2.37;-1.0625;-9.0625;1.75
191003;9.24;-0.26;-2.4;-5.625;-10.375;1.875
191003;9.29;-0.31;-2.38;-7.1875;-9.875;1.375
191003;9.92;-0.73;-1.83;-12.875;-2.8125;-3.625
191003;10.68;-0.47;-1.4;-17.4375;4.125;-4.3125
191003;10.7;-0.37;-1.37;-17.625;6.375;-2.8125
191003;10.52;-0.14;-1.19;-18.625;9.4375;0.0625
191003;9.83;-0.51;-1.96;10.25;7.3125;9.8125
191004;8.78;0.36;-2.34;-2.6875;11.9375;3.5
191004;8.56;0.83;-2.55;-13.1875;6.25;2.3125
191004;10.4;-1.52;-3.04;22.375;-1.4375;-7.0
191004;10.1;-0.44;-2.65;12.6875;1.75;-13.625
191004;9.8;0.03;-2.64;5.625;3.625;-15.1875
191004;8.5;1.2;-2.84;-3.8125;5.8125;-13.4375
191004;8.52;-0.12;-2.69;0.5625;-7.0625;-3.1875
191004;8.62;-0.12;-2.72;4.125;-8.875;-3.5625
191004;8.88;-0.03;-2.68;5.75;-9.5625;-3.1875
191004;9.11;0.05;-2.55;7.375;-9.5625;-2.3125
191004;9.14;0.16;-2.82;12.875;-10.6875;2.9375
191004;9.52;0.0;-2.82;13.125;-9.0625;3.375
191004;9.91;-0.15;-2.2;16.375;-2.5625;0.875
191004;11.4;0.99;-6.33;3.625;-0.6875;-10.0
191004;11.21;-0.16;-5.84;-1.0;-1.5;-9.3125
191004;10.26;-1.09;-4.46;0.8125;3.0;-8.0625
191004;8.66;-2.15;-3.45;12.25;15.5625;-4.625
191004;9.48;-0.8;-3.76;-23.1875;8.5;15.375
191004;8.61;-1.28;-3.35;-17.375;8.25;16.5
191004;7.74;-1.39;-3.11;-6.625;5.5;17.0625
191005;8.66;-1.01;-2.4;-6.5625;-2.3125;4.375
191005;8.73;-0.93;-2.38;-5.5625;-4.25;4.0
191005;8.9;-0.76;-2.37;-5.375;-5.25;3.5
191005;9.13;-0.52;-2.38;-6.25;-8.1875;2.625
191005;9.67;-0.35;-1.62;-31.0;-4.375;-3.375
191005;9.97;-0.06;-1.15;-32.625;-0.25;-4.0625
191005;10.17;0.02;-0.98;-36.3125;6.6875;-3.1875
191005;9.36;-1.98;-3.76;20.8125;0.4375;11.125
191005;8.93;-0.74;-2.74;20.375;0.375;11.5625
191005;8.4;0.65;-2.62;12.0625;2.6875;10.0
191005;7.79;1.67;-3.53;-10.8125;1.3125;8.5
191005;11.31;-0.27;-3.11;9.4375;5.9375;-6.5625
191005;8.56;0.49;-3.13;4.0625;9.375;-8.25
191005;8.15;0.71;-3.17;-2.8125;3.625;-8.25
191005;7.82;0.88;-3.18;-2.5625;0.5;-7.4375
191005;8.91;-0.26;-3.09;4.4375;-11.9375;-3.8125
191005;9.04;-0.14;-3.08;6.3125;-11.375;-3.1875
191005;9.09;0.0;-2.89;9.125;-9.0;-1.3125
191005;9.19;0.32;-2.66;10.625;0.25;5.0625
191005;9.38;0.4;-2.63;10.375;0.0625;5.0
191005;9.56;0.36;-2.43;10.5625;2.0;1.6875
191006;10.22;-0.12;-1.95;11.25;4.4375;-1.0625
191006;10.6;-0.33;-6.16;-28.0;-9.375;-26.0625
191006;10.02;-1.29;-5.55;-22.625;-1.6875;-21.9375
191006;8.17;-2.99;-4.5;9.8125;15.3125;-10.3125
191006;8.95;-1.0;-3.71;-18.625;3.5625;6.25
191006;8.23;-1.09;-3.3;-10.8125;2.5625;7.625
191006;7.99;-1.06;-3.19;-0.8125;0.3125;13.0625
191006;7.55;-0.94;-3.0;1.3125;-0.75;15.5625
191006;8.99;-0.49;-2.26;-4.5;-2.25;1.8125
191006;8.95;-0.37;-2.22;-6.6875;-2.5;1.0625
191006;8.89;-0.1;-2.18;-10.3125;-4.4375;-0.25
191006;8.84;-0.04;-2.24;-12.125;-5.4375;-0.5625
191006;10.54;0.12;-0.99;-21.25;8.5625;-7.6875
191006;10.62;0.37;-0.74;-27.25;15.8125;-3.375
191006;10.46;0.46;-1.19;-31.4375;18.75;-2.1875
191006;7.87;1.08;-2.4;-8.875;17.375;25.0
191006;7.33;1.8;-2.6;-33.0625;18.25;17.75
191006;6.82;2.57;-3.4;-38.375;11.75;14.75
191006;8.06;1.42;-4.01;-49.125;0.6875;7.4375
191006;7.99;0.65;-2.86;4.4375;-0.5625;-9.3125
191007;7.86;0.57;-3.02;4.4375;-6.9375;-7.5625
191007;7.92;0.5;-2.86;6.8125;-8.75;-7.4375
191007;8.78;-0.03;-2.22;7.3125;-5.375;-3.375
191007;8.87;-0.09;-2.15;11.625;-5.375;-2.3125
191007;8.62;0.02;-1.87;13.0625;-5.125;-0.8125
191007;8.56;0.16;-1.87;15.25;-6.1875;1.875
191007;11.16;-0.01;-0.9;8.4375;7.8125;-6.5625
191007;11.4;-0.66;-1.05;14.5;23.0625;-11.75
191007;10.97;-0.5;-1.86;21.625;26.75;-11.875
191007;8.88;-2.77;-3.05;62.3125;8.4375;-0.875
191007;9.15;-2.09;-2.51;61.8125;10.375;3.3125
191007;9.69;0.57;-1.45;49.5;10.8125;3.9375
191007;9.68;0.99;-1.74;11.125;3.75;0.875
191007;7.98;-0.94;-1.92;10.375;-4.125;13.8125
191007;8.11;-0.87;-1.94;2.0625;-1.8125;11.625
191007;8.25;-0.94;-2.17;-1.375;-2.5;10.4375
191007;8.55;-0.96;-2.2;-4.875;-5.25;8.1875
191007;8.8;-0.38;-1.46;-16.9375;-2.6875;-2.6875
191007;8.68;-0.56;-1.48;-18.3125;-0.875;-4.25
191007;8.74;-0.75;-1.54;-16.375;1.875;-5.5
191008;11.04;0.41;-0.77;-30.75;6.8125;3.3125
191008;10.82;-0.25;-1.64;-30.1875;8.1875;7.8125
191008;11.26;-1.2;-2.65;-27.5625;6.1875;10.4375
191008;11.87;-1.35;-3.23;-18.625;1.0;15.0625
191008;8.61;0.07;-5.53;-50.5625;-11.125;9.5625
191008;9.3;-1.14;-5.61;-42.4375;-13.3125;7.4375
191008;9.58;-1.94;-4.87;-12.875;-11.375;5.8125
191008;7.76;0.48;-2.86;1.625;-5.9375;-10.25
191008;8.32;-0.02;-2.82;8.375;-8.125;-12.875
191008;8.55;-0.15;-2.67;10.3125;-8.1875;-13.75
191008;8.72;-0.02;-2.48;10.8125;-7.625;-12.4375
191008;8.69;-0.36;-2.22;21.9375;-2.0625;4.0
191008;8.66;-0.65;-1.96;23.625;-1.375;4.25
191008;8.66;-0.61;-1.95;24.6875;-1.75;4.5625
191008;10.43;-1.19;-0.85;38.25;30.0;-10.25
191008;10.02;2.06;-1.6;36.0;26.0625;-12.6875
191008;10.27;2.69;-2.16;24.625;19.5;-16.4375
191008;9.17;-0.05;-1.71;44.375;14.9375;-0.75
191008;9.49;0.57;-2.1;16.4375;4.6875;-2.75
191008;10.76;0.9;-3.04;2.4375;-2.625;-2.9375
191009;10.8;0.73;-3.22;-13.375;-4.125;2.9375
191009;8.35;-1.03;-2.13;1.625;-5.9375;12.0
191009;8.64;-1.06;-2.17;-2.75;-6.4375;10.125
191009;8.71;-1.09;-2.12;-3.9375;-6.9375;8.9375
191009;8.98;-1.07;-1.91;-5.125;-7.9375;6.3125
191009;8.93;-0.58;-1.49;-10.75;-5.1875;-4.25
191009;9.24;-1.02;-1.59;-9.875;-5.875;-3.5625
191009;9.29;-0.95;-1.66;-9.5625;-7.125;-3.5625
191009;11.4;-1.59;-1.72;-22.375;5.1875;6.875
191009;12.54;-2.13;-3.14;-18.75;6.8125;13.0
191009;12.14;-1.97;-3.77;-18.6875;8.9375;14.8125
191009;11.67;-2.42;-6.21;-10.1875;7.125;12.0
191009;9.43;-1.74;-4.74;-22.5;-19.625;4.5
191009;9.77;-1.74;-4.15;-4.9375;-20.5625;5.0
191009;9.88;-1.59;-3.79;22.375;-18.0625;1.0
191009;8.14;0.48;-2.25;14.875;-16.1875;-13.375
191009;8.44;0.36;-2.53;14.5625;-13.75;-12.5625
191009;8.53;0.33;-2.57;13.6875;-12.75;-11.25
191009;8.57;0.47;-2.53;11.875;-12.25;-8.1875
191009;8.94;0.11;-1.67;16.8125;-0.8125;8.1875
191010;8.86;0.19;-1.76;16.4375;-0.5;7.75
191010;8.92;0.32;-1.84;14.5;-1.8125;6.0
191010;10.31;0.17;-2.34;39.4375;22.0625;-12.125
191010;10.85;2.78;-3.6;14.75;4.6875;-20.3125
191010;11.33;2.78;-4.13;2.875;-2.5625;-24.125
191010;10.93;1.41;-6.66;-11.3125;-12.75;-26.1875
191010;9.71;1.51;-2.81;-24.0625;-6.5;1.125
191010;10.13;0.4;-4.22;-29.3125;-9.1875;3.5
191010;10.2;-0.21;-4.25;-23.625;-4.625;8.1875
191010;8.44;-0.97;-2.19;-9.4375;-4.1875;10.75
191010;8.35;-1.24;-2.18;-8.25;-2.4375;8.1875
191010;8.43;-1.27;-2.17;-7.25;-2.6875;6.75
191010;8.67;-1.07;-2.05;-8.0625;-4.5;4.75
191010;8.93;-0.58;-2.29;-22.125;-4.4375;-4.3125
191010;8.86;-0.72;-2.29;-20.25;-3.375;-5.75
191010;9.13;-1.08;-1.9;-18.875;2.875;-4.4375
191010;11.53;-1.62;-5.35;0.9375;16.5625;9.3125
191010;10.96;-1.51;-3.07;10.375;5.75;16.0625
191010;10.56;-0.71;-2.48;3.3125;9.125;17.125
191010;8.92;0.85;-3.54;-20.5625;11.4375;12.875
191011;10.26;-1.28;-2.87;22.3125;0.9375;-1.8125
191011;9.77;-0.84;-2.82;19.875;3.25;-2.8125
191011;9.31;-0.39;-2.78;10.5;-0.375;-6.5625
191011;8.27;0.19;-1.95;3.6875;-7.25;-5.5
191011;8.35;0.21;-2.14;1.1875;-5.75;-3.8125
191011;8.44;0.25;-2.17;1.5625;-5.5;-2.625
191011;8.79;0.3;-2.24;3.1875;-5.0625;-0.3125
191011;10.14;0.86;-1.53;5.625;1.875;2.5
191011;10.55;0.42;-1.27;7.25;5.625;1.0
191011;10.82;0.0;-1.11;15.6875;13.6875;-4.8125
191011;10.94;-0.85;-1.06;15.6875;13.6875;-4.8125
191011;8.41;-2.43;-3.98;6.6875;7.875;-16.3125
191011;8.1;-3.1;-3.38;20.375;13.5;-13.25
191011;8.32;-2.68;-2.29;46.4375;17.8125;-7.0625
191011;7.77;-1.3;-2.41;4.375;-2.25;9.5625
191011;7.72;-1.24;-2.24;8.375;-3.5;10.875
191011;7.73;-1.11;-2.11;9.125;-4.25;14.4375
191011;7.86;-0.68;-1.88;6.375;-4.375;15.625
191011;9.19;-0.48;-1.48;-14.75;-11.375;-1.9375
191011;9.25;-0.52;-1.34;-14.4375;-11.6875;-3.3125
191012;9.25;-0.33;-1.0;-13.3125;-11.6875;-4.125
191012;11.03;0.1;-0.4;-29.8125;17.5;-1.25
191012;10.93;0.05;-0.99;-33.375;17.875;-0.0625
191012;11.02;-0.55;-2.69;-32.0;8.9375;4.25
191012;12.05;-1.12;-3.57;-27.0;-1.0;7.1875
191012;7.77;1.39;-4.44;-50.6875;-7.4375;13.6875
191012;7.99;0.93;-5.04;-52.4375;-4.8125;10.8125
191012;8.74;-0.7;-5.18;-32.8125;-10.1875;4.875
191012;7.72;0.66;-2.76;2.1875;-5.875;-3.375
191012;7.81;0.59;-2.83;3.1875;-7.4375;-5.125
191012;7.97;0.45;-2.79;5.75;-8.9375;-6.875
191012;8.38;0.44;-2.57;6.5;-9.4375;-7.125
191012;9.23;-0.16;-1.9;13.375;-7.0625;9.0625
191012;9.05;-0.31;-1.7;15.5;-5.0625;9.75
191012;8.75;-0.2;-1.58;17.0625;-0.8125;10.0
191012;11.18;-0.04;-1.81;24.1875;25.6875;-13.5625
191012;11.12;0.4;-2.24;25.5;23.75;-14.25
191012;11.77;1.07;-4.39;14.9375;11.3125;-18.625
191012;11.74;0.98;-5.28;8.75;5.375;-20.0
191012;10.14;1.46;-2.59;8.25;-0.5625;1.3125
191013;10.51;1.31;-3.04;-9.0;-7.3125;1.0625
191013;10.51;0.35;-3.48;-31.75;-8.125;1.8125
191013;8.05;-0.71;-2.18;-6.0;-3.25;5.8125
191013;8.24;-0.82;-2.12;-7.875;-4.3125;4.1875
191013;8.57;-0.95;-2.08;-9.75;-4.125;1.6875
191013;8.8;-0.98;-2.06;-10.4375;-3.6875;0.9375
191013;9.52;-1.12;-1.95;-17.625;-3.125;-6.625
191013;9.68;-1.4;-2.17;-15.375;-2.75;-6.5
191013;9.83;-1.08;-1.78;-9.125;-2.6875;-5.9375
191013;12.62;-1.64;-4.27;-7.0625;3.1875;19.375
191013;12.53;-1.67;-5.21;-6.875;6.4375;18.0
191013;11.76;-2.06;-6.29;1.5625;8.125;14.5625
191013;11.14;-1.61;-4.69;13.125;2.5;15.8125
191013;9.65;-1.21;-3.18;19.6875;-4.5625;4.125
191013;9.76;-0.99;-2.69;25.5;-0.6875;2.375
191013;9.52;-0.9;-2.45;26.1875;4.6875;-1.8125
191013;9.18;-0.66;-2.54;22.1875;5.375;-4.8125
191013;8.37;0.43;-2.12;8.1875;-6.875;-6.375
191013;8.33;0.52;-2.22;3.0;-5.5;-4.6875
191013;8.38;0.49;-2.3;1.5625;-5.25;-4.25
191013;9.13;0.22;-2.0;18.4375;-0.75;1.25
191014;9.29;0.29;-2.21;17.25;-1.0;1.0
191014;9.55;0.06;-2.09;15.6875;-2.6875;1.0
191014;10.14;0.04;-1.28;17.75;2.0625;-0.125
191014;9.63;-0.66;-7.01;-6.875;-25.5625;-30.6875
191014;10.03;-1.72;-3.82;7.5625;-18.5;-24.9375
191014;10.3;-2.19;-2.52;17.75;-3.375;-20.5
191014;7.8;-1.1;-2.48;-11.375;0.5;17.125
191014;7.26;-1.1;-2.39;-5.3125;0.5625;16.625
191014;7.51;-1.12;-2.41;-2.125;0.5;16.8125
191014;7.95;-1.1;-2.59;3.5625;-1.1875;17.8125
191014;8.99;-0.51;-1.6;-5.9375;-6.875;0.1875
191014;9.01;-0.55;-1.41;-8.5625;-9.875;-0.9375
191014;9.0;-0.5;-1.18;-9.125;-10.125;-1.0
191014;11.17;-0.05;-0.39;-15.875;19.1875;-2.1875
191014;11.19;-0.5;-1.08;-20.875;20.5625;-0.375
191014;11.24;-0.9;-1.96;-20.3125;17.75;2.0
191014;12.54;-1.51;-3.54;-8.1875;6.625;6.875
191014;8.94;1.45;-5.18;-53.375;-13.4375;12.25
191014;9.23;0.06;-5.87;-52.9375;-11.8125;11.4375
191014;10.07;-0.96;-4.91;-24.75;-16.6875;7.5625
191015;7.05;0.82;-2.65;3.4375;-10.625;-4.75
191015;7.24;0.37;-2.46;4.125;-14.1875;-7.5
191015;7.45;0.14;-2.37;4.5;-15.125;-7.875
191015;8.41;0.03;-2.26;4.1875;-15.0;-7.625
191015;8.77;-0.55;-2.01;18.25;-5.9375;6.1875
191015;8.7;-0.71;-1.96;25.0625;-4.0625;5.6875
191015;8.7;-0.39;-1.91;27.8125;-3.9375;5.0
191015;10.05;1.86;-1.71;32.75;25.5;-16.1875
191015;10.12;2.1;-3.83;17.0625;17.0;-18.4375
191015;10.28;1.47;-5.1;12.375;11.0;-18.1875
191015;10.33;0.55;-7.84;15.0625;-8.6875;-14.4375
191015;11.32;0.74;-2.98;9.5;-0.5;5.875
191015;10.31;0.47;-2.91;-0.125;4.125;7.9375
191015;9.26;0.05;-2.68;-5.3125;7.5;7.9375
191015;8.48;-1.38;-1.98;-13.25;-3.125;8.875
191015;8.65;-1.25;-1.94;-13.4375;-4.375;9.1875
191015;8.98;-0.98;-1.8;-14.5;-4.5;8.25
191015;9.1;-0.56;-1.82;-18.5;-4.0625;4.8125
191015;8.72;-0.94;-1.82;-16.6875;-10.125;-1.8125
191015;8.8;-1.05;-2.29;-13.1875;-11.0;-4.375
191016;9.99;-0.98;-1.05;-11.125;-10.6875;-6.0625
191016;12.86;-2.18;-6.02;4.0;1.0625;15.625
191016;12.29;-1.95;-4.83;17.6875;3.375;14.4375
191016;10.38;-0.5;-2.77;20.0;5.125;16.4375
191016;8.63;0.82;-2.6;-4.25;10.375;11.4375
191016;10.03;-0.9;-2.41;21.375;-8.4375;1.5
191016;9.33;-0.48;-2.48;17.0625;-0.25;-3.4375
191016;8.72;0.08;-2.45;11.75;0.1875;-6.3125
191016;8.32;0.28;-2.02;11.0625;-9.375;-5.6875
191016;8.28;0.37;-1.96;7.25;-8.3125;-3.375
191016;8.35;0.41;-2.2;5.25;-8.125;-2.6875
191016;8.5;0.35;-2.24;5.5;-9.0;-1.0
191016;9.7;0.12;-2.4;16.125;-3.625;-0.75
191016;9.99;-0.18;-2.02;19.75;-0.0625;-0.1875
191016;10.75;-0.37;-1.11;22.6875;3.0625;-1.25
191016;11.04;-0.46;-0.45;26.5625;15.375;-5.75
191016;9.86;-2.15;-4.5;20.1875;13.3125;-23.4375
191016;9.0;-3.73;-2.33;32.875;22.8125;-17.25
191016;9.11;-3.38;-1.82;53.25;25.5625;-7.1875
191016;8.08;-1.57;-2.44;2.8125;-1.75;12.375
191017;7.75;-1.04;-2.44;9.9375;-5.0;16.4375
191017;7.89;-0.99;-2.28;10.3125;-6.5625;17.125
191017;8.0;-0.84;-2.14;6.4375;-5.625;17.125
191017;8.64;-0.22;-1.62;-7.25;-7.4375;-0.6875
191017;8.66;-0.13;-1.14;-12.25;-8.0;-2.75
191017;8.72;-0.14;-1.03;-17.25;-6.625;-3.4375
191017;11.43;1.38;-0.34;-44.75;10.9375;-1.8125
191017;11.32;-0.6;-2.31;-46.1875;15.5;0.6875
191017;11.15;-1.71;-3.17;-41.125;13.3125;4.4375
191017;12.13;-3.16;-4.75;-21.5;2.1875;13.25
191017;7.83;2.09;-4.39;-61.125;-11.125;6.4375
191017;9.03;0.03;-5.95;-57.8125;-15.4375;5.125
191017;9.92;-0.68;-5.9;-28.0625;-20.3125;4.1875
191017;7.45;1.16;-2.98;6.9375;-2.0625;-8.75
191017;7.38;0.68;-2.76;14.625;-9.3125;-10.9375
191017;7.57;0.4;-2.58;17.1875;-11.8125;-11.625
191017;8.02;0.17;-2.32;17.625;-14.125;-10.75
191017;8.9;-0.22;-1.76;19.8125;-1.125;10.5
191017;8.86;-0.2;-1.51;20.8125;-0.25;11.625
191017;8.86;-0.02;-1.54;21.625;0.8125;11.875
191018;10.32;0.22;-1.49;40.625;27.75;-13.25
191018;11.57;2.21;-3.08;26.6875;16.25;-19.4375
191018;12.23;2.15;-3.75;17.3125;11.6875;-22.125
191018;10.02;0.78;-1.92;32.0625;3.4375;-0.0625
191018;10.27;0.84;-2.63;-1.0;-2.9375;-0.9375
191018;10.31;0.74;-2.88;-12.625;-5.3125;0.625
191018;10.04;0.15;-3.32;-20.5;-3.125;5.0
191018;7.96;-0.61;-2.29;-18.375;-14.3125;19.0625
191018;8.67;-0.83;-2.0;-21.375;-15.125;14.8125
191018;8.72;-0.91;-1.87;-21.9375;-13.6875;12.875
191018;9.18;-0.34;-1.43;-20.1875;-5.25;-6.125
191018;9.17;-0.44;-1.8;-21.0;-7.125;-6.4375
191018;9.21;-0.63;-2.04;-20.25;-6.875;-7.625
191018;10.18;-0.73;-1.53;-17.875;-5.0625;-10.25
191018;12.61;-1.16;-3.99;-3.5625;2.9375;12.75
191018;11.27;-1.55;-5.91;0.3125;9.6875;8.625
191018;10.93;-1.77;-4.88;7.125;6.5;8.5
191018;9.62;-0.6;-3.11;30.5;1.375;-10.9375
191018;9.0;-0.41;-2.28;30.8125;3.875;-9.0
191018;8.74;-0.37;-2.36;27.6875;4.375;-8.5
191019;7.92;0.0;-2.68;22.75;-0.125;-9.6875
191019;8.37;0.44;-2.06;6.5625;-12.0;-4.625
191019;8.52;0.44;-2.12;5.4375;-10.75;-1.8125
191019;8.62;0.31;-2.17;5.375;-10.25;-0.4375
191019;9.65;0.15;-2.66;18.0;-5.625;3.3125
191019;10.58;-0.27;-1.6;24.25;-1.8125;1.9375
191019;10.97;-0.29;-1.05;26.5625;3.0625;0.125
191019;11.65;-0.36;0.08;26.9375;19.375;-5.75
191019;9.75;-0.62;-5.18;-1.6875;3.6875;-28.375
191019;8.42;-2.67;-3.47;18.1875;16.75;-18.5625
191019;8.57;-3.17;-2.93;32.25;18.375;-14.125
191019;8.0;-0.86;-2.44;-6.1875;3.75;3.625
191019;7.5;-0.92;-2.3;0.25;-3.4375;6.6875
191019;7.62;-0.73;-2.12;1.9375;-7.5;8.6875
191019;7.75;-0.73;-2.05;0.5625;-11.0625;12.125
191019;8.83;-0.64;-0.82;-10.5;-11.125;-0.375
191019;9.19;-0.04;-0.36;-14.8125;-9.75;-3.5625
191019;9.2;0.12;-0.34;-17.4375;-8.125;-5.875
191019;9.03;0.0;-1.02;-22.125;-6.375;-9.75
191019;12.31;-1.97;-4.94;-21.0;-5.25;23.0
191020;13.3;-1.66;-4.91;-13.4375;-9.3125;25.375
191020;13.24;-1.14;-5.16;-6.4375;-0.5;19.625
191020;10.11;-0.59;-4.51;-27.0;-25.5;0.4375
191020;9.82;-0.92;-3.37;3.375;-18.125;0.625
191020;9.75;-0.92;-3.09;13.1875;-15.5625;-0.75
191020;8.01;0.86;-2.22;3.75;-4.8125;-1.9375
191020;8.48;0.57;-2.06;1.9375;-4.1875;-1.4375
191020;8.79;0.41;-1.91;1.8125;-3.5;-0.9375
191020;8.8;0.35;-1.88;2.625;-1.3125;-0.75
191020;9.15;0.78;-1.54;16.6875;2.375;3.5625
191020;9.35;0.89;-1.84;12.0625;1.0;0.25
191020;9.41;0.67;-2.16;10.8125;0.8125;0.0625
191020;9.97;-0.12;-2.17;15.0;-2.5625;2.5625
191020;11.17;2.43;-5.14;3.6875;-4.9375;-25.3125
191020;11.39;1.98;-6.84;1.25;-11.1875;-26.25
191020;10.97;0.7;-6.92;4.125;-12.625;-24.375
191020;9.38;0.56;-2.81;-20.6875;6.125;18.0
191020;8.4;-0.23;-2.85;-20.0625;0.875;19.5625
191020;7.82;-0.57;-2.74;-17.25;-2.75;20.125
191020;7.06;-1.11;-2.37;-8.8125;-9.625;19.625
191021;8.84;-0.39;-1.31;-13.6875;-6.3125;-1.5625
191021;8.81;-0.16;-1.24;-16.8125;-7.5;-3.9375
191021;8.64;-0.15;-1.22;-22.1875;-9.6875;-8.5625
191021;11.26;0.65;0.04;-28.3125;10.25;-2.375
191021;11.26;1.15;0.19;-35.25;10.75;-1.5
191021;11.04;1.18;0.09;-38.6875;10.3125;-0.5625
191021;10.4;-0.15;-0.15;-37.25;4.75;2.0
191021;7.81;1.26;-2.04;-31.8125;0.0625;13.75
191021;7.38;2.17;-2.68;-45.875;-2.3125;13.1875
191021;8.27;2.24;-3.38;-61.125;-8.0625;7.0625
191021;8.32;0.0;-2.36;16.1875;2.8125;-10.875
191021;7.9;1.08;-2.47;8.0625;-2.125;-9.0625
191021;7.37;1.78;-2.72;6.0625;-3.75;-8.5
191021;6.85;1.64;-2.79;3.9375;-7.5625;-10.8125
191021;8.75;0.25;-2.03;7.5;-6.375;3.5
191021;9.05;0.1;-1.88;9.0;-5.625;5.875
191021;9.18;0.06;-1.73;12.9375;-3.25;8.625
191021;9.16;0.08;-1.62;14.8125;-2.1875;8.75
191021;10.85;0.12;-0.18;20.125;26.125;-11.25
191021;10.58;0.39;-0.5;21.0625;26.75;-12.125
191022;10.39;1.05;-1.07;20.5;24.8125;-13.125
191022;8.83;-2.62;-2.09;39.625;19.375;-6.5625
191022;9.84;-0.55;-1.79;37.0625;17.1875;-3.4375
191022;10.76;1.22;-2.54;22.0;6.125;-1.0625
191022;11.58;1.85;-2.86;13.375;0.125;-0.375
191022;7.99;-1.11;-1.97;-4.3125;-6.875;16.125
191022;7.85;-0.95;-1.88;-5.6875;-6.0;15.9375
191022;7.8;-0.74;-1.64;-10.0625;-6.5625;13.9375
191022;9.13;-0.27;-1.08;-24.5625;-7.6875;-5.625
191022;9.28;-0.72;-1.32;-23.125;-6.0;-6.625
191022;9.49;-1.11;-1.55;-18.4375;-3.9375;-6.4375
191022;9.64;-1.19;-1.81;-15.6875;-3.25;-6.5625
191022;13.18;-1.13;-3.03;-2.8125;4.8125;21.9375
191022;12.08;-1.06;-4.24;2.0;12.3125;18.0
191022;10.97;-1.42;-4.4;6.75;8.625;16.375
191022;9.88;-1.32;-3.41;7.5625;-13.5;1.1875
191022;9.91;-1.33;-3.08;17.5;-12.25;-0.375
191022;10.2;-1.28;-2.47;23.5625;-7.125;-1.5625
191022;10.02;-1.08;-2.47;22.0625;-4.0625;-2.25
191022;8.56;0.24;-1.95;7.5625;-15.0;-5.9375
191023;8.64;0.27;-1.75;6.5;-13.5;-4.9375
191023;8.54;0.21;-1.84;4.25;-10.4375;-2.75
191023;9.21;0.83;-2.14;17.0625;-0.4375;2.0625
191023;9.55;1.01;-1.79;15.4375;-1.25;0.9375
191023;10.07;1.02;-1.27;16.25;3.75;-3.0
191023;11.25;0.51;-0.05;15.875;9.8125;-6.375
191023;9.67;-0.78;-5.57;7.375;-0.0625;-30.0
191023;8.88;-2.45;-3.47;27.875;15.6875;-19.875
191023;9.14;-3.22;-2.51;37.875;19.25;-14.1875
191023;7.54;-1.09;-2.56;-1.9375;-5.1875;10.5
191023;7.18;-1.15;-2.5;0.375;-4.375;10.875
191023;7.19;-1.08;-2.5;0.6875;-5.8125;12.875
191023;7.27;-1.04;-2.45;-0.375;-7.1875;13.875
191023;8.94;-0.25;-1.36;-21.0;-10.125;-7.1875
191023;9.34;-0.41;-1.09;-21.125;-10.0625;-9.0
191023;9.5;-0.26;-0.93;-21.4375;-8.8125;-10.625
191023;11.16;0.46;-0.31;-45.0625;19.25;0.4375
191023;10.64;-1.34;-2.78;-39.25;12.0;6.375
191023;11.52;-1.81;-3.69;-14.5;-7.625;17.3125
191023;13.13;-2.03;-4.23;-2.125;-10.3125;22.9375
191024;8.84;0.7;-5.55;-45.1875;-9.375;3.125
191024;9.2;-0.24;-5.38;-14.75;-16.6875;-0.3125
191024;9.92;-1.12;-4.39;3.1875;-15.1875;0.125
191024;6.96;1.35;-2.67;7.4375;-7.625;-11.875
191024;7.25;0.7;-2.52;9.125;-9.9375;-12.25
191024;7.46;0.51;-2.44;12.1875;-11.125;-11.125
191024;8.33;0.34;-2.11;13.25;-11.0;-9.3125
191024;9.21;0.0;-1.65;14.125;4.375;13.25
191024;9.23;0.01;-1.73;16.4375;4.9375;12.1875
191024;9.3;0.19;-2.06;17.6875;2.75;6.3125
191024;10.48;2.7;-3.11;11.5625;14.3125;-19.625
191024;11.71;1.15;-6.43;13.875;-1.0;-20.6875
191024;11.68;1.22;-7.12;16.1875;-6.625;-20.6875
191024;11.01;0.49;-6.57;12.9375;-10.625;-22.6875
191024;9.51;0.32;-3.22;-19.4375;1.875;4.875
191024;9.26;-0.13;-3.12;-23.0;4.0625;6.125
191024;9.02;-0.89;-2.68;-10.625;-0.5;9.0625
191024;8.35;-0.76;-1.29;-11.375;-4.875;5.625
191024;8.64;-0.51;-1.27;-12.375;-5.875;4.125
191024;8.64;-0.47;-1.26;-15.0625;-6.6875;0.8125
191025;8.76;-0.23;-1.37;-16.375;-7.625;-1.0625
191025;10.99;0.55;0.38;-15.9375;6.125;-6.5
191025;10.89;0.9;0.12;-23.625;10.4375;-5.5625
191025;11.07;0.87;0.0;-33.3125;13.5;-5.5625
191025;9.68;-0.4;-2.61;0.125;10.25;20.375
191025;7.84;1.41;-2.79;-13.125;7.1875;17.6875
191025;7.72;1.75;-3.08;-40.375;-2.125;15.875
191025;7.92;2.26;-4.24;-49.3125;-5.25;15.8125
191025;8.24;1.24;-2.37;7.5;-7.875;-13.25
191025;7.99;1.52;-2.54;5.9375;-10.5625;-13.3125
191025;7.42;1.46;-2.72;7.125;-16.0;-13.0
191025;8.16;0.17;-2.02;16.1875;-6.5625;0.6875
191025;8.55;0.16;-1.93;17.0625;-7.5625;1.8125
191025;8.86;0.02;-1.81;18.9375;-6.9375;4.0
191025;9.12;-0.29;-1.68;20.25;-5.0625;5.1875
191025;10.42;-0.56;-0.5;29.1875;25.75;-11.3125
191025;10.29;0.14;-0.74;33.125;26.1875;-12.75
191025;10.71;2.17;-2.7;31.9375;21.625;-14.875
191025;11.08;2.44;-3.9;21.0625;12.8125;-16.25
191025;10.9;1.65;-3.12;17.5;-1.75;-2.6875
191026;11.85;1.43;-3.58;0.5;-12.1875;0.25
191026;11.49;0.75;-3.66;-7.4375;-10.25;2.875
191026;8.63;-0.63;-1.81;-12.9375;-10.1875;8.3125
191026;8.37;-0.69;-1.78;-16.4375;-6.8125;8.0625
191026;8.26;-0.7;-1.67;-17.375;-6.25;7.875
191026;8.31;-0.67;-1.55;-16.8125;-8.0;6.75
191026;9.52;-0.92;-1.68;-11.0;-6.9375;-7.4375
191026;9.63;-0.43;-1.74;-8.625;-5.875;-9.4375
191026;9.93;-0.16;-1.3;-8.375;-3.375;-10.625
191026;12.77;-0.79;-4.56;-20.6875;2.0;9.1875
191026;13.08;-0.79;-6.72;-22.125;9.25;8.9375
191026;13.31;-1.47;-5.67;-14.125;11.5;9.9375
191026;10.57;-0.54;-2.61;4.5;9.4375;21.0625
191026;9.23;-0.76;-2.72;13.5;1.3125;0.0625
191026;8.87;-0.89;-2.24;23.625;-2.25;-4.625
191026;8.79;-0.56;-2.33;22.5;-6.5625;-6.0625
191026;8.94;0.59;-2.07;12.0;-7.75;-7.1875
191026;8.96;0.71;-2.04;7.375;-5.8125;-2.5625
191026;8.63;0.71;-2.24;6.375;-5.0;-1.125
191026;8.54;0.56;-2.26;8.0625;-5.125;-0.1875
191027;9.32;1.19;-2.53;9.875;4.4375;5.1875
191027;9.85;0.38;-1.64;8.875;5.5625;6.0
