timestamp;acc_x;acc_y;acc_z;gyro_x;gyro_y;gyro_z
192034;8.06;-1.26;5.14;-1.625;-6.5;-12.0
192034;8.4;-1.13;5.19;-3.4375;-6.5625;-12.4375
192034;8.64;-1.22;5.14;-7.5625;-5.3125;-12.9375
192034;8.14;-2.12;4.89;3.9375;2.9375;-2.125
192034;7.84;-1.91;4.82;4.6875;4.125;-2.1875
192034;7.9;-1.67;4.88;5.625;3.4375;-0.6875
192034;8.2;-1.71;4.82;6.0;2.375;-0.25
192034;8.42;-1.51;5.14;9.5625;-0.8125;7.1875
192034;8.24;-1.3;5.14;9.6875;3.8125;7.5
192034;8.08;-1.02;4.91;8.25;8.0625;7.5625
192034;8.19;-1.2;4.96;-3.875;2.4375;5.9375
192034;7.88;-1.12;4.09;-5.0;0.375;6.625
192034;7.71;-1.09;3.89;-4.875;-0.8125;6.375
192034;7.25;-1.07;3.46;-5.625;-3.0;5.375
192034;8.22;-0.89;6.13;19.0;-3.1875;12.0
192034;7.97;-0.32;5.8;14.1875;-1.625;15.5
192034;7.29;-1.25;5.04;13.8125;-3.0625;16.25
192034;9.92;-3.62;6.5;3.5625;26.6875;-6.9375
192034;9.0;-3.92;6.28;3.0;36.875;-9.5
192034;7.88;-2.94;5.9;1.75;29.375;-8.875
192034;9.16;-4.04;6.22;5.8125;6.5;13.6875
192035;9.05;-3.97;6.44;7.5625;5.8125;14.9375
192035;8.73;-3.57;6.36;9.0;2.875;11.4375
192035;8.02;-1.96;5.6;8.0;0.0625;7.8125
192035;7.15;-2.44;4.93;7.625;-3.0;5.5
192035;6.98;-2.3;4.91;7.5;-3.75;3.875
192035;6.99;-2.04;5.05;5.0;-6.3125;0.5
192035;7.31;-1.96;5.02;3.8125;-8.375;-0.375
192035;8.03;-2.19;5.46;6.8125;-11.4375;-3.375
192035;7.69;-1.94;4.85;4.9375;-7.9375;-4.875
192035;7.45;-1.99;4.78;4.0625;-6.6875;-4.6875
192035;7.2;-2.06;4.8;3.8125;-4.75;-5.125
192035;6.5;-1.8;4.6;4.625;-9.75;-16.3125
192035;6.7;-1.25;4.59;-0.5625;-11.0625;-15.0
192035;7.3;-1.31;5.02;-5.0;-6.375;-9.6875
192035;9.05;-3.55;4.79;18.3125;-10.25;9.0
192035;9.58;-2.52;4.61;20.1875;-11.5625;7.75
192035;9.63;-1.95;4.7;20.125;-10.0;4.6875
192035;9.21;-0.82;5.12;20.0625;-1.875;-0.375
192035;7.6;-2.23;5.76;8.0;5.875;10.8125
192035;8.08;-1.09;5.09;5.6875;-7.9375;5.0
192035;9.18;-1.03;5.36;0.625;-24.5625;-7.6875
192036;11.44;-0.95;6.16;-0.3125;-25.25;-11.625
192036;7.87;-0.72;4.11;-6.125;-21.625;-4.25
192036;7.78;-0.79;4.1;-8.875;-19.5;-4.375
192036;7.85;-1.01;4.33;-10.9375;-15.375;-2.75
192036;8.1;-1.56;4.86;-19.9375;8.0625;-5.125
192036;7.91;-1.49;4.51;-19.9375;6.3125;-3.0625
192036;7.81;-1.43;4.23;-18.1875;5.25;-1.25
192036;7.61;-1.4;3.85;-16.875;5.25;-0.375
192036;8.3;-1.99;4.77;-5.0625;7.3125;9.4375
192036;8.29;-2.01;4.65;-3.125;8.25;10.375
192036;7.98;-1.75;4.72;1.5625;9.1875;10.8125
192036;7.8;-1.41;4.7;3.0;10.125;10.875
192036;7.84;-0.2;5.33;-2.75;5.1875;3.75
192036;7.71;-0.81;4.79;-3.6875;6.6875;1.1875
192036;7.6;-1.81;4.49;-2.75;6.4375;1.5625
192036;8.01;-2.77;5.15;2.375;9.4375;5.0
192036;9.57;-2.83;7.51;24.5625;30.875;6.125
192036;8.08;-0.73;5.7;25.0;23.625;-3.625
192036;8.43;-0.63;5.32;22.9375;-5.3125;-2.25
192036;7.03;-2.13;4.29;-0.6875;-8.625;9.125
192037;7.28;-2.61;4.03;-1.1875;-12.1875;9.75
192037;7.56;-3.03;4.03;-1.0625;-13.5;10.8125
192037;7.48;-3.11;4.13;1.375;-13.3125;11.9375
192037;7.11;-2.15;4.36;12.0;-6.8125;6.0
192037;7.09;-1.71;4.42;10.5625;-6.25;6.0
192037;6.96;-1.71;4.34;7.375;-3.75;4.6875
192037;6.65;-1.71;4.32;6.875;-3.3125;3.0
192037;7.91;-2.42;5.33;10.8125;-0.625;-11.3125
192037;7.76;-2.97;4.96;13.75;2.3125;-10.75
192037;7.55;-3.42;4.29;21.25;-0.9375;-8.375
192037;6.41;-2.3;4.89;20.875;-3.5;-6.5625
192037;7.06;-2.88;4.28;20.125;-6.25;-4.1875
192037;7.74;-2.81;4.29;16.4375;-12.25;3.8125
192037;10.15;-2.69;3.22;15.5;-14.875;5.875
192037;13.22;-0.09;7.31;0.5;-16.125;-3.875
192037;13.13;-0.14;6.91;-3.3125;-1.9375;-7.4375
192037;12.17;-0.18;6.51;-5.6875;4.3125;-7.25
192037;8.59;-0.34;4.26;-15.75;-12.8125;-13.5
192037;8.46;-0.49;4.24;-17.625;-10.3125;-13.8125
192037;8.33;-0.49;4.32;-18.9375;-6.6875;-12.4375
192038;8.25;-0.41;4.45;-19.875;-5.375;-11.3125
192038;7.32;-1.31;4.15;-26.9375;-5.125;0.0
192038;7.63;-1.63;4.29;-24.875;-7.25;3.5
192038;8.11;-1.98;4.55;-23.0;-6.8125;5.4375
192038;7.9;-2.03;4.57;-7.5;6.25;2.6875
192038;7.79;-1.79;4.64;-5.5;8.5625;3.4375
192038;7.78;-1.38;4.19;-4.0;6.1875;3.0625
192038;7.82;-1.24;4.32;-4.375;3.0;2.625
192038;8.22;-2.25;4.92;-2.1875;-0.25;14.375
192038;8.54;-2.26;5.23;0.0625;2.8125;15.375
192038;8.96;-2.07;5.32;3.0;10.4375;16.375
192038;8.7;-1.86;4.74;4.3125;14.0625;16.375
192038;12.84;-6.17;7.36;18.1875;-5.5625;10.0625
192038;13.23;-4.46;8.95;4.75;11.5625;-8.5
192038;10.4;-2.86;6.84;0.4375;21.8125;-15.0
192038;8.92;-1.75;4.76;5.0;14.625;-9.75
192038;7.74;-1.48;4.42;6.0;-12.9375;0.4375
192038;8.17;-1.19;4.21;4.4375;-15.4375;1.5
192038;8.27;-1.41;4.17;-0.25;-17.125;3.6875
192038;7.94;-2.78;4.51;4.3125;-10.1875;-1.5625
192038;7.78;-2.31;4.45;6.4375;-8.4375;-1.5625
192039;7.71;-2.01;4.46;6.3125;-7.375;-1.6875
192039;7.7;-1.87;4.54;4.8125;-6.3125;-2.625
192039;7.91;-1.48;4.96;4.9375;1.8125;-6.1875
192039;7.89;-2.25;5.05;4.5;4.875;-6.75
192039;7.87;-2.47;4.9;5.25;6.3125;-6.1875
192039;7.72;-2.62;4.52;6.3125;5.9375;-6.0
192039;7.34;-1.76;4.49;7.75;-3.8125;0.3125
192039;7.55;-2.21;5.24;9.4375;15.125;-5.25
192039;7.33;-3.0;4.9;12.4375;19.25;-7.625
192039;6.39;-3.15;4.09;16.3125;10.8125;-8.4375
192039;8.6;-1.78;5.0;20.5;13.3125;-6.0625
192039;9.8;-2.08;4.53;27.0625;2.9375;-6.4375
192039;10.85;-2.47;4.4;30.375;-10.125;-4.25
192039;11.44;-1.26;6.0;-6.4375;-11.25;-11.625
192039;11.31;-0.55;6.09;-5.5;-11.25;-12.6875
192039;9.49;-0.78;5.18;-6.625;-3.4375;-10.125
192039;8.04;-1.67;3.97;-7.0625;-4.125;-4.4375
192039;7.51;-0.74;3.67;1.0625;-27.625;0.0625
192039;8.23;-0.39;4.05;2.0;-29.1875;2.9375
192039;8.6;-0.05;4.16;-0.1875;-28.5;2.875
192039;7.23;-1.5;4.37;-14.4375;-2.6875;-1.875
192040;8.32;-1.5;4.4;-14.25;-7.4375;-1.0
192040;8.73;-1.45;4.52;-13.625;-8.6875;-1.5625
192040;8.99;-1.63;4.47;-12.0;-3.1875;-1.125
192040;7.62;-1.51;4.44;-10.1875;18.5625;8.0625
192040;7.72;-1.43;4.41;-10.5625;17.5;9.6875
192040;7.84;-1.44;4.3;-11.1875;15.5;9.875
192040;7.48;-1.0;4.61;-2.3125;6.0625;12.3125
192040;7.49;-0.95;4.6;-1.125;5.0625;10.5
192040;7.57;-0.65;5.01;-0.6875;5.25;7.625
192040;7.56;-0.56;4.66;-2.375;5.125;5.75
192040;10.81;-6.27;5.46;9.625;29.25;0.5625
192040;11.08;-6.32;6.78;21.5625;22.75;5.75
192040;10.25;-3.89;7.55;21.9375;23.1875;5.0
192040;9.65;-2.52;6.97;23.375;23.25;-1.25
192040;8.17;-2.59;4.65;6.375;-7.3125;7.1875
192040;8.27;-2.15;4.6;6.125;-10.375;7.3125
192040;8.66;-2.11;4.63;4.9375;-12.125;8.1875
192040;8.7;-2.31;4.72;1.5;-10.6875;10.3125
192040;7.79;-2.76;4.51;8.9375;-7.0625;4.4375
192040;7.3;-2.22;4.52;9.875;-6.0625;5.5625
192041;7.22;-1.76;4.83;7.5625;-7.25;3.4375
192041;7.14;-2.42;4.97;9.1875;-4.5;-3.6875
192041;7.13;-2.54;4.85;8.9375;-4.9375;-4.625
192041;7.26;-2.67;4.7;9.625;-6.125;-6.5
192041;7.29;-2.71;4.37;10.8125;-6.5625;-6.5625
192041;7.67;-3.34;5.67;23.9375;-5.5625;3.125
192041;7.45;-3.79;5.5;28.8125;-1.5625;4.125
192041;6.83;-3.73;4.93;31.5625;-2.0625;5.625
192041;6.4;-3.56;4.63;35.875;-7.625;9.9375
192041;12.45;0.92;6.6;26.375;6.75;-12.0625
192041;13.02;0.04;6.51;17.4375;3.75;-6.5625
192041;12.85;-0.4;6.35;14.625;0.8125;0.0625
192041;11.32;-0.87;5.87;15.0;-2.0;13.6875
192041;9.05;-1.92;4.17;3.4375;-2.5625;-3.4375
192041;7.74;-1.57;3.93;3.9375;-1.6875;-1.625
192041;6.85;-1.19;3.52;2.875;-6.0625;2.875
192041;7.14;-1.29;3.89;-5.75;-5.5;4.9375
192041;7.17;-1.37;3.79;-4.4375;-9.6875;10.125
192041;7.27;-1.5;3.69;-4.4375;-13.1875;11.6875
192041;7.71;-1.73;3.8;-4.125;-17.8125;12.5
192041;8.11;-0.97;4.21;1.375;-8.0;16.6875
192042;8.95;-1.0;4.97;1.8125;-6.5625;16.25
192042;9.51;-1.05;5.37;2.75;0.25;16.0625
192042;9.2;-1.32;5.11;3.1875;4.75;16.6875
192042;9.01;-0.76;4.47;26.5625;3.5;14.6875
192042;9.76;-1.1;4.35;27.375;8.0625;13.375
192042;10.97;-2.37;3.16;31.375;7.25;16.4375
192042;12.22;-3.17;5.82;37.5625;-5.625;4.1875
192042;11.81;-3.47;5.46;37.3125;-5.125;4.75
192042;10.56;-3.45;4.56;36.875;-6.5;8.875
192042;10.14;-3.31;4.34;37.125;-8.375;14.375
192042;7.36;-2.57;3.37;23.8125;-34.4375;18.1875
192042;7.31;-2.64;3.42;24.375;-33.0;18.625
192042;7.6;-2.61;3.97;25.6875;-30.1875;15.625
192042;7.88;-1.9;4.61;36.0;-18.5;6.75
192042;8.07;-2.1;4.73;35.1875;-18.875;5.625
192042;8.34;-2.69;4.8;35.8125;-16.875;6.375
192042;8.23;-2.86;4.91;37.0;-15.625;6.5625
192042;10.74;-2.67;5.61;58.6875;8.8125;25.6875
192042;9.6;-1.57;6.05;62.75;19.0625;28.8125
192042;8.28;-0.43;4.67;55.875;19.6875;27.75
192042;7.71;-0.43;3.91;33.8125;6.875;17.125
192043;9.36;-2.75;2.99;37.875;-1.3125;12.9375
192043;10.05;-2.75;3.25;44.625;-1.0;12.5
192043;10.22;-2.62;3.37;47.5625;-1.25;11.9375
192043;9.05;-0.99;3.45;54.9375;-19.375;18.75
192043;8.86;-1.17;3.11;54.4375;-18.8125;20.375
192043;8.7;-1.19;2.99;54.8125;-19.625;21.75
192043;8.62;-1.52;3.09;54.9375;-22.4375;24.1875
192043;9.23;-1.09;3.96;56.4375;-19.3125;23.375
192043;9.17;-0.96;4.15;55.4375;-13.125;24.625
192043;9.07;-0.88;4.36;54.6875;-11.0625;25.5625
192043;8.84;-1.89;4.23;68.875;-2.1875;33.25
192043;10.14;-1.99;3.22;76.75;-7.75;36.5625
192043;11.06;-1.94;3.2;78.4375;-13.125;37.375
192043;13.15;-1.7;4.38;76.125;-13.5;33.25
192043;10.25;-0.45;4.78;90.4375;-33.5;45.4375
192043;12.86;-0.53;5.88;57.1875;-33.25;24.375
192043;13.04;-0.95;5.86;42.0;-28.375;16.375
192043;7.82;-2.32;3.66;55.6875;-35.5625;35.8125
192043;8.83;-2.58;4.07;50.5625;-35.0625;25.5
192043;9.0;-2.71;4.02;48.0;-32.4375;21.5625
192044;8.79;-3.1;3.83;44.875;-26.5625;17.25
192044;8.29;-1.8;5.04;44.0;-12.5;8.875
192044;7.99;-1.49;5.26;37.375;-8.3125;2.5
192044;8.11;-1.58;5.31;34.25;-7.125;-0.0625
192044;12.15;-5.05;1.97;55.3125;-24.375;24.75
192044;14.92;-3.48;3.82;55.25;-19.1875;22.375
192044;14.75;-2.86;4.65;55.625;-6.0625;22.8125
192044;10.56;-1.81;4.83;57.1875;28.1875;27.0625
192044;9.85;-1.36;3.16;28.75;0.6875;11.1875
192044;9.14;-1.69;3.3;39.5;0.75;15.3125
192044;9.09;-1.96;3.37;44.0;-4.0625;15.75
192044;8.4;-0.02;3.5;32.625;-14.625;2.75
192044;8.85;-0.72;3.68;26.25;-12.0;1.125
192044;8.9;-0.95;3.66;24.0625;-10.875;1.4375
192044;8.7;-1.05;3.53;21.9375;-8.1875;4.3125
192044;7.38;-1.47;3.95;23.1875;3.6875;18.8125
192044;7.22;-1.48;3.43;29.125;3.625;19.125
192044;7.0;-1.63;3.15;32.6875;3.3125;19.8125
192044;6.47;-2.22;3.01;41.1875;2.25;21.625
192044;9.12;0.0;5.49;42.125;5.4375;14.375
192045;9.52;0.12;4.86;38.9375;5.1875;12.875
192045;9.14;0.1;4.42;32.25;9.4375;12.3125
192045;8.82;-0.08;4.73;29.6875;13.875;12.6875
192045;15.6;-5.4;5.32;36.125;-27.5625;-4.4375
192045;16.68;-6.24;8.05;30.0625;-14.4375;-5.1875
192045;15.56;-4.71;9.62;-14.375;29.4375;-2.375
192045;10.84;-5.52;5.62;30.8125;-10.4375;22.4375
192045;10.31;-5.77;5.7;36.4375;-4.3125;24.625
192045;7.24;-3.55;4.02;45.75;-1.25;27.5625
192045;6.52;-2.38;3.7;47.9375;-7.5625;26.9375
192045;6.47;-1.95;3.48;9.0;-8.375;1.75
192045;6.57;-1.65;3.44;8.0;-9.625;0.8125
192045;7.09;-1.34;3.55;5.1875;-10.875;-0.875
192045;7.39;-2.24;3.74;11.3125;-11.5;-6.5
192045;7.42;-2.39;3.52;11.3125;-15.125;-5.75
192045;7.48;-2.17;3.39;9.375;-19.25;-2.6875
192045;7.88;-2.26;3.81;8.1875;-19.4375;-1.0
192045;13.14;-2.2;5.02;28.375;-14.25;-6.8125
192045;12.2;0.67;7.49;28.1875;13.25;-16.125
192045;10.71;3.17;6.42;20.75;22.25;-21.3125
192046;10.55;-0.31;3.07;12.4375;-6.6875;-2.3125
192046;10.62;-0.14;3.17;11.4375;-9.8125;-5.6875
192046;10.43;-0.24;3.48;9.5;-8.875;-7.75
192046;10.21;-0.49;3.49;8.75;-8.375;-6.9375
192046;7.67;-0.04;2.35;-13.5625;-10.625;-7.75
192046;8.05;-0.16;2.75;-14.5;-12.5;-8.375
192046;8.34;-0.39;2.94;-16.875;-11.5;-8.75
192046;9.33;-1.78;4.48;-11.8125;7.3125;4.8125
192046;8.9;-1.64;4.49;-8.3125;13.3125;7.6875
192046;8.11;-1.39;4.25;-3.1875;17.875;12.0
192046;7.68;-1.31;4.17;-2.75;16.6875;13.375
192046;8.03;-1.26;3.28;-1.5625;3.8125;10.0
192046;7.61;-1.37;3.1;-0.875;1.6875;10.125
192046;7.5;-1.09;3.48;3.625;-1.375;9.75
192046;7.64;-0.76;4.13;6.375;-0.375;8.75
192046;12.21;-0.29;4.21;0.6875;-5.75;16.1875
192046;12.61;-2.81;5.49;-18.0625;24.5625;-3.8125
192046;11.6;-4.2;4.14;-12.5625;36.125;-5.125
192046;12.62;-2.76;6.05;33.1875;-8.0625;17.5
192046;10.38;-2.57;4.6;22.125;1.5;17.3125
192046;9.75;-2.37;4.3;19.0;0.625;15.25
192047;8.72;-2.21;3.55;17.875;-4.4375;9.9375
192047;6.98;-2.14;3.35;6.4375;-8.625;3.5
192047;7.26;-2.19;3.56;5.6875;-9.6875;-1.0625
192047;7.44;-2.12;3.58;4.625;-10.25;-2.4375
192047;7.56;-1.72;3.44;0.875;-11.3125;-4.0625
192047;7.85;-1.7;4.4;-3.4375;4.0625;-14.75
192047;7.58;-2.0;4.14;-3.1875;3.8125;-15.4375
192047;7.65;-2.57;3.66;0.1875;-0.0625;-13.125
192047;7.48;-1.75;4.03;20.75;-11.3125;0.625
192047;8.1;-2.14;3.74;22.5;-6.125;2.5625
192047;8.39;-2.36;3.5;24.5;-5.0625;3.25
192047;8.57;-3.15;3.03;30.3125;-3.1875;6.8125
192047;15.63;-0.29;7.14;-5.9375;-5.3125;-6.1875
192047;13.93;-1.5;6.89;-2.5;15.0625;4.8125
192047;9.77;-2.29;4.7;3.1875;29.375;17.0625
192047;7.57;-3.13;4.32;4.6875;25.5;19.75
192047;6.7;-1.15;2.36;-4.9375;-6.5625;5.8125
192047;7.38;-1.15;2.57;-7.75;-16.3125;4.875
192047;10.25;-0.8;4.04;-8.5625;-18.75;1.625
192047;7.8;-0.92;3.69;-10.0;0.375;5.25
192048;7.45;-0.95;3.58;-10.3125;2.25;4.5625
192048;7.09;-0.93;3.25;-11.375;0.375;4.625
192048;7.68;-0.97;3.36;-11.875;-3.8125;4.875
192048;8.55;-1.05;4.39;-12.5625;7.125;1.8125
192048;8.53;-1.05;4.16;-12.5625;7.9375;2.3125
192048;8.34;-1.12;4.16;-10.0;6.25;3.5
192048;8.32;-1.19;4.35;-9.0625;7.1875;4.0625
192048;8.02;-0.63;5.25;-2.0625;18.875;3.0625
192048;6.9;-0.36;3.93;-3.3125;23.0625;6.3125
192048;6.54;-0.48;3.58;-4.0;19.25;5.9375
192048;10.1;-4.9;7.26;17.6875;9.75;-2.6875
192048;10.34;-0.96;6.13;11.6875;-3.125;-12.4375
192048;10.47;-0.2;5.83;7.875;-7.5625;-13.25
192048;11.29;-0.34;5.27;2.0625;-14.1875;-11.375
192048;7.86;-2.1;3.76;-4.25;-14.9375;3.3125
192048;8.09;-2.31;3.78;-3.9375;-19.0;3.0
192048;8.25;-2.47;3.8;-3.0625;-19.5;3.5625
192048;7.55;-1.78;3.64;0.5;-8.625;-4.4375
192048;7.61;-2.01;3.65;2.3125;-7.8125;-4.375
192048;7.69;-2.31;3.85;3.6875;-7.4375;-3.5
192048;7.8;-2.43;4.01;6.4375;-5.875;-2.9375
192049;7.43;-1.93;3.35;11.375;-6.75;-7.4375
192049;7.68;-1.98;3.55;10.5;-8.0;-7.1875
192049;7.8;-2.02;3.55;10.5625;-7.5625;-6.875
192049;8.27;-1.8;3.84;11.3125;-7.375;-8.25
192049;9.14;-0.61;2.95;-12.125;-4.1875;-12.0
192049;10.38;-1.09;3.09;-11.5;-3.875;-12.875
192049;10.8;-1.68;3.11;-1.1875;-1.4375;-8.8125
192049;9.24;-0.58;5.07;0.25;13.8125;-0.6875
192049;8.75;-1.51;3.29;-4.4375;-2.1875;3.75
192049;9.43;-1.62;3.03;-4.5625;-13.0;2.6875
192049;12.65;-1.18;4.01;0.8125;-21.4375;-1.1875
192049;8.58;-0.15;3.12;-3.75;-14.1875;-5.0
192049;8.27;0.09;3.1;-5.3125;-12.5;-6.75
192049;8.12;0.15;3.01;-7.4375;-12.9375;-7.375
192049;8.09;-1.15;3.37;-11.8125;2.25;3.625
192049;7.77;-1.43;3.57;-7.4375;2.75;7.6875
192049;7.68;-1.34;3.55;-6.0625;2.75;8.8125
192049;7.74;-0.98;3.25;-4.9375;1.5;9.0
192049;7.26;-0.67;3.32;-6.1875;11.1875;12.0625
192049;6.99;-1.08;3.29;-5.8125;10.5625;10.625
192050;7.03;-1.15;3.54;-4.0625;14.1875;8.4375
192050;7.43;-0.76;4.45;-3.3125;17.625;7.1875
192050;13.68;-5.43;4.43;-8.75;12.875;8.3125
192050;13.73;-6.82;4.76;2.6875;17.125;8.375
192050;13.45;-5.81;8.5;-3.375;21.9375;3.375
192050;12.61;-4.58;8.41;-2.25;34.0625;-5.75
192050;8.95;-3.27;4.33;7.5;-5.4375;8.5
192050;7.88;-2.16;3.8;12.375;-9.375;6.5625
192050;7.65;-1.87;3.74;13.1875;-12.5;5.625
192050;7.99;-2.0;4.03;7.5;-8.9375;-0.375
192050;8.07;-2.02;4.02;6.25;-8.3125;-0.75
192050;7.85;-1.94;3.58;5.0625;-6.5;-1.0
192050;7.71;-1.95;3.51;5.8125;-5.0;-0.25
192050;7.15;-2.32;3.51;0.4375;-6.625;-7.375
192050;7.08;-2.26;3.74;1.625;-8.3125;-6.625
192050;7.15;-2.32;3.7;2.25;-9.1875;-6.125
192050;7.86;-2.59;3.84;5.5;-12.5;-7.6875
192050;6.78;-1.63;4.05;23.125;2.0625;-2.0
192050;7.21;-1.63;3.83;22.0625;-0.375;-4.375
192050;7.45;-1.35;3.84;18.6875;-3.1875;-6.9375
192050;13.9;-0.87;5.63;19.5625;-10.6875;-1.125
192051;14.17;-0.37;6.38;19.125;-0.625;2.0625
192051;13.57;-0.17;6.16;20.25;8.5;5.1875
192051;11.03;0.16;4.93;14.9375;18.875;6.8125
192051;8.19;-0.94;3.1;15.9375;-1.6875;8.375
192051;8.62;-0.28;3.2;15.4375;-5.25;7.75
192051;8.92;-0.08;3.43;12.9375;-9.0625;4.375
192051;9.29;-0.02;3.81;10.3125;-8.0625;2.1875
192051;7.77;-0.9;3.53;1.1875;-9.1875;7.5625
192051;7.93;-0.97;3.73;2.8125;-9.25;9.3125
192051;8.36;-0.95;3.7;4.1875;-8.875;10.25
192051;8.48;-0.95;3.61;6.75;-10.125;11.25
192051;7.0;-1.48;4.03;6.6875;1.75;15.1875
192051;7.12;-1.46;4.42;12.4375;-0.25;14.75
192051;7.21;-1.43;4.34;15.4375;-0.1875;15.25
192051;9.26;-0.64;3.04;32.75;0.0625;17.625
192051;12.59;-1.32;2.53;31.4375;2.25;13.4375
192051;13.77;-1.97;2.89;31.25;1.0625;12.9375
192051;15.63;-5.29;5.05;27.375;-2.875;11.0
192051;10.98;-3.02;4.4;49.1875;-5.6875;18.375
192051;8.86;-2.92;3.25;45.1875;-9.5625;25.3125
192051;8.45;-2.76;3.16;40.5625;-14.25;26.875
192052;7.51;-2.32;3.28;32.3125;-23.9375;26.25
192052;7.48;-2.31;3.3;23.5;-41.0;10.6875
192052;7.78;-2.59;3.52;21.4375;-40.25;11.3125
192052;8.08;-2.88;3.77;20.125;-39.125;10.1875
192052;9.08;-0.11;4.82;27.6875;-18.5;-6.5625
192052;9.53;-0.81;4.52;17.9375;-16.25;-10.1875
192052;9.48;-1.52;4.34;15.3125;-13.8125;-9.8125
192052;9.33;-1.44;1.51;10.1875;-6.75;-3.3125
192052;9.85;-1.68;1.35;5.875;-17.4375;-9.8125
192052;10.83;-1.94;0.59;8.8125;-15.625;-9.3125
192052;10.95;-1.77;0.59;17.125;-12.875;-3.1875
192052;9.87;-2.22;1.69;63.3125;-1.625;12.75
192052;8.91;-1.52;1.78;74.25;-0.4375;15.5625
192052;8.63;-1.28;1.79;77.4375;-0.3125;16.75
192052;7.94;-0.56;1.34;79.75;-2.0;18.875
192052;9.26;-1.5;2.27;86.0;-8.75;30.75
192052;9.12;-1.06;2.4;86.5625;-9.5625;31.25
192052;9.09;-1.02;2.4;86.0;-11.875;31.3125
192052;9.48;-0.45;3.37;82.0625;-2.4375;25.1875
192052;9.28;-0.93;3.62;77.6875;2.125;25.25
192053;9.19;-1.07;3.66;76.5;4.4375;25.6875
192053;8.91;-1.64;3.66;76.0;7.25;26.25
192053;13.6;-3.9;2.33;109.375;10.125;25.625
192053;8.71;-2.12;1.59;96.75;24.3125;17.0
192053;7.79;-1.99;1.71;81.5;19.6875;5.8125
192053;7.16;-3.56;2.61;53.3125;19.625;29.75
192053;6.14;-2.44;2.45;59.3125;2.6875;27.875
192053;6.19;-1.97;2.2;61.1875;-4.9375;28.4375
192053;7.38;-1.47;2.13;61.75;-21.1875;29.3125
192053;8.85;-1.76;3.61;46.4375;-16.4375;10.125
192053;8.86;-2.23;3.63;47.125;-15.0625;8.8125
192053;8.73;-2.46;3.79;49.0625;-10.125;8.125
192053;8.32;-2.89;4.08;50.3125;-6.5;8.3125
192053;8.51;-2.35;4.35;22.6875;-9.9375;-2.5
192053;8.66;-2.89;4.01;21.3125;-13.4375;3.5
192053;10.32;-4.52;2.34;23.25;-18.375;6.8125
192053;7.83;-2.29;0.47;37.5625;-13.25;19.1875
192053;9.0;-1.79;0.88;31.5625;-22.625;14.375
192053;10.33;-1.31;1.35;25.3125;-19.875;6.125
192053;11.55;0.27;0.4;21.9375;-9.125;5.25
192054;10.12;-0.47;3.01;65.5625;-2.0;9.75
192054;9.38;-0.18;2.79;62.6875;0.25;9.5
192054;7.86;0.41;2.5;53.375;-3.75;11.3125
192054;7.69;0.53;2.5;48.4375;-8.375;11.5625
192054;7.89;-0.8;3.5;18.1875;-2.9375;14.4375
192054;7.58;-1.07;3.26;12.5;0.625;14.5625
192054;7.55;-1.23;3.4;10.5;1.6875;13.5625
192054;7.53;-1.09;3.02;30.1875;15.3125;20.0625
192054;7.77;-1.17;3.11;27.75;7.0;17.625
192054;8.24;-1.53;3.5;28.9375;3.875;17.6875
192054;8.17;-1.49;3.52;34.0;4.0625;18.125
192054;7.82;-0.52;4.49;17.0;15.25;14.25
192054;6.63;-2.01;2.49;17.5;11.0;18.875
192054;6.84;-2.43;1.86;21.5;2.75;20.5
192054;10.08;-3.35;-0.64;35.625;-14.5;21.375
192054;9.23;-0.88;2.75;43.875;-35.3125;20.5
192054;13.49;-3.9;5.06;36.125;-30.0625;23.625
192054;13.97;-4.52;5.51;23.5625;-9.6875;23.0625
192054;7.92;-2.94;3.53;28.5;-14.375;11.875
192054;7.34;-2.82;3.37;29.5;-15.75;15.1875
192054;7.28;-2.66;3.35;28.8125;-15.875;15.875
192055;7.4;-2.36;3.47;25.8125;-15.375;16.0
192055;7.46;-2.01;3.65;20.3125;-7.9375;3.8125
192055;7.63;-1.96;3.71;20.25;-9.0625;2.5
192055;7.95;-1.8;3.82;18.6875;-10.5;-0.4375
192055;7.2;-2.06;3.85;12.625;-0.75;-1.4375
192055;7.93;-2.34;4.46;13.375;3.5;-4.4375
192055;8.04;-2.15;4.18;14.5625;4.6875;-6.0625
192055;7.95;-1.3;4.1;15.6875;1.25;-11.25
192055;9.86;-2.57;3.08;11.625;-5.125;-8.5
192055;11.3;-2.81;3.06;12.3125;-6.375;-8.0625
192055;11.77;-2.61;3.4;14.9375;-4.125;-6.8125
192055;8.83;-1.63;2.88;-9.125;-11.4375;0.1875
192055;11.04;-0.28;3.68;-8.375;-27.125;-4.5625
192055;11.45;-0.01;3.94;-8.3125;-28.5;-5.5
192055;10.71;-0.37;3.56;-10.625;-21.1875;-7.8125
192055;7.79;0.21;2.68;-13.875;-17.5;-6.1875
192055;7.62;0.04;2.59;-15.625;-17.5;-7.125
192055;8.36;-0.69;3.05;-17.0;-19.9375;-8.3125
192055;7.7;-1.03;3.57;-4.125;-0.875;3.875
192055;8.04;-1.05;3.25;-5.375;-4.0;7.0625
192056;8.23;-1.1;3.05;-5.125;-6.125;8.3125
192056;8.67;-1.41;3.12;-1.375;-8.125;11.125
192056;9.25;-1.03;3.01;-7.375;1.3125;7.8125
192056;8.74;-1.16;2.8;-6.1875;2.75;7.625
192056;8.46;-1.29;2.95;-2.6875;5.4375;7.0625
192056;8.0;-1.37;3.77;-0.8125;6.5625;7.6875
192056;9.25;-1.31;2.33;2.0625;9.6875;11.1875
192056;9.74;-1.68;1.75;3.6875;6.3125;12.625
192056;11.34;-2.44;1.53;4.6875;-2.6875;19.1875
192056;11.86;-1.97;2.27;1.5;-4.0625;21.3125
192056;11.55;-2.12;4.29;26.375;9.625;3.6875
192056;10.71;-1.09;3.63;15.125;10.0;-7.125
192056;10.44;-1.05;3.49;11.0625;6.5625;-8.5625
192056;8.02;-1.82;2.9;0.8125;-12.0;-1.0
192056;8.32;-1.86;3.02;-1.875;-12.6875;-1.5625
192056;9.02;-2.24;3.43;-2.1875;-11.125;-1.125
192056;9.05;-2.33;3.39;-1.3125;-5.6875;0.0625
192056;8.49;-1.78;3.88;5.125;-0.3125;-8.0
192056;8.66;-1.99;3.98;3.375;1.875;-9.9375
192056;8.71;-2.13;3.87;2.3125;2.0625;-9.875
192056;8.52;-2.25;3.42;1.6875;1.3125;-9.25
192057;8.06;-2.35;3.55;8.875;5.4375;-10.8125
192057;7.49;-2.16;3.31;8.8125;5.1875;-10.125
192057;7.19;-1.87;3.28;6.125;3.0;-7.125
192057;8.43;-1.84;3.21;1.1875;0.5625;-6.9375
192057;10.34;-3.71;1.84;7.3125;-9.875;-4.6875
192057;10.91;-4.27;2.08;13.0;-14.5;1.0625
192057;10.95;-3.43;3.13;25.5;-9.6875;13.8125
192057;9.11;-1.21;3.98;-2.9375;-4.75;9.1875
192057;10.25;-1.29;3.46;-2.375;-14.4375;9.6875
192057;11.11;-1.22;3.7;-3.375;-24.25;3.75
192057;12.63;-1.09;4.2;-2.75;-22.6875;1.6875
192057;9.4;0.15;3.28;-1.5625;-21.8125;-1.6875
192057;9.37;-0.01;3.27;-3.1875;-18.125;-2.5625
192057;8.54;-0.95;3.15;-3.125;-11.5625;-2.625
192057;8.95;-0.83;3.57;-9.5625;-4.875;5.4375
192057;8.87;-1.38;3.74;-8.8125;-3.4375;8.25
192057;8.74;-1.34;3.54;-6.875;-4.0625;11.625
192057;8.24;-1.2;3.47;-5.625;-4.875;11.5
192057;7.06;-1.57;2.93;3.9375;1.8125;17.1875
192057;7.0;-1.52;2.89;4.5;-2.3125;17.0
192058;7.26;-1.45;3.04;4.4375;-3.6875;16.75
192058;7.39;-1.47;3.2;4.9375;-2.8125;16.875
192058;10.07;-1.9;1.75;16.875;4.8125;18.75
192058;12.04;-1.15;2.14;12.75;0.875;19.75
192058;12.22;-0.79;2.81;5.0;3.0625;18.375
192058;10.08;-2.2;2.64;14.375;3.9375;-13.1875
192058;11.56;-3.5;3.49;26.375;-13.1875;12.25
192058;13.23;-3.46;5.18;26.0;-13.5625;22.75
192058;12.82;-3.59;5.46;20.5625;4.6875;24.0
192058;8.35;-2.72;3.49;3.25;-10.125;12.375
192058;7.4;-2.25;3.43;-0.75;-7.875;7.1875
192058;7.31;-2.1;3.31;-3.375;-8.5;3.4375
192058;7.36;-1.84;3.0;-7.75;-14.0625;-1.9375
192058;7.66;-1.58;3.81;-6.5625;-1.4375;-10.5625
192058;7.32;-1.42;3.66;-9.875;0.0;-12.625
192058;7.15;-1.47;3.72;-11.875;5.0625;-15.9375
192058;6.64;-3.3;3.69;-1.75;17.125;-20.0625
192058;5.92;-2.75;2.84;5.75;8.3125;-19.5
192058;5.83;-2.37;2.87;8.4375;3.9375;-16.3125
192058;6.57;-1.76;3.68;11.125;-1.125;-10.9375
192059;12.62;1.16;5.55;22.8125;14.9375;-17.1875
192059;12.67;1.07;7.76;17.5;12.25;-17.1875
192059;12.39;1.06;7.65;0.375;13.75;-16.8125
192059;8.62;0.28;4.56;4.0625;-4.5;-4.875
192059;7.74;0.25;3.27;-6.6875;-9.9375;-10.4375
192059;7.77;0.27;3.07;-10.375;-15.8125;-12.4375
192059;8.66;0.12;3.28;-15.4375;-25.0625;-12.6875
192059;7.89;-0.56;3.4;-16.8125;-15.5;0.625
192059;7.92;-0.68;3.34;-17.5;-15.3125;0.375
192059;7.98;-0.8;3.31;-19.125;-15.25;1.375
192059;8.27;-0.34;3.5;-3.5;2.0625;12.1875
192059;7.8;-0.43;3.37;-2.375;2.0625;11.5
192059;7.63;-0.5;3.27;-2.25;0.5625;11.3125
192059;7.5;-0.7;3.64;-3.5625;-1.625;10.8125
192059;8.78;-1.12;3.34;-9.3125;7.5625;8.5625
192059;10.72;-1.34;2.42;-9.375;7.375;10.875
192059;11.21;-1.28;1.86;-18.3125;0.625;11.0
192059;11.77;-1.59;2.16;-26.0;3.0;7.375
192059;11.03;-2.28;4.51;1.6875;15.25;-9.0
192059;10.56;-2.44;4.13;3.0;13.5625;-7.75
192059;9.57;-2.74;3.51;10.25;4.6875;4.5
192100;8.48;-1.8;3.39;12.6875;-12.6875;-0.1875
192100;8.46;-2.17;3.59;11.9375;-9.9375;0.0
192100;8.27;-2.35;3.46;12.0625;-5.1875;-0.1875
192100;7.47;-2.54;3.02;13.0625;-3.8125;0.0625
192100;7.64;-2.27;4.25;6.375;-0.875;-8.125
192100;7.83;-2.46;4.26;8.6875;-0.375;-9.0
192100;8.0;-2.88;3.89;15.25;-1.375;-9.5
192100;7.86;-2.77;3.59;20.1875;-2.375;-6.125
192100;8.16;-2.1;4.33;30.3125;-3.0625;1.5
192100;7.89;-2.54;4.37;31.4375;1.6875;3.5
192100;7.74;-2.4;4.23;29.9375;2.5625;4.125
192100;11.75;-0.26;4.89;33.875;-5.1875;16.0
192100;12.38;0.06;5.08;24.8125;-1.5625;13.1875
192100;12.77;0.27;5.88;23.4375;3.75;12.25
192100;12.22;-0.09;5.87;25.25;14.0;13.4375
192100;9.16;-1.17;3.68;13.625;-15.625;3.8125
192100;9.01;-0.73;3.3;12.0;-22.3125;4.5
192100;9.11;-0.6;3.43;11.625;-24.75;4.4375
192100;9.28;-0.48;3.75;10.1875;-26.625;3.0625
192100;7.53;-0.84;3.07;13.8125;-10.6875;8.25
192101;7.29;-0.66;3.17;13.1875;-10.6875;8.8125
192101;7.77;-0.73;3.52;13.125;-10.5625;10.125
192101;7.52;-1.05;3.41;7.0625;-1.375;12.75
192101;7.77;-1.3;4.23;8.8125;0.9375;15.4375
192101;7.99;-1.31;4.49;10.9375;2.75;16.875
192101;8.34;-1.1;4.79;14.875;5.625;18.125
192101;12.91;-4.07;3.9;39.125;19.0;4.3125
192101;11.81;-6.95;3.82;45.9375;23.6875;8.75
192101;11.55;-7.55;3.67;57.625;18.6875;15.625
192101;12.3;-5.29;5.68;52.75;15.3125;12.25
192101;8.67;-2.88;2.37;7.1875;-18.375;10.75
192101;8.49;-2.96;2.44;5.5;-19.5625;11.0625
192101;7.91;-2.95;2.63;6.8125;-22.9375;10.625
192101;8.33;-1.21;3.41;2.625;-23.875;-8.4375
192101;8.46;-1.34;3.58;0.875;-20.6875;-10.4375
192101;8.33;-1.73;3.51;0.3125;-16.3125;-11.375
