time,seconds_elapsed,z,y,x
1768421445852137200,0.06013720703125,0.017181396484375,-0.992767333984375,-0.06201171875
1768421445862137300,0.070137451171875,0.0131988525390625,-0.9970245361328125,-0.0652923583984375
1768421445872137200,0.08013720703125,0.014129638671875,-1.0009765625,-0.0682220458984375
1768421445882137300,0.090137451171875,0.0171356201171875,-1.0012969970703125,-0.0692901611328125
1768421445892137200,0.10013720703125,0.0184478759765625,-0.9972686767578125,-0.0708160400390625
1768421445902137300,0.110137451171875,0.015533447265625,-0.995086669921875,-0.071990966796875
1768421445912137200,0.12013720703125,0.014892578125,-0.99298095703125,-0.068267822265625
1768421445922136300,0.13013623046875,0.0172119140625,-0.995391845703125,-0.0650177001953125
1768421445932136200,0.14013623046875,0.020843505859375,-0.9986114501953125,-0.0619964599609375
1768421445942136300,0.15013623046875,0.0226593017578125,-1.00030517578125,-0.06207275390625
1768421445952136200,0.16013623046875,0.0247955322265625,-1.00238037109375,-0.06268310546875
1768421445962136300,0.17013623046875,0.024261474609375,-1.0007171630859375,-0.0620880126953125
1768421445972136200,0.18013623046875,0.0228118896484375,-1.000885009765625,-0.0635833740234375
1768421445982136300,0.19013623046875,0.0198822021484375,-1.0000762939453125,-0.0662384033203125
1768421445992136200,0.20013623046875,0.019744873046875,-1.002105712890625,-0.0689239501953125
1768421446002136300,0.21013623046875,0.021087646484375,-1.0013580322265625,-0.0698089599609375
1768421446012136200,0.22013623046875,0.0233612060546875,-0.999847412109375,-0.067352294921875
1768421446022136300,0.23013623046875,0.0222320556640625,-0.998138427734375,-0.066375732421875
1768421446032136200,0.24013623046875,0.0169219970703125,-0.998443603515625,-0.067291259765625
1768421446042136300,0.25013623046875,0.01885986328125,-0.999786376953125,-0.0671844482421875
1768421446052136200,0.26013623046875,0.0189208984375,-1.0015411376953125,-0.0676727294921875
1768421446062135300,0.27013525390625,0.021453857421875,-1.00390625,-0.0674896240234375
1768421446072135200,0.28013525390625,0.0220794677734375,-1.0039520263671875,-0.066375732421875
1768421446082135300,0.29013525390625,0.0203857421875,-1.004669189453125,-0.0670013427734375
1768421446092135200,0.30013525390625,0.019012451171875,-1.002349853515625,-0.06884765625
1768421446102135300,0.31013525390625,0.020294189453125,-1.00140380859375,-0.0693511962890625
1768421446112135200,0.32013525390625,0.02008056640625,-0.999603271484375,-0.068389892578125
1768421446122135000,0.330135009765625,0.0190582275390625,-1.000457763671875,-0.0683746337890625
1768421446132135200,0.34013525390625,0.017547607421875,-1.0000152587890625,-0.06890869140625
1768421446142135000,0.350135009765625,0.0179443359375,-1.0016326904296875,-0.0695648193359375
1768421446152135200,0.36013525390625,0.01629638671875,-1.0028076171875,-0.0707244873046875
1768421446162135000,0.370135009765625,0.0185394287109375,-0.999481201171875,-0.0644989013671875
1768421446172135200,0.38013525390625,0.017333984375,-0.9951019287109375,-0.06524658203125
1768421446182135300,0.39013525390625,0.0117034912109375,-0.9997100830078125,-0.069793701171875
1768421446192135400,0.400135498046875,0.0154571533203125,-0.9957275390625,-0.0642547607421875
1768421446202135300,0.41013525390625,0.0177764892578125,-0.9918060302734375,-0.0594329833984375
1768421446212134100,0.420134033203125,0.0157012939453125,-0.9924774169921875,-0.061798095703125
1768421446222134000,0.430134033203125,0.016510009765625,-0.9940032958984375,-0.0631103515625
1768421446232134400,0.440134521484375,0.01849365234375,-0.9975433349609375,-0.0606842041015625
1768421446242134300,0.45013427734375,0.0178680419921875,-0.99945068359375,-0.05816650390625
1768421446252134400,0.460134521484375,0.0175628662109375,-1.001251220703125,-0.05718994140625
1768421446262134300,0.47013427734375,0.0162506103515625,-1.00189208984375,-0.0584869384765625
1768421446272134400,0.480134521484375,0.0170745849609375,-1.0004425048828125,-0.0565185546875
1768421446282134300,0.49013427734375,0.0154571533203125,-0.9996185302734375,-0.0586700439453125
1768421446292134400,0.500134521484375,0.015380859375,-0.9988555908203125,-0.058685302734375
1768421446302134300,0.51013427734375,0.0146636962890625,-0.9978179931640625,-0.05828857421875
1768421446312134100,0.520134033203125,0.0154266357421875,-0.996429443359375,-0.055267333984375
1768421446322134300,0.53013427734375,0.016082763671875,-0.998016357421875,-0.0546417236328125
1768421446332134400,0.540134521484375,0.0157928466796875,-0.99658203125,-0.0576019287109375
1768421446342133500,0.550133544921875,0.0143280029296875,-0.9982757568359375,-0.0570831298828125
1768421446352133600,0.560133544921875,0.013641357421875,-1.0005950927734375,-0.0568084716796875
1768421446362133500,0.570133544921875,0.0126495361328125,-1.0019378662109375,-0.0560302734375
1768421446372133400,0.58013330078125,0.0123443603515625,-1.0024566650390625,-0.055419921875
1768421446382133500,0.590133544921875,0.012298583984375,-1.0032806396484375,-0.0556793212890625
1768421446392133400,0.60013330078125,0.0121612548828125,-1.0019073486328125,-0.0565032958984375
1768421446402133500,0.610133544921875,0.013275146484375,-1.0044403076171875,-0.0586700439453125
1768421446412133400,0.62013330078125,0.011383056640625,-1.00555419921875,-0.0600738525390625
1768421446422133500,0.630133544921875,0.010040283203125,-1.0042266845703125,-0.06146240234375
1768421446432133400,0.64013330078125,0.007354736328125,-1.003143310546875,-0.0646514892578125
1768421446442133500,0.650133544921875,0.00726318359375,-1.000457763671875,-0.0634307861328125
1768421446452133400,0.66013330078125,0.0089569091796875,-0.9993743896484375,-0.0608062744140625
1768421446462133500,0.670133544921875,0.009857177734375,-0.99932861328125,-0.0597381591796875
1768421446472133400,0.68013330078125,0.0096893310546875,-0.998870849609375,-0.0551910400390625
1768421446482132500,0.690132568359375,0.0101318359375,-0.9985504150390625,-0.0534210205078125
1768421446492132400,0.70013232421875,0.0117340087890625,-0.9973907470703125,-0.05462646484375
1768421446502132500,0.710132568359375,0.010650634765625,-0.996795654296875,-0.0548553466796875
1768421446512132400,0.72013232421875,0.01153564453125,-0.9966278076171875,-0.05194091796875
1768421446522132500,0.730132568359375,0.0117034912109375,-0.994873046875,-0.0520172119140625
1768421446532132400,0.74013232421875,0.0135345458984375,-0.9967498779296875,-0.053741455078125
1768421446542132500,0.750132568359375,0.0122528076171875,-0.9990997314453125,-0.055999755859375
1768421446552132400,0.76013232421875,0.012939453125,-1.000579833984375,-0.0562591552734375
1768421446562132500,0.770132568359375,0.0120849609375,-1.0028076171875,-0.05731201171875
1768421446572132400,0.78013232421875,0.013580322265625,-1.004364013671875,-0.0557708740234375
1768421446582132200,0.79013232421875,0.0125732421875,-1.0036468505859375,-0.0545196533203125
1768421446592132400,0.80013232421875,0.00885009765625,-1.0025177001953125,-0.052093505859375
1768421446602132200,0.81013232421875,0.008514404296875,-1.00372314453125,-0.053192138671875
1768421446612132600,0.820132568359375,0.0153350830078125,-1.00341796875,-0.0565032958984375
1768421446622131500,0.83013134765625,0.019256591796875,-1.0039825439453125,-0.060760498046875
1768421446632131300,0.84013134765625,0.0149993896484375,-1.00164794921875,-0.0608062744140625
1768421446642131500,0.85013134765625,0.009613037109375,-0.997467041015625,-0.0625152587890625
1768421446652131300,0.86013134765625,0.0058441162109375,-0.9961700439453125,-0.0653076171875
1768421446662131500,0.87013134765625,0.00640869140625,-0.9985504150390625,-0.065673828125
1768421446672131600,0.880131591796875,0.0100555419921875,-1.002410888671875,-0.065521240234375
1768421446682131500,0.89013134765625,0.0118865966796875,-1.004302978515625,-0.0648956298828125
1768421446692131600,0.900131591796875,0.0108489990234375,-1.002105712890625,-0.0621185302734375
1768421446702131500,0.91013134765625,0.0118255615234375,-1.0001220703125,-0.0606231689453125
1768421446712131600,0.920131591796875,0.01361083984375,-0.9995880126953125,-0.06024169921875
1768421446722131500,0.93013134765625,0.011199951171875,-1.000518798828125,-0.0635833740234375
1768421446732131600,0.940131591796875,0.0092620849609375,-1.0030517578125,-0.06494140625
1768421446742131500,0.95013134765625,0.0111083984375,-1.005096435546875,-0.064300537109375
1768421446752131600,0.960131591796875,0.012115478515625,-1.005218505859375,-0.0650787353515625
1768421446762131500,0.97013134765625,0.011627197265625,-1.0009765625,-0.0653533935546875
1768421446772130600,0.980130615234375,0.0099334716796875,-0.998046875,-0.06292724609375
1768421446782130400,0.99013037109375,0.0117340087890625,-0.998016357421875,-0.0616607666015625
1768421446792130600,1.000130615234375,0.0134735107421875,-1.0005645751953125,-0.058319091796875
1768421446802130400,1.01013037109375,0.0140533447265625,-1.0045166015625,-0.05889892578125
1768421446812130600,1.020130615234375,0.0149993896484375,-1.0055999755859375,-0.0598907470703125
1768421446822130400,1.03013037109375,0.014404296875,-1.005340576171875,-0.0631103515625
1768421446832130600,1.040130615234375,0.0136566162109375,-1.0039825439453125,-0.06317138671875
1768421446842130400,1.05013037109375,0.0181427001953125,-1.002044677734375,-0.0632476806640625
1768421446852130300,1.06013037109375,0.018768310546875,-1.003570556640625,-0.062103271484375
1768421446862130400,1.07013037109375,0.01995849609375,-1.005615234375,-0.058837890625
1768421446872130300,1.08013037109375,0.020233154296875,-1.00579833984375,-0.0601959228515625
1768421446882130400,1.09013037109375,0.019500732421875,-1.0036163330078125,-0.06060791015625
1768421446892130300,1.10013037109375,0.015167236328125,-0.9988555908203125,-0.0627593994140625
1768421446902129400,1.11012939453125,0.011871337890625,-0.9962158203125,-0.0643157958984375
1768421446912129300,1.12012939453125,0.008331298828125,-0.9922943115234375,-0.06298828125
1768421446922129400,1.13012939453125,0.008941650390625,-0.9913482666015625,-0.0610504150390625
1768421446932129300,1.14012939453125,0.0108489990234375,-0.99261474609375,-0.0583343505859375
1768421446942129400,1.15012939453125,0.010467529296875,-0.995330810546875,-0.057952880859375
1768421446952129300,1.16012939453125,0.0133209228515625,-0.9990386962890625,-0.055633544921875
1768421446962129400,1.17012939453125,0.016937255859375,-1.00177001953125,-0.0553741455078125
1768421446972129300,1.18012939453125,0.020355224609375,-1.0017242431640625,-0.055419921875
1768421446982129400,1.19012939453125,0.018829345703125,-1.000579833984375,-0.0576171875
1768421446992129300,1.20012939453125,0.0181121826171875,-1.0001220703125,-0.0606689453125
1768421447002129700,1.210129638671875,0.017547607421875,-0.9968719482421875,-0.0631103515625
1768421447012129500,1.220129638671875,0.0154571533203125,-0.995941162109375,-0.0657958984375
1768421447022129400,1.23012939453125,0.01544189453125,-0.996856689453125,-0.0659027099609375
1768421447032129500,1.240129638671875,0.0150604248046875,-0.995452880859375,-0.0643310546875
1768421447042129400,1.25012939453125,0.0150909423828125,-0.9947357177734375,-0.0633697509765625
1768421447052128500,1.26012841796875,0.014617919921875,-0.9949951171875,-0.059112548828125
1768421447062128600,1.270128662109375,0.0147705078125,-0.995086669921875,-0.0532989501953125
1768421447072128500,1.28012841796875,0.017333984375,-0.9952392578125,-0.0491180419921875
1768421447082128600,1.290128662109375,0.0182342529296875,-0.998687744140625,-0.052459716796875
1768421447092128500,1.30012841796875,0.016815185546875,-1.005401611328125,-0.0604705810546875
1768421447102128400,1.31012841796875,0.018646240234375,-1.0125732421875,-0.0662841796875
1768421447112128500,1.32012841796875,0.0213470458984375,-1.0165863037109375,-0.0653228759765625
1768421447122128400,1.33012841796875,0.02288818359375,-1.0157318115234375,-0.0608978271484375
1768421447132128500,1.34012841796875,0.020050048828125,-1.009765625,-0.0584259033203125
1768421447142128400,1.35012841796875,0.018646240234375,-1.001251220703125,-0.0550384521484375
1768421447152128500,1.36012841796875,0.0192718505859375,-0.9957122802734375,-0.0525360107421875
1768421447162128400,1.37012841796875,0.017364501953125,-0.9932098388671875,-0.0528564453125
1768421447172128500,1.38012841796875,0.0177459716796875,-0.9951934814453125,-0.0528564453125
1768421447182127400,1.39012744140625,0.0188140869140625,-0.99853515625,-0.0551910400390625
1768421447192127500,1.40012744140625,0.021881103515625,-1.0016632080078125,-0.056884765625
1768421447202127400,1.41012744140625,0.022979736328125,-1.003753662109375,-0.0578765869140625
1768421447212127500,1.42012744140625,0.02325439453125,-1.003692626953125,-0.0581207275390625
1768421447222127400,1.43012744140625,0.023345947265625,-1.0001220703125,-0.059722900390625
1768421447232127500,1.44012744140625,0.022125244140625,-0.9994659423828125,-0.061614990234375
1768421447242127400,1.45012744140625,0.020416259765625,-0.99981689453125,-0.064300537109375
1768421447252127500,1.46012744140625,0.0186309814453125,-0.99786376953125,-0.0659942626953125
1768421447262127400,1.47012744140625,0.0186309814453125,-0.9963226318359375,-0.0677490234375
1768421447272127500,1.48012744140625,0.0204315185546875,-0.9987945556640625,-0.069793701171875
1768421447282127400,1.49012744140625,0.017822265625,-1.0002593994140625,-0.069549560546875
1768421447292127500,1.50012744140625,0.01873779296875,-1.00311279296875,-0.0677032470703125
1768421447302127400,1.51012744140625,0.0198516845703125,-1.0020294189453125,-0.0682525634765625
1768421447312127200,1.520127197265625,0.01971435546875,-0.9998321533203125,-0.066131591796875
1768421447322126300,1.530126220703125,0.019683837890625,-0.9959716796875,-0.066741943359375
1768421447332126700,1.540126708984375,0.021514892578125,-0.9958953857421875,-0.0682525634765625
1768421447342126600,1.550126708984375,0.023406982421875,-0.99517822265625,-0.0700225830078125
1768421447352126700,1.560126708984375,0.02252197265625,-0.9966278076171875,-0.072906494140625
1768421447362126600,1.570126708984375,0.0202484130859375,-0.99542236328125,-0.07379150390625
1768421447372126500,1.58012646484375,0.018890380859375,-0.9981689453125,-0.0753326416015625
1768421447382126600,1.590126708984375,0.0211334228515625,-0.997833251953125,-0.0748748779296875
1768421447392126500,1.60012646484375,0.0198974609375,-0.9963531494140625,-0.072906494140625
1768421447402126600,1.610126708984375,0.0164337158203125,-0.9938201904296875,-0.070526123046875
1768421447412126500,1.62012646484375,0.0182952880859375,-0.9962615966796875,-0.0702667236328125
1768421447422126600,1.630126708984375,0.0232391357421875,-0.99871826171875,-0.07098388671875
1768421447432126500,1.64012646484375,0.025726318359375,-0.9966278076171875,-0.0725250244140625
1768421447442126600,1.650126708984375,0.022857666015625,-0.9936065673828125,-0.072296142578125
1768421447452125400,1.66012548828125,0.0170745849609375,-0.992706298828125,-0.0738067626953125
1768421447462125600,1.67012548828125,0.018280029296875,-0.9965057373046875,-0.0766448974609375
1768421447472125400,1.68012548828125,0.0183563232421875,-1.0022735595703125,-0.0798797607421875
1768421447482125600,1.69012548828125,0.022369384765625,-1.00689697265625,-0.080810546875
1768421447492125400,1.70012548828125,0.0224456787109375,-1.006683349609375,-0.0796966552734375
1768421447502125600,1.71012548828125,0.0177459716796875,-1.0011138916015625,-0.0752105712890625
1768421447512125400,1.72012548828125,0.0187835693359375,-0.9972991943359375,-0.0718536376953125
1768421447522125800,1.730125732421875,0.01605224609375,-0.995880126953125,-0.0680999755859375
1768421447532125700,1.740125732421875,0.012359619140625,-0.995697021484375,-0.063385009765625
1768421447542125800,1.750125732421875,0.015106201171875,-0.9973602294921875,-0.0604705810546875
1768421447552125700,1.760125732421875,0.0210113525390625,-0.998931884765625,-0.05816650390625
1768421447562125600,1.77012548828125,0.0284881591796875,-0.9994964599609375,-0.062591552734375
1768421447572125700,1.780125732421875,0.029449462890625,-1.0064544677734375,-0.0689697265625
1768421447582124800,1.790124755859375,0.0283050537109375,-1.0109405517578125,-0.07366943359375
1768421447592124700,1.800124755859375,0.023284912109375,-1.0116729736328125,-0.0777435302734375
1768421447602124800,1.810124755859375,0.0238037109375,-1.009307861328125,-0.0757293701171875
1768421447612124700,1.820124755859375,0.0208740234375,-1.004913330078125,-0.0718994140625
1768421447622124500,1.83012451171875,0.020660400390625,-0.9971923828125,-0.065887451171875
1768421447632124700,1.840124755859375,0.0210723876953125,-0.9931640625,-0.0615692138671875
1768421447642124500,1.85012451171875,0.024383544921875,-0.9956817626953125,-0.0605010986328125
1768421447652124700,1.860124755859375,0.0264129638671875,-1.003021240234375,-0.0621795654296875
1768421447662124500,1.87012451171875,0.029327392578125,-1.0081024169921875,-0.0683746337890625
1768421447672124700,1.880124755859375,0.02813720703125,-1.0092010498046875,-0.0727691650390625
1768421447682124500,1.89012451171875,0.0263214111328125,-1.0044097900390625,-0.0748291015625
1768421447692124700,1.900124755859375,0.024871826171875,-0.998565673828125,-0.07257080078125
1768421447702124500,1.91012451171875,0.021270751953125,-0.9911651611328125,-0.06982421875
1768421447712123600,1.92012353515625,0.0234527587890625,-0.9888916015625,-0.0687103271484375
1768421447722123500,1.93012353515625,0.02520751953125,-0.9888153076171875,-0.067535400390625
1768421447732123600,1.94012353515625,0.027008056640625,-0.99261474609375,-0.068328857421875
1768421447742123500,1.95012353515625,0.0303192138671875,-0.99603271484375,-0.0693359375
1768421447752123600,1.96012353515625,0.031341552734375,-0.99652099609375,-0.0694122314453125
1768421447762123500,1.97012353515625,0.0298614501953125,-0.9977569580078125,-0.07122802734375
1768421447772123600,1.98012353515625,0.0264434814453125,-0.9945068359375,-0.070068359375
1768421447782123500,1.99012353515625,0.0268096923828125,-0.9928741455078125,-0.070526123046875
1768421447792123600,2.00012353515625,0.0281829833984375,-0.9952545166015625,-0.073638916015625
1768421447802123500,2.01012353515625,0.0305328369140625,-1.0010833740234375,-0.0797882080078125
1768421447812123600,2.02012353515625,0.033233642578125,-1.00640869140625,-0.0822906494140625
1768421447822123500,2.03012353515625,0.034271240234375,-1.01300048828125,-0.084075927734375
1768421447832123400,2.040123291015625,0.0330047607421875,-1.014556884765625,-0.085693359375
1768421447842122500,2.05012255859375,0.03265380859375,-1.0073699951171875,-0.0855255126953125
1768421447852122600,2.06012255859375,0.029083251953125,-0.9965667724609375,-0.082977294921875
1768421447862122500,2.07012255859375,0.0269622802734375,-0.9873046875,-0.0795440673828125
1768421447872122600,2.08012255859375,0.025177001953125,-0.9816741943359375,-0.0746002197265625
1768421447882122500,2.09012255859375,0.021514892578125,-0.9808349609375,-0.073883056640625
1768421447892122600,2.10012255859375,0.0240325927734375,-0.9873809814453125,-0.07537841796875
1768421447902122500,2.11012255859375,0.0238494873046875,-0.991973876953125,-0.07501220703125
1768421447912122400,2.120122314453125,0.028717041015625,-0.99786376953125,-0.0758514404296875
1768421447922122800,2.130122802734375,0.0327911376953125,-1.0043792724609375,-0.0778961181640625
1768421447932122600,2.14012255859375,0.0319671630859375,-1.0091400146484375,-0.0749359130859375
1768421447942122800,2.150122802734375,0.033935546875,-1.0096588134765625,-0.074859619140625
1768421447952122600,2.16012255859375,0.032684326171875,-1.0082244873046875,-0.0750579833984375
1768421447962122800,2.170122802734375,0.028594970703125,-1.0023345947265625,-0.0723114013671875
1768421447972121600,2.18012158203125,0.0276031494140625,-0.99591064453125,-0.0699920654296875
1768421447982121700,2.190121826171875,0.023712158203125,-0.988922119140625,-0.0635223388671875
1768421447992121600,2.20012158203125,0.0208282470703125,-0.9795379638671875,-0.0565185546875
1768421448002121700,2.210121826171875,0.0219573974609375,-0.9708709716796875,-0.0492401123046875
1768421448012121600,2.22012158203125,0.0207366943359375,-0.9649810791015625,-0.0408172607421875
1768421448022121700,2.230121826171875,0.017486572265625,-0.9594268798828125,-0.0371551513671875
1768421448032121600,2.24012158203125,0.0161285400390625,-0.9537200927734375,-0.039520263671875
1768421448042121700,2.250121826171875,0.014312744140625,-0.95208740234375,-0.0468597412109375
1768421448052121600,2.26012158203125,0.0107574462890625,-0.961212158203125,-0.0579071044921875
1768421448062121700,2.270121826171875,0.0040283203125,-0.9830474853515625,-0.069183349609375
1768421448072121600,2.28012158203125,0.0000152587890625,-1.0091705322265625,-0.076141357421875
1768421448082121700,2.290121826171875,0.0016021728515625,-1.0300140380859375,-0.072235107421875
1768421448092121600,2.30012158203125,-0.00030517578125,-1.0441436767578125,-0.061767578125
1768421448102120700,2.31012060546875,-0.00958251953125,-1.050445556640625,-0.0464019775390625
1768421448112120600,2.32012060546875,-0.0157623291015625,-1.050323486328125,-0.0303955078125
1768421448122120700,2.33012060546875,-0.0194091796875,-1.0494232177734375,-0.020721435546875
1768421448132120600,2.34012060546875,-0.011199951171875,-1.0540924072265625,-0.028900146484375
1768421448142120700,2.35012060546875,0.001922607421875,-1.0640869140625,-0.0461883544921875
1768421448152120600,2.36012060546875,-0.0033721923828125,-1.0645599365234375,-0.050567626953125
1768421448162120700,2.37012060546875,-0.0228118896484375,-1.04364013671875,-0.0466461181640625
1768421448172120600,2.38012060546875,-0.0375518798828125,-1.014129638671875,-0.0373687744140625
1768421448182120400,2.390120361328125,-0.0473175048828125,-0.981597900390625,-0.0233917236328125
1768421448192120600,2.40012060546875,-0.04608154296875,-0.95928955078125,-0.003204345703125
1768421448202120400,2.410120361328125,-0.038726806640625,-0.94757080078125,0.015716552734375
1768421448212120600,2.42012060546875,-0.02423095703125,-0.95050048828125,0.0311126708984375
1768421448222119700,2.43011962890625,-0.010223388671875,-0.962432861328125,0.031951904296875
1768421448232119600,2.44011962890625,0.006500244140625,-0.9766693115234375,0.02545166015625
1768421448242119400,2.450119384765625,0.0177459716796875,-0.9870147705078125,0.0141754150390625
1768421448252119600,2.46011962890625,0.0156097412109375,-0.9808502197265625,-0.0005340576171875
1768421448262119400,2.470119384765625,0.0050506591796875,-0.9671173095703125,-0.018096923828125
1768421448272119600,2.48011962890625,-0.003692626953125,-0.9499664306640625,-0.0439453125
1768421448282119400,2.490119384765625,-0.01397705078125,-0.931884765625,-0.074371337890625
1768421448292119600,2.50011962890625,-0.025787353515625,-0.920623779296875,-0.101959228515625
1768421448302119400,2.510119384765625,-0.0463409423828125,-0.9163665771484375,-0.1186370849609375
1768421448312119600,2.52011962890625,-0.0807647705078125,-0.925079345703125,-0.1186065673828125
1768421448322119700,2.53011962890625,-0.1114959716796875,-0.948516845703125,-0.1052398681640625
1768421448332119800,2.540119873046875,-0.1239013671875,-0.9883880615234375,-0.0869293212890625
1768421448342119700,2.55011962890625,-0.1171875,-1.029327392578125,-0.0628814697265625
1768421448352118800,2.560118896484375,-0.095550537109375,-1.060760498046875,-0.047088623046875
1768421448362118700,2.57011865234375,-0.063568115234375,-1.07440185546875,-0.0389556884765625
1768421448372118800,2.580118896484375,-0.0386810302734375,-1.0697784423828125,-0.0363922119140625
1768421448382118700,2.59011865234375,-0.0491485595703125,-1.056915283203125,-0.040679931640625
1768421448392118800,2.600118896484375,-0.087615966796875,-1.047760009765625,-0.048553466796875
1768421448402118700,2.61011865234375,-0.1256103515625,-1.04437255859375,-0.0618438720703125
1768421448412118800,2.620118896484375,-0.1378021240234375,-1.051544189453125,-0.07562255859375
1768421448422118700,2.63011865234375,-0.135498046875,-1.0679931640625,-0.0973663330078125
1768421448432118500,2.640118408203125,-0.1441802978515625,-1.0809783935546875,-0.1070098876953125
1768421448442118700,2.65011865234375,-0.1518707275390625,-1.0912322998046875,-0.099365234375
1768421448452118500,2.660118408203125,-0.1495208740234375,-1.091156005859375,-0.0850830078125
1768421448462118700,2.67011865234375,-0.1365966796875,-1.0792236328125,-0.06597900390625
1768421448472118500,2.680118408203125,-0.122467041015625,-1.0557708740234375,-0.04949951171875
1768421448482117600,2.69011767578125,-0.1133575439453125,-1.0205230712890625,-0.0399322509765625
1768421448492117800,2.70011767578125,-0.10516357421875,-0.9844512939453125,-0.042449951171875
1768421448502117600,2.71011767578125,-0.0988922119140625,-0.9453887939453125,-0.0484161376953125
1768421448512117500,2.720117431640625,-0.087799072265625,-0.9127197265625,-0.058868408203125
1768421448522117600,2.73011767578125,-0.07806396484375,-0.8873138427734375,-0.0782623291015625
1768421448532117500,2.740117431640625,-0.07635498046875,-0.8702545166015625,-0.1002044677734375
1768421448542117600,2.75011767578125,-0.0866546630859375,-0.8670196533203125,-0.1154632568359375
1768421448552117500,2.760117431640625,-0.1019439697265625,-0.8704986572265625,-0.1230621337890625
1768421448562117600,2.77011767578125,-0.102081298828125,-0.878082275390625,-0.131256103515625
1768421448572117800,2.78011767578125,-0.099884033203125,-0.8898162841796875,-0.1397552490234375
1768421448582118000,2.790117919921875,-0.1009368896484375,-0.907379150390625,-0.1420440673828125
1768421448592117800,2.80011767578125,-0.104034423828125,-0.92657470703125,-0.1372833251953125
1768421448602116600,2.81011669921875,-0.1106414794921875,-0.948394775390625,-0.125335693359375
1768421448612116500,2.820116455078125,-0.1036224365234375,-0.9541015625,-0.1210479736328125
1768421448622116900,2.830116943359375,-0.10870361328125,-0.9555511474609375,-0.1181640625
1768421448632116700,2.84011669921875,-0.12176513671875,-0.9510650634765625,-0.1193389892578125
1768421448642116900,2.850116943359375,-0.1356201171875,-0.944183349609375,-0.119903564453125
1768421448652116700,2.86011669921875,-0.141937255859375,-0.9410552978515625,-0.1179046630859375
1768421448662116900,2.870116943359375,-0.138214111328125,-0.9423370361328125,-0.1139373779296875
1768421448672116700,2.88011669921875,-0.1297607421875,-0.9495697021484375,-0.1085052490234375
1768421448682116900,2.890116943359375,-0.130889892578125,-0.96417236328125,-0.0950469970703125
1768421448692116700,2.90011669921875,-0.1427764892578125,-0.97723388671875,-0.0785369873046875
1768421448702116600,2.91011669921875,-0.165618896484375,-0.9890594482421875,-0.0583038330078125
1768421448712116700,2.92011669921875,-0.1867218017578125,-0.9918670654296875,-0.0395050048828125
1768421448722115800,2.93011572265625,-0.2048492431640625,-0.9854583740234375,-0.0247039794921875
1768421448732115700,2.94011572265625,-0.2213287353515625,-0.9745330810546875,-0.0044403076171875
1768421448742115800,2.95011572265625,-0.2318878173828125,-0.96429443359375,0.013458251953125
1768421448752115700,2.96011572265625,-0.2366485595703125,-0.953582763671875,0.0185546875
1768421448762115800,2.97011572265625,-0.239532470703125,-0.9451446533203125,0.0192718505859375
1768421448772115700,2.98011572265625,-0.2450103759765625,-0.93994140625,0.01800537109375
1768421448782115600,2.990115478515625,-0.249908447265625,-0.94464111328125,0.0204315185546875
1768421448792115700,3.00011572265625,-0.2528839111328125,-0.9560699462890625,0.02740478515625
1768421448802115600,3.010115478515625,-0.24981689453125,-0.971466064453125,0.033111572265625
1768421448812115700,3.02011572265625,-0.2429351806640625,-0.9920196533203125,0.0318145751953125
1768421448822115600,3.030115478515625,-0.236663818359375,-1.0102386474609375,0.0238189697265625
1768421448832115700,3.04011572265625,-0.1872711181640625,-1.0218658447265625,-0.021026611328125
1768421448842115600,3.050115478515625,-0.075469970703125,-1.0542449951171875,-0.10699462890625
1768421448852114700,3.06011474609375,0.0749359130859375,-1.2140960693359375,-0.1829376220703125
1768421448862114600,3.070114501953125,0.177154541015625,-1.537628173828125,-0.2123565673828125
1768421448872114700,3.08011474609375,0.068817138671875,-1.75140380859375,-0.1690521240234375
1768421448882114600,3.090114501953125,-0.0533447265625,-1.6820068359375,-0.0826568603515625
1768421448892114700,3.10011474609375,-0.1058197021484375,-1.421722412109375,-0.092926025390625
1768421448902114600,3.110114501953125,-0.121246337890625,-1.1397247314453125,-0.2019195556640625
1768421448912114700,3.12011474609375,-0.12945556640625,-0.935394287109375,-0.2063751220703125
1768421448922114600,3.130114501953125,-0.1066436767578125,-0.8280792236328125,-0.16241455078125
1768421448932114700,3.14011474609375,-0.08489990234375,-0.845458984375,-0.1468658447265625
1768421448942114600,3.150114501953125,-0.0087432861328125,-0.933746337890625,-0.135223388671875
1768421448952114700,3.16011474609375,0.1426849365234375,-1.067413330078125,-0.152496337890625
1768421448962114600,3.170114501953125,0.289764404296875,-1.219879150390625,-0.1817169189453125
1768421448972113700,3.18011376953125,0.3375244140625,-1.3753814697265625,-0.1983489990234375
1768421448982113500,3.190113525390625,0.327484130859375,-1.436614990234375,-0.1676025390625
1768421448992113700,3.20011376953125,0.3561248779296875,-1.322509765625,-0.097869873046875
1768421449002113500,3.210113525390625,0.368408203125,-1.143310546875,-0.0381927490234375
1768421449012113700,3.22011376953125,0.3016815185546875,-1.01214599609375,-0.0081634521484375
1768421449022113800,3.23011376953125,0.22515869140625,-0.90478515625,0.03125
1768421449032113700,3.24011376953125,0.1525421142578125,-0.83367919921875,0.0599212646484375
1768421449042113800,3.25011376953125,0.108489990234375,-0.7977447509765625,0.0494537353515625
1768421449052113700,3.26011376953125,0.0870819091796875,-0.79339599609375,-0.002227783203125
1768421449062113800,3.27011376953125,0.086761474609375,-0.8317108154296875,-0.0828094482421875
1768421449072113700,3.28011376953125,0.11065673828125,-0.8866424560546875,-0.141693115234375
1768421449082113800,3.29011376953125,0.134124755859375,-0.9364776611328125,-0.1626434326171875
1768421449092113700,3.30011376953125,0.1334381103515625,-0.9790496826171875,-0.1656494140625
1768421449102112800,3.31011279296875,0.12225341796875,-1.0006866455078125,-0.14764404296875
1768421449112112600,3.320112548828125,0.1095733642578125,-1.006744384765625,-0.1166229248046875
1768421449122112800,3.33011279296875,0.08538818359375,-0.9911346435546875,-0.0830230712890625
1768421449132112600,3.340112548828125,0.0655059814453125,-0.9659881591796875,-0.05120849609375
1768421449142112800,3.35011279296875,0.059234619140625,-0.92694091796875,-0.019378662109375
1768421449152112600,3.360112548828125,0.0682373046875,-0.8843994140625,0.0091094970703125
1768421449162112800,3.37011279296875,0.0767669677734375,-0.850616455078125,0.0334930419921875
1768421449172112600,3.380112548828125,0.078582763671875,-0.8249969482421875,0.0576324462890625
1768421449182112800,3.39011279296875,0.0854034423828125,-0.81591796875,0.07550048828125
1768421449192112600,3.400112548828125,0.09619140625,-0.8235321044921875,0.0872650146484375
1768421449202112800,3.41011279296875,0.1024322509765625,-0.8413848876953125,0.098968505859375
1768421449212112600,3.420112548828125,0.100433349609375,-0.8631439208984375,0.102752685546875
1768421449222111700,3.43011181640625,0.08929443359375,-0.8809814453125,0.106475830078125
1768421449232111600,3.440111572265625,0.07684326171875,-0.8970794677734375,0.10211181640625
1768421449242111700,3.45011181640625,0.069732666015625,-0.909759521484375,0.085968017578125
1768421449252111600,3.460111572265625,0.0649566650390625,-0.9196319580078125,0.056671142578125
1768421449262111700,3.47011181640625,0.06591796875,-0.9298553466796875,0.0186309814453125
1768421449272111600,3.480111572265625,0.058807373046875,-0.944427490234375,-0.0260009765625
1768421449282111700,3.49011181640625,0.0330657958984375,-0.96002197265625,-0.06378173828125
1768421449292111600,3.500111572265625,-0.0036468505859375,-0.97320556640625,-0.075347900390625
1768421449302111700,3.51011181640625,-0.03643798828125,-0.9776153564453125,-0.0647430419921875
1768421449312111600,3.520111572265625,-0.0597381591796875,-0.9759368896484375,-0.036529541015625
1768421449322111500,3.530111572265625,-0.0691070556640625,-0.96630859375,-0.0024566650390625
1768421449332111000,3.540111083984375,-0.0571136474609375,-0.9582672119140625,0.0512237548828125
1768421449342110200,3.550110107421875,-0.0306549072265625,-0.9564208984375,0.1092987060546875
1768421449352110000,3.560110107421875,-0.01983642578125,-0.947418212890625,0.1567230224609375
1768421449362110200,3.570110107421875,-0.02960205078125,-0.9429473876953125,0.179107666015625
1768421449372110000,3.580110107421875,-0.0540313720703125,-0.9339447021484375,0.1681060791015625
1768421449382110200,3.590110107421875,-0.07611083984375,-0.9267425537109375,0.1318206787109375
1768421449392110000,3.600110107421875,-0.083953857421875,-0.912628173828125,0.088287353515625
1768421449402110500,3.6101103515625,-0.091400146484375,-0.89874267578125,0.0497283935546875
1768421449412110300,3.6201103515625,-0.090423583984375,-0.8852691650390625,0.024169921875
1768421449422110200,3.630110107421875,-0.0848846435546875,-0.8732147216796875,0.004425048828125
1768421449432110300,3.6401103515625,-0.07537841796875,-0.8729705810546875,-0.0086669921875
1768421449442110200,3.650110107421875,-0.0618743896484375,-0.878875732421875,-0.0115203857421875
1768421449452110300,3.6601103515625,-0.0531005859375,-0.9029083251953125,-0.013397216796875
1768421449462110200,3.670110107421875,-0.04693603515625,-0.9350433349609375,-0.0147552490234375
1768421449472109300,3.680109375,-0.03619384765625,-0.96160888671875,-0.0162353515625
1768421449482109200,3.690109130859375,-0.0300750732421875,-0.9923095703125,-0.03509521484375
1768421449492109300,3.700109375,-0.0229339599609375,-1.016082763671875,-0.0442657470703125
1768421449502109200,3.710109130859375,-0.0403594970703125,-1.0395355224609375,-0.0550384521484375
1768421449512109300,3.720109375,-0.0978240966796875,-1.0839691162109375,-0.0892486572265625
1768421449522109200,3.730109130859375,-0.1550750732421875,-1.1215972900390625,-0.099334716796875
1768421449532109300,3.740109375,-0.2084197998046875,-1.1605072021484375,-0.101470947265625
1768421449542109200,3.750109130859375,-0.248138427734375,-1.1775360107421875,-0.105255126953125
1768421449552109300,3.760109375,-0.2528076171875,-1.1580963134765625,-0.1042327880859375
1768421449562109200,3.770109130859375,-0.1823577880859375,-1.1184234619140625,-0.082183837890625
1768421449572109300,3.780109375,-0.04620361328125,-1.1024322509765625,-0.0460205078125
1768421449582108200,3.790108154296875,0.1285247802734375,-1.17694091796875,-0.00164794921875
1768421449592108300,3.8001083984375,0.3979339599609375,-1.3523712158203125,0.0413665771484375
1768421449602108200,3.810108154296875,0.559478759765625,-1.52264404296875,0.079132080078125
1768421449612108300,3.8201083984375,0.5558013916015625,-1.6092987060546875,0.183013916015625
1768421449622108200,3.830108154296875,0.611053466796875,-1.540374755859375,0.35992431640625
1768421449632108300,3.8401083984375,0.64031982421875,-1.2825927734375,0.505279541015625
1768421449642108200,3.850108154296875,0.52044677734375,-1.054290771484375,0.4044647216796875
1768421449652108300,3.8601083984375,0.3206329345703125,-0.9180145263671875,0.195709228515625
1768421449662108200,3.870108154296875,0.15264892578125,-0.854156494140625,0.00238037109375
1768421449672108300,3.8801083984375,0.0889892578125,-0.8632049560546875,-0.195159912109375
1768421449682108200,3.890108154296875,0.0838623046875,-0.9212188720703125,-0.2971343994140625
1768421449692108000,3.90010791015625,0.0402069091796875,-1.008758544921875,-0.2703704833984375
1768421449702108200,3.910108154296875,-0.03997802734375,-1.094024658203125,-0.156341552734375
1768421449712107300,3.920107177734375,-0.091796875,-1.1509246826171875,-0.0043792724609375
1768421449722107100,3.930107177734375,-0.0785980224609375,-1.1739349365234375,0.136993408203125
1768421449732107300,3.940107177734375,0.0102081298828125,-1.1527252197265625,0.2392425537109375
1768421449742107100,3.950107177734375,0.1099090576171875,-1.1017608642578125,0.2872314453125
1768421449752107300,3.960107177734375,0.155609130859375,-1.0399932861328125,0.284515380859375
1768421449762107100,3.970107177734375,0.17254638671875,-0.982269287109375,0.2330474853515625
1768421449772107000,3.98010693359375,0.17730712890625,-0.9297943115234375,0.1486968994140625
1768421449782107100,3.990107177734375,0.1749114990234375,-0.8668670654296875,0.0711822509765625
1768421449792107300,4.000107177734375,0.16375732421875,-0.812774658203125,-0.01055908203125
1768421449802107400,4.010107421875,0.140106201171875,-0.77166748046875,-0.095733642578125
1768421449812107300,4.020107177734375,0.1180419921875,-0.7519683837890625,-0.1801605224609375
1768421449822107400,4.030107421875,0.1073760986328125,-0.761077880859375,-0.248443603515625
1768421449832106200,4.040106201171875,0.09881591796875,-0.78826904296875,-0.31573486328125
1768421449842106400,4.0501064453125,0.079193115234375,-0.8263397216796875,-0.3600921630859375
1768421449852106200,4.060106201171875,0.0632171630859375,-0.86376953125,-0.3642730712890625
1768421449862106400,4.0701064453125,0.051422119140625,-0.893585205078125,-0.3475799560546875
1768421449872106200,4.080106201171875,0.04083251953125,-0.9114227294921875,-0.3022003173828125
1768421449882106400,4.0901064453125,0.025146484375,-0.92010498046875,-0.2382965087890625
1768421449892106200,4.100106201171875,0.0096893310546875,-0.919158935546875,-0.1783905029296875
1768421449902106400,4.1101064453125,-0.001556396484375,-0.920623779296875,-0.1389617919921875
1768421449912106200,4.120106201171875,-0.0124969482421875,-0.9215240478515625,-0.1184234619140625
1768421449922106400,4.1301064453125,-0.0203094482421875,-0.918853759765625,-0.0950927734375
1768421449932106200,4.140106201171875,-0.0267791748046875,-0.9083251953125,-0.0673675537109375
1768421449942106400,4.1501064453125,-0.0313720703125,-0.891845703125,-0.03729248046875
1768421449952105200,4.160105224609375,-0.034393310546875,-0.879669189453125,-0.0175323486328125
1768421449962105300,4.170105224609375,-0.0343170166015625,-0.869873046875,-0.0077056884765625
1768421449972105200,4.180105224609375,-0.0339813232421875,-0.862274169921875,-0.0059661865234375
1768421449982105300,4.190105224609375,-0.04644775390625,-0.8634796142578125,-0.023162841796875
1768421449992105200,4.200105224609375,-0.0640411376953125,-0.8701324462890625,-0.060272216796875
1768421450002105300,4.210105224609375,-0.07928466796875,-0.8767852783203125,-0.1050262451171875
1768421450012105200,4.220105224609375,-0.1043548583984375,-0.886322021484375,-0.138580322265625
1768421450022105300,4.230105224609375,-0.1256103515625,-0.8964691162109375,-0.1406097412109375
1768421450032105200,4.240105224609375,-0.129150390625,-0.9080963134765625,-0.121490478515625
1768421450042105000,4.25010498046875,-0.11602783203125,-0.922119140625,-0.087921142578125
1768421450052105200,4.260105224609375,-0.107818603515625,-0.941986083984375,-0.061920166015625
1768421450062105000,4.27010498046875,-0.1056671142578125,-0.9586029052734375,-0.042938232421875
1768421450072105200,4.280105224609375,-0.0874481201171875,-0.97064208984375,-0.0414276123046875
1768421450082104300,4.290104248046875,-0.048919677734375,-0.96392822265625,-0.067413330078125
1768421450092104200,4.300104248046875,0.00732421875,-0.9297332763671875,-0.1004791259765625
1768421450102104000,4.31010400390625,0.014312744140625,-0.9165191650390625,-0.086517333984375
1768421450112104200,4.320104248046875,-0.104644775390625,-0.9809417724609375,-0.031280517578125
1768421450122104000,4.33010400390625,-0.26153564453125,-1.0635528564453125,0.0498199462890625
1768421450132104200,4.340104248046875,-0.320587158203125,-1.1400909423828125,0.1469879150390625
1768421450142104000,4.35010400390625,-0.3169403076171875,-1.204864501953125,0.2480010986328125
1768421450152104200,4.360104248046875,-0.301300048828125,-1.2227020263671875,0.32427978515625
1768421450162104000,4.37010400390625,-0.298370361328125,-1.185028076171875,0.3327789306640625
1768421450172104200,4.380104248046875,-0.2820587158203125,-1.0962066650390625,0.278839111328125
1768421450182104000,4.39010400390625,-0.1918487548828125,-1.0011444091796875,0.1780548095703125
1768421450192104400,4.4001044921875,-0.0315399169921875,-1.0256805419921875,0.055694580078125
1768421450202103000,4.41010302734375,0.1966705322265625,-1.1962432861328125,-0.0854644775390625
1768421450212103200,4.420103271484375,0.297576904296875,-1.429046630859375,-0.28875732421875
1768421450222103000,4.43010302734375,0.264984130859375,-1.5512847900390625,-0.403167724609375
1768421450232103200,4.440103271484375,0.2568359375,-1.5134735107421875,-0.3395843505859375
1768421450242103300,4.450103271484375,0.2460784912109375,-1.450439453125,-0.2696075439453125
1768421450252103400,4.460103515625,0.1957244873046875,-1.3922882080078125,-0.2716827392578125
1768421450262103300,4.470103271484375,0.19781494140625,-1.2351837158203125,-0.185455322265625
1768421450272103400,4.480103515625,0.2682342529296875,-1.1175537109375,-0.076416015625
1768421450282103300,4.490103271484375,0.2677459716796875,-1.1145172119140625,0.0011138916015625
1768421450292103200,4.500103271484375,0.2374114990234375,-1.1340484619140625,0.0659332275390625
1768421450302103300,4.510103271484375,0.2333831787109375,-1.1613922119140625,0.090911865234375
1768421450312103200,4.520103271484375,0.247955322265625,-1.1551666259765625,0.0714111328125
1768421450322102300,4.530102294921875,0.2570648193359375,-1.0704345703125,0.0483245849609375
1768421450332102400,4.540102294921875,0.2535858154296875,-0.9674224853515625,0.0223541259765625
1768421450342102300,4.550102294921875,0.2525482177734375,-0.8931732177734375,-0.015594482421875
1768421450352102400,4.560102294921875,0.2461700439453125,-0.8595123291015625,-0.0606231689453125
1768421450362102300,4.570102294921875,0.2254791259765625,-0.8594970703125,-0.0853271484375
1768421450372102100,4.58010205078125,0.184844970703125,-0.8665313720703125,-0.0910797119140625
1768421450382102300,4.590102294921875,0.142425537109375,-0.8724365234375,-0.0933990478515625
1768421450392102100,4.60010205078125,0.1222686767578125,-0.88037109375,-0.1041717529296875
1768421450402102500,4.6101025390625,0.11322021484375,-0.8845977783203125,-0.1202392578125
1768421450412102400,4.620102294921875,0.1002960205078125,-0.8943939208984375,-0.134765625
1768421450422102500,4.6301025390625,0.090362548828125,-0.9104156494140625,-0.1391448974609375
1768421450432102400,4.640102294921875,0.09130859375,-0.9293060302734375,-0.11895751953125
1768421450442101200,4.650101318359375,0.097625732421875,-0.951019287109375,-0.0772247314453125
1768421450452101400,4.660101318359375,0.1056365966796875,-0.95880126953125,-0.018585205078125
1768421450462101500,4.6701015625,0.1083984375,-0.95050048828125,0.0438385009765625
1768421450472101400,4.680101318359375,0.103363037109375,-0.924163818359375,0.0885467529296875
1768421450482101500,4.6901015625,0.0929718017578125,-0.883575439453125,0.1064453125
1768421450492101400,4.700101318359375,0.086700439453125,-0.8420257568359375,0.1070404052734375
1768421450502101500,4.7101015625,0.092376708984375,-0.8158721923828125,0.102752685546875
1768421450512101400,4.720101318359375,0.1012115478515625,-0.802154541015625,0.1008453369140625
1768421450522101500,4.7301015625,0.1025543212890625,-0.7996673583984375,0.086151123046875
1768421450532101400,4.740101318359375,0.0933074951171875,-0.7993927001953125,0.069915771484375
1768421450542101500,4.7501015625,0.0787811279296875,-0.81011962890625,0.0511932373046875
1768421450552101400,4.760101318359375,0.0648651123046875,-0.8305816650390625,0.028472900390625
1768421450562100500,4.7701005859375,0.052337646484375,-0.854705810546875,0.0115203857421875
1768421450572100400,4.780100341796875,0.038055419921875,-0.8782806396484375,0.00836181640625
1768421450582100500,4.7901005859375,0.021453857421875,-0.8949127197265625,0.0116119384765625
1768421450592100400,4.800100341796875,0.006317138671875,-0.9048309326171875,0.0089263916015625
1768421450602100500,4.8101005859375,-0.0005035400390625,-0.9165191650390625,-0.0016021728515625
1768421450612100400,4.820100341796875,-0.0029144287109375,-0.925811767578125,-0.0222320556640625
1768421450622100500,4.8301005859375,-0.00360107421875,-0.9293060302734375,-0.04302978515625
1768421450632100400,4.840100341796875,-0.001708984375,-0.93145751953125,-0.058929443359375
1768421450642100200,4.850100341796875,-0.0162200927734375,-0.9329986572265625,-0.069732666015625
1768421450652100400,4.860100341796875,-0.0357666015625,-0.936859130859375,-0.065277099609375
1768421450662100200,4.870100341796875,-0.057037353515625,-0.9373016357421875,-0.048248291015625
1768421450672100400,4.880100341796875,-0.0706634521484375,-0.9465789794921875,-0.031951904296875
1768421450682099500,4.890099365234375,-0.0795135498046875,-0.9536285400390625,-0.012542724609375
1768421450692099300,4.900099365234375,-0.094451904296875,-0.9527435302734375,0.010162353515625
1768421450702099200,4.91009912109375,-0.0977020263671875,-0.9538421630859375,0.03582763671875
1768421450712099300,4.920099365234375,-0.0795745849609375,-0.9580535888671875,0.06634521484375
1768421450722099200,4.93009912109375,-0.05609130859375,-0.965484619140625,0.1044921875
1768421450732099300,4.940099365234375,-0.0431671142578125,-0.968780517578125,0.148651123046875
1768421450742099200,4.95009912109375,-0.031494140625,-0.95904541015625,0.1925201416015625
1768421450752099300,4.960099365234375,-0.0093841552734375,-0.9434814453125,0.2290496826171875
1768421450762099200,4.97009912109375,0.00689697265625,-0.9411773681640625,0.256500244140625
1768421450772099300,4.980099365234375,-0.0142974853515625,-0.9764556884765625,0.2661285400390625
1768421450782099200,4.99009912109375,-0.0662384033203125,-1.050567626953125,0.248443603515625
1768421450792099300,5.000099365234375,-0.119873046875,-1.1102752685546875,0.2109222412109375
1768421450802099500,5.010099365234375,-0.1886749267578125,-1.15582275390625,0.127777099609375
1768421450812098300,5.020098388671875,-0.227630615234375,-1.1911773681640625,0.0209197998046875
1768421450822098200,5.03009814453125,-0.1890716552734375,-1.19635009765625,-0.091827392578125
1768421450832098300,5.040098388671875,-0.0331268310546875,-1.209228515625,-0.1879425048828125
1768421450842098200,5.05009814453125,0.175750732421875,-1.2982177734375,-0.245697021484375
1768421450852098600,5.0600986328125,0.3241729736328125,-1.4046478271484375,-0.2426910400390625
1768421450862098400,5.070098388671875,0.2942352294921875,-1.446319580078125,-0.1689910888671875
1768421450872098600,5.0800986328125,0.09442138671875,-1.4754638671875,-0.0668487548828125
1768421450882098400,5.090098388671875,0.0260009765625,-1.5072021484375,0.00189208984375
1768421450892098300,5.100098388671875,0.1527862548828125,-1.4198150634765625,0.1020050048828125
1768421450902098400,5.110098388671875,0.28973388671875,-1.1907501220703125,0.17169189453125
1768421450912098300,5.120098388671875,0.3282470703125,-1.009979248046875,0.03900146484375
1768421450922097400,5.130097412109375,0.2915496826171875,-0.8617706298828125,-0.1357574462890625
1768421450932097500,5.14009765625,0.2440185546875,-0.7946624755859375,-0.31268310546875
1768421450942097400,5.150097412109375,0.2432708740234375,-0.83746337890625,-0.4884490966796875
1768421450952097500,5.16009765625,0.2219085693359375,-0.9570465087890625,-0.6026458740234375
1768421450962097400,5.170097412109375,0.1677398681640625,-1.071380615234375,-0.619293212890625
1768421450972097300,5.18009716796875,0.0634918212890625,-1.12799072265625,-0.54632568359375
1768421450982097400,5.190097412109375,-0.067169189453125,-1.140716552734375,-0.37213134765625
1768421450992097300,5.20009716796875,-0.135833740234375,-1.151947021484375,-0.150360107421875
1768421451002097400,5.210097412109375,-0.103240966796875,-1.1593170166015625,0.0624847412109375
1768421451012097300,5.22009716796875,0.0208740234375,-1.1499481201171875,0.251251220703125
1768421451022097400,5.230097412109375,0.1465301513671875,-1.113739013671875,0.3455352783203125
1768421451032097300,5.24009716796875,0.2156829833984375,-1.0708160400390625,0.3386077880859375
1768421451042096400,5.250096435546875,0.2233428955078125,-1.0421142578125,0.2344970703125
1768421451052096300,5.26009619140625,0.2013092041015625,-1.0030059814453125,0.076263427734375
1768421451062096400,5.270096435546875,0.161468505859375,-0.9406585693359375,-0.07354736328125
1768421451072096300,5.28009619140625,0.1082916259765625,-0.874908447265625,-0.186859130859375
1768421451082096400,5.290096435546875,0.0612945556640625,-0.8185577392578125,-0.2734222412109375
1768421451092096300,5.30009619140625,0.0210113525390625,-0.77337646484375,-0.3399810791015625
1768421451102096400,5.310096435546875,-0.00299072265625,-0.736724853515625,-0.3874053955078125
1768421451112096300,5.32009619140625,-0.0180816650390625,-0.722412109375,-0.405853271484375
1768421451122096400,5.330096435546875,-0.019805908203125,-0.7186279296875,-0.3881072998046875
1768421451132096300,5.34009619140625,-0.004180908203125,-0.72296142578125,-0.3407135009765625
1768421451142096400,5.350096435546875,0.012847900390625,-0.747222900390625,-0.266021728515625
1768421451152096300,5.36009619140625,0.032257080078125,-0.7847900390625,-0.2015380859375
1768421451162095400,5.370095458984375,0.044464111328125,-0.8231048583984375,-0.1598052978515625
1768421451172095200,5.38009521484375,0.0408172607421875,-0.8615570068359375,-0.1253814697265625
1768421451182095400,5.390095458984375,0.0397796630859375,-0.894317626953125,-0.0971832275390625
1768421451192095200,5.40009521484375,0.026214599609375,-0.92144775390625,-0.0819854736328125
1768421451202095400,5.410095458984375,0.007965087890625,-0.936431884765625,-0.07794189453125
1768421451212095200,5.42009521484375,-0.0262603759765625,-0.9422149658203125,-0.0819549560546875
1768421451222095400,5.430095458984375,-0.0600128173828125,-0.94281005859375,-0.087615966796875
1768421451232095200,5.44009521484375,-0.0721588134765625,-0.9381561279296875,-0.0976715087890625
1768421451242095400,5.450095458984375,-0.0720062255859375,-0.93072509765625,-0.1002044677734375
1768421451252095500,5.460095458984375,-0.0642547607421875,-0.9251861572265625,-0.0899658203125
1768421451262095400,5.470095458984375,-0.0509033203125,-0.922637939453125,-0.068389892578125
1768421451272095500,5.480095458984375,-0.0463714599609375,-0.9243927001953125,-0.0440216064453125
1768421451282095400,5.490095458984375,-0.059814453125,-0.935272216796875,-0.0383453369140625
1768421451292094500,5.500094482421875,-0.0823974609375,-0.9534759521484375,-0.049072265625
1768421451302094300,5.51009423828125,-0.1115570068359375,-0.97381591796875,-0.0626373291015625
1768421451312094500,5.520094482421875,-0.13153076171875,-0.9866790771484375,-0.0716094970703125
1768421451322094300,5.53009423828125,-0.1455230712890625,-0.9905242919921875,-0.06781005859375
1768421451332094000,5.540093994140625,-0.1588287353515625,-0.9834442138671875,-0.0523681640625
1768421451342093800,5.55009375,-0.1690673828125,-0.97418212890625,-0.027313232421875
1768421451352094200,5.56009423828125,-0.194427490234375,-0.9810943603515625,0.0185089111328125
1768421451362094000,5.570093994140625,-0.2441864013671875,-0.9975738525390625,0.0796661376953125
1768421451372094200,5.58009423828125,-0.2236328125,-1.0100860595703125,0.13409423828125
1768421451382094000,5.590093994140625,-0.1619720458984375,-1.02142333984375,0.125091552734375
1768421451392094200,5.60009423828125,-0.14288330078125,-1.014190673828125,0.0645751953125
1768421451402094000,5.610093994140625,-0.16998291015625,-0.9961090087890625,-0.0356292724609375
1768421451412093200,5.62009326171875,-0.2302703857421875,-0.973724365234375,-0.1281890869140625
1768421451422093000,5.630093017578125,-0.2835235595703125,-0.9535369873046875,-0.182769775390625
1768421451432093200,5.64009326171875,-0.3222808837890625,-0.9458160400390625,-0.187469482421875
1768421451442093000,5.650093017578125,-0.2994842529296875,-0.9473114013671875,-0.154937744140625
1768421451452093200,5.66009326171875,-0.21435546875,-0.9803314208984375,-0.1330108642578125
1768421451462093000,5.670093017578125,-0.0626068115234375,-1.0545806884765625,-0.156158447265625
1768421451472093200,5.68009326171875,0.087799072265625,-1.1851043701171875,-0.2210235595703125
1768421451482093000,5.690093017578125,0.1953277587890625,-1.3234100341796875,-0.29254150390625
1768421451492093200,5.70009326171875,0.2347564697265625,-1.4068603515625,-0.3172760009765625
1768421451502093000,5.710093017578125,0.1761016845703125,-1.4503021240234375,-0.2727508544921875
1768421451512093200,5.72009326171875,0.1009979248046875,-1.41168212890625,-0.2164306640625
1768421451522093000,5.730093017578125,0.056243896484375,-1.2820281982421875,-0.2065277099609375
1768421451532092200,5.740092041015625,0.000274658203125,-1.118408203125,-0.2082061767578125
1768421451542092000,5.750092041015625,0.020721435546875,-1.0027313232421875,-0.220306396484375
1768421451552092200,5.760092041015625,0.1422882080078125,-0.969482421875,-0.2588043212890625
1768421451562092000,5.770092041015625,0.18817138671875,-0.98858642578125,-0.2819976806640625
1768421451572092200,5.780092041015625,0.173492431640625,-1.0220947265625,-0.2732391357421875
1768421451582092000,5.790092041015625,0.2276153564453125,-1.06292724609375,-0.245513916015625
1768421451592092200,5.800092041015625,0.3194580078125,-1.1015472412109375,-0.1935577392578125
1768421451602092000,5.810092041015625,0.3981170654296875,-1.1287078857421875,-0.1267547607421875
1768421451612092000,5.820091796875,0.436859130859375,-1.132476806640625,-0.0599517822265625
1768421451622092000,5.830092041015625,0.432861328125,-1.11456298828125,0.0023193359375
1768421451632092000,5.840091796875,0.3771514892578125,-1.075469970703125,0.0516815185546875
1768421451642092000,5.850092041015625,0.3075408935546875,-1.027496337890625,0.0646514892578125
1768421451652091100,5.860091064453125,0.2625885009765625,-0.9821014404296875,0.030548095703125
1768421451662091000,5.870091064453125,0.238983154296875,-0.95184326171875,-0.0231781005859375
1768421451672091000,5.8800908203125,0.2165679931640625,-0.94744873046875,-0.086151123046875
1768421451682091000,5.890091064453125,0.2051239013671875,-0.9718170166015625,-0.15087890625
1768421451692091000,5.9000908203125,0.205535888671875,-1.0186614990234375,-0.2011260986328125
1768421451702091000,5.910091064453125,0.19830322265625,-1.055450439453125,-0.22210693359375
1768421451712091000,5.9200908203125,0.190032958984375,-1.07598876953125,-0.2168426513671875
1768421451722091000,5.930091064453125,0.18511962890625,-1.07281494140625,-0.1898345947265625
1768421451732091000,5.9400908203125,0.184539794921875,-1.05145263671875,-0.1479949951171875
1768421451742091300,5.95009130859375,0.1918487548828125,-1.0080718994140625,-0.0933837890625
1768421451752091100,5.960091064453125,0.1969451904296875,-0.9571533203125,-0.0385894775390625
1768421451762091300,5.97009130859375,0.1889801025390625,-0.9029541015625,0.004791259765625
1768421451772089900,5.98008984375,0.186981201171875,-0.8525848388671875,0.0340423583984375
1768421451782090000,5.990090087890625,0.1866607666015625,-0.81317138671875,0.050323486328125
1768421451792090000,6.000090087890625,0.1840667724609375,-0.7829742431640625,0.051422119140625
1768421451802090200,6.01009033203125,0.1872100830078125,-0.7691497802734375,0.0343780517578125
1768421451812090000,6.020090087890625,0.1953125,-0.7758636474609375,0.01947021484375
1768421451822090200,6.03009033203125,0.195098876953125,-0.793212890625,0.0157470703125
1768421451832090000,6.040090087890625,0.190460205078125,-0.820098876953125,0.0218505859375
1768421451842090200,6.05009033203125,0.18035888671875,-0.8515472412109375,0.047027587890625
1768421451852090000,6.060090087890625,0.1655120849609375,-0.885894775390625,0.088470458984375
1768421451862090000,6.070090087890625,0.155059814453125,-0.9091949462890625,0.1405792236328125
1768421451872090000,6.080090087890625,0.1501617431640625,-0.922393798828125,0.1944732666015625
1768421451882090000,6.090090087890625,0.1439361572265625,-0.9176483154296875,0.2284698486328125
1768421451892089000,6.100089111328125,0.1364898681640625,-0.901397705078125,0.2532806396484375
1768421451902089200,6.110089111328125,0.1140899658203125,-0.889801025390625,0.2618560791015625
1768421451912089000,6.120089111328125,0.1002655029296875,-0.8840789794921875,0.2598114013671875
1768421451922089200,6.130089111328125,0.08282470703125,-0.88165283203125,0.246246337890625
1768421451932089000,6.140089111328125,0.050994873046875,-0.8848876953125,0.2193756103515625
1768421451942089000,6.1500888671875,0.0258636474609375,-0.886505126953125,0.1793975830078125
1768421451952089000,6.160089111328125,0.001068115234375,-0.8942718505859375,0.13519287109375
1768421451962089000,6.1700888671875,-0.0259857177734375,-0.9085235595703125,0.102294921875
1768421451972089000,6.180089111328125,-0.0488128662109375,-0.919403076171875,0.07354736328125
1768421451982089000,6.1900888671875,-0.0664825439453125,-0.937042236328125,0.060577392578125
1768421451992089000,6.200089111328125,-0.083251953125,-0.9473419189453125,0.0596771240234375
1768421452002089000,6.2100888671875,-0.0886993408203125,-0.960418701171875,0.055145263671875
1768421452012089000,6.220089111328125,-0.078704833984375,-0.9691925048828125,0.0443267822265625
1768421452022088000,6.230087890625,-0.06390380859375,-0.9762115478515625,0.024383544921875
1768421452032088000,6.240088134765625,-0.0523834228515625,-0.986541748046875,0.000030517578125
1768421452042088000,6.250087890625,-0.021514892578125,-0.9935455322265625,-0.0042266845703125
1768421452052088000,6.260088134765625,0.042327880859375,-0.9886627197265625,0.014617919921875
1768421452062088000,6.270087890625,0.114410400390625,-0.9643096923828125,0.0625457763671875
1768421452072088000,6.280088134765625,0.129302978515625,-0.96844482421875,0.105316162109375
1768421452082088000,6.290087890625,0.0609130859375,-1.0208740234375,0.09112548828125
1768421452092088000,6.300088134765625,-0.09381103515625,-1.1120758056640625,0.0278778076171875
1768421452102088000,6.310087890625,-0.2076416015625,-1.201812744140625,-0.051361083984375
1768421452112088000,6.320088134765625,-0.2451934814453125,-1.258758544921875,-0.1302032470703125
1768421452122088000,6.330087890625,-0.2113189697265625,-1.2866668701171875,-0.212982177734375
1768421452132088000,6.340088134765625,-0.1125335693359375,-1.2857666015625,-0.2780303955078125
1768421452142087000,6.3500869140625,0.036468505859375,-1.3087615966796875,-0.28839111328125
1768421452152087000,6.360087158203125,0.176971435546875,-1.3949127197265625,-0.21673583984375
1768421452162087000,6.3700869140625,0.238494873046875,-1.4864654541015625,-0.07586669921875
1768421452172087000,6.380087158203125,0.223052978515625,-1.53997802734375,0.1058807373046875
1768421452182087000,6.3900869140625,0.2927703857421875,-1.491729736328125,0.32745361328125
1768421452192087300,6.40008740234375,0.4471282958984375,-1.395416259765625,0.4067535400390625
1768421452202087200,6.410087158203125,0.5358428955078125,-1.271209716796875,0.3204498291015625
1768421452212087000,6.420087158203125,0.53466796875,-1.0937347412109375,0.1538543701171875
1768421452222087200,6.430087158203125,0.4115447998046875,-0.9282684326171875,-0.060577392578125
1768421452232087000,6.440087158203125,0.2748565673828125,-0.80718994140625,-0.2828216552734375
1768421452242087200,6.450087158203125,0.1789703369140625,-0.7580718994140625,-0.430267333984375
1768421452252087000,6.460087158203125,0.09649658203125,-0.7977294921875,-0.45672607421875
1768421452262086100,6.470086181640625,0.010986328125,-0.888458251953125,-0.3544769287109375
1768421452272086000,6.4800859375,-0.078643798828125,-0.991973876953125,-0.1777191162109375
1768421452282086100,6.490086181640625,-0.1327667236328125,-1.0626373291015625,0.0094451904296875
1768421452292086000,6.5000859375,-0.0875244140625,-1.106170654296875,0.1786956787109375
1768421452302086100,6.510086181640625,0.025482177734375,-1.1334381103515625,0.3093414306640625
1768421452312086000,6.5200859375,0.1327667236328125,-1.152496337890625,0.3687744140625
1768421452322086100,6.530086181640625,0.2117462158203125,-1.1546630859375,0.362518310546875
1768421452332086000,6.5400859375,0.253204345703125,-1.128692626953125,0.3019561767578125
1768421452342086100,6.550086181640625,0.245147705078125,-1.0803680419921875,0.1966705322265625
1768421452352086000,6.5600859375,0.2144622802734375,-1.0050811767578125,0.0937042236328125
1768421452362086100,6.570086181640625,0.1650238037109375,-0.9014434814453125,0.0051422119140625
1768421452372086000,6.5800859375,0.1070404052734375,-0.79986572265625,-0.08380126953125
1768421452382085000,6.590085205078125,0.05548095703125,-0.7098846435546875,-0.1681671142578125
1768421452392085000,6.6000849609375,0.0211029052734375,-0.643768310546875,-0.237213134765625
1768421452402085000,6.610085205078125,-0.0091552734375,-0.6083831787109375,-0.250885009765625
1768421452412085000,6.6200849609375,-0.032562255859375,-0.619598388671875,-0.256378173828125
1768421452422085000,6.630085205078125,-0.036285400390625,-0.649627685546875,-0.2357330322265625
1768421452432085000,6.6400849609375,-0.037322998046875,-0.698486328125,-0.206085205078125
1768421452442085000,6.650085205078125,-0.0265045166015625,-0.7562255859375,-0.1699676513671875
1768421452452085000,6.6600849609375,-0.0121917724609375,-0.8070068359375,-0.1168212890625
1768421452462085000,6.670085205078125,-0.0042266845703125,-0.85845947265625,-0.076385498046875
1768421452472085000,6.6800849609375,0.002532958984375,-0.8975067138671875,-0.054290771484375
1768421452482084900,6.6900849609375,-0.001434326171875,-0.911712646484375,-0.042510986328125
1768421452492085000,6.7000849609375,-0.0044403076171875,-0.911590576171875,-0.0413665771484375
1768421452502084000,6.710083984375,-0.008880615234375,-0.9020843505859375,-0.0431976318359375
1768421452512084000,6.720083984375,-0.0328369140625,-0.894073486328125,-0.040740966796875
1768421452522084000,6.730083984375,-0.062835693359375,-0.894744873046875,-0.033599853515625
1768421452532084000,6.740083984375,-0.0962677001953125,-0.8999786376953125,-0.027557373046875
1768421452542084000,6.750083984375,-0.11737060546875,-0.911529541015625,-0.0289306640625
1768421452552084000,6.760083984375,-0.1329193115234375,-0.9243621826171875,-0.0451202392578125
1768421452562083800,6.770083740234375,-0.155609130859375,-0.9268951416015625,-0.047607421875
1768421452572084000,6.780083984375,-0.1871337890625,-0.9282684326171875,-0.0319671630859375
1768421452582084000,6.790083984375,-0.21087646484375,-0.92449951171875,-0.0140380859375
1768421452592084200,6.800084228515625,-0.2147064208984375,-0.9119415283203125,0.0007476806640625
1768421452602084000,6.810083984375,-0.1923828125,-0.905242919921875,0.000946044921875
1768421452612084200,6.820084228515625,-0.1545867919921875,-0.910430908203125,-0.0093841552734375
1768421452622084000,6.830083984375,-0.0953521728515625,-0.919677734375,-0.023223876953125
1768421452632083200,6.840083251953125,-0.0027313232421875,-0.9104156494140625,-0.0538482666015625
1768421452642083000,6.8500830078125,0.1262359619140625,-0.86883544921875,-0.1008453369140625
1768421452652083200,6.860083251953125,0.0875396728515625,-0.8980255126953125,-0.127105712890625
1768421452662083000,6.8700830078125,-0.1832427978515625,-1.0279998779296875,-0.081817626953125
1768421452672083200,6.880083251953125,-0.32421875,-1.1611175537109375,0.0157012939453125
1768421452682083000,6.8900830078125,-0.2741546630859375,-1.2713165283203125,0.1126708984375
1768421452692083200,6.900083251953125,-0.2202301025390625,-1.360931396484375,0.209686279296875
1768421452702083000,6.9100830078125,-0.2238006591796875,-1.392730712890625,0.2855987548828125
1768421452712083200,6.920083251953125,-0.2468109130859375,-1.329742431640625,0.2615966796875
1768421452722083000,6.9300830078125,-0.2630615234375,-1.1680755615234375,0.1316986083984375
1768421452732083200,6.940083251953125,-0.3060455322265625,-1.008941650390625,0.0149993896484375
1768421452742083000,6.9500830078125,-0.3340301513671875,-0.91448974609375,-0.061676025390625
1768421452752082200,6.960082275390625,-0.2694091796875,-0.86456298828125,-0.1193695068359375
1768421452762082000,6.97008203125,-0.118621826171875,-0.8754730224609375,-0.1663665771484375
1768421452772082200,6.980082275390625,0.03717041015625,-1.0139007568359375,-0.2078704833984375
1768421452782082000,6.99008203125,0.2293853759765625,-1.253509521484375,-0.2086334228515625
1768421452792082200,7.000082275390625,0.3398590087890625,-1.444610595703125,-0.1819915771484375
1768421452802082000,7.01008203125,0.31512451171875,-1.509246826171875,-0.0991973876953125
1768421452812082200,7.020082275390625,0.2458038330078125,-1.4724884033203125,-0.0029144287109375
1768421452822082000,7.03008203125,0.129241943359375,-1.38995361328125,0.0000762939453125
1768421452832082000,7.04008203125,0.0602264404296875,-1.25274658203125,-0.04364013671875
1768421452842082000,7.05008203125,0.141510009765625,-1.028564453125,-0.032684326171875
1768421452852082000,7.06008203125,0.219268798828125,-0.956573486328125,-0.031463623046875
1768421452862082000,7.07008203125,0.2128448486328125,-0.9947967529296875,-0.019256591796875
1768421452872082000,7.08008203125,0.275604248046875,-1.034515380859375,0.05108642578125
1768421452882081000,7.0900810546875,0.3277587890625,-1.096160888671875,0.0982818603515625
1768421452892081000,7.100080810546875,0.33392333984375,-1.1540679931640625,0.0930938720703125
1768421452902081000,7.1100810546875,0.3406524658203125,-1.1562957763671875,0.0882415771484375
1768421452912081000,7.120080810546875,0.306182861328125,-1.1180572509765625,0.0751953125
1768421452922081000,7.1300810546875,0.2762603759765625,-1.06292724609375,0.05169677734375
1768421452932081000,7.140080810546875,0.2382049560546875,-1.0360870361328125,0.01953125
1768421452942081000,7.1500810546875,0.1714019775390625,-1.0289459228515625,-0.0237579345703125
1768421452952081000,7.160080810546875,0.09661865234375,-1.0179290771484375,-0.060089111328125
1768421452962081000,7.1700810546875,0.047454833984375,-0.9943695068359375,-0.0990142822265625
1768421452972081000,7.180080810546875,0.02520751953125,-0.96966552734375,-0.163055419921875
1768421452982081300,7.190081298828125,0.0186767578125,-0.9421844482421875,-0.216094970703125
1768421452992081200,7.2000810546875,0.0239715576171875,-0.9010009765625,-0.2308807373046875
1768421453002080000,7.210080078125,0.0233306884765625,-0.87945556640625,-0.230987548828125
1768421453012079900,7.220079833984375,0.0157012939453125,-0.8580780029296875,-0.2024383544921875
1768421453022080000,7.230080078125,0.02911376953125,-0.8279876708984375,-0.157440185546875
1768421453032080100,7.240080078125,0.0512847900390625,-0.8160247802734375,-0.109466552734375
1768421453042080300,7.250080322265625,0.0591583251953125,-0.818695068359375,-0.0587615966796875
1768421453052080000,7.260080078125,0.06915283203125,-0.815673828125,-0.0005035400390625
1768421453062080300,7.270080322265625,0.081817626953125,-0.8065948486328125,0.0527801513671875
1768421453072080100,7.280080078125,0.0896453857421875,-0.793243408203125,0.0937042236328125
1768421453082080000,7.290080078125,0.09234619140625,-0.770111083984375,0.1331024169921875
1768421453092080000,7.300080078125,0.0955810546875,-0.7486572265625,0.155517578125
1768421453102080000,7.310080078125,0.0917510986328125,-0.743377685546875,0.1511993408203125
1768421453112080100,7.320080078125,0.0738067626953125,-0.75384521484375,0.1275177001953125
1768421453122080000,7.330080078125,0.0485076904296875,-0.772705078125,0.0996551513671875
1768421453132079000,7.3400791015625,0.0455169677734375,-0.809600830078125,0.0644073486328125
1768421453142079200,7.350079345703125,0.060791015625,-0.8591156005859375,0.019439697265625
1768421453152079000,7.3600791015625,0.083648681640625,-0.9146728515625,-0.01220703125
1768421453162079000,7.370078857421875,0.087646484375,-0.95513916015625,-0.0545196533203125
1768421453172079000,7.3800791015625,0.0588226318359375,-0.953399658203125,-0.0930023193359375
1768421453182079000,7.390078857421875,0.0149993896484375,-0.9250640869140625,-0.1122589111328125
1768421453192079000,7.4000791015625,-0.036712646484375,-0.8912353515625,-0.1123504638671875
1768421453202079000,7.410078857421875,-0.073760986328125,-0.8663177490234375,-0.101043701171875
1768421453212079000,7.4200791015625,-0.077545166015625,-0.8665313720703125,-0.0829315185546875
1768421453222079000,7.430078857421875,-0.045257568359375,-0.8816375732421875,-0.04736328125
1768421453232079000,7.4400791015625,-0.0031890869140625,-0.907196044921875,-0.0164031982421875
1768421453242079000,7.450078857421875,0.03662109375,-0.94091796875,0.0040130615234375
1768421453252079000,7.4600791015625,0.0797271728515625,-0.9771575927734375,0.033599853515625
1768421453262078000,7.470077880859375,0.100067138671875,-1.03131103515625,0.0620269775390625
1768421453272078000,7.480078125,0.113128662109375,-1.12994384765625,0.076904296875
1768421453282078000,7.490077880859375,0.1011810302734375,-1.2386016845703125,0.0592498779296875
1768421453292078000,7.500078125,0.0464324951171875,-1.3124237060546875,-0.0291748046875
1768421453302078000,7.510077880859375,-0.005126953125,-1.3188018798828125,-0.1687469482421875
1768421453312078000,7.520078125,-0.002197265625,-1.258056640625,-0.3012237548828125
1768421453322078000,7.530077880859375,0.0492706298828125,-1.14886474609375,-0.375762939453125
1768421453332078000,7.540078125,0.1082611083984375,-1.0249481201171875,-0.3496856689453125
1768421453342078200,7.550078125,0.1528167724609375,-0.960601806640625,-0.2334747314453125
1768421453352078000,7.560078125,0.20989990234375,-0.9571990966796875,-0.050262451171875
1768421453362078200,7.570078125,0.303314208984375,-0.985748291015625,0.11260986328125
1768421453372078000,7.580078125,0.3999786376953125,-1.0189208984375,0.1812896728515625
1768421453382077200,7.5900771484375,0.456390380859375,-1.051239013671875,0.1591339111328125
1768421453392077300,7.600077392578125,0.4475860595703125,-1.065032958984375,0.0604248046875
1768421453402077200,7.6100771484375,0.4306488037109375,-1.0491790771484375,-0.08526611328125
1768421453412077300,7.620077392578125,0.421173095703125,-0.9698944091796875,-0.1693572998046875
1768421453422077200,7.6300771484375,0.355865478515625,-0.889892578125,-0.279449462890625
1768421453432077000,7.6400771484375,0.3032379150390625,-0.7953033447265625,-0.3127899169921875
1768421453442077200,7.6500771484375,0.243896484375,-0.7350616455078125,-0.3144378662109375
1768421453452077000,7.6600771484375,0.2093353271484375,-0.7061309814453125,-0.2875518798828125
1768421453462077200,7.6700771484375,0.1965484619140625,-0.6986541748046875,-0.23419189453125
1768421453472077000,7.6800771484375,0.203399658203125,-0.70721435546875,-0.1694183349609375
1768421453482077200,7.6900771484375,0.2261962890625,-0.7309417724609375,-0.117950439453125
1768421453492077000,7.7000771484375,0.25213623046875,-0.769073486328125,-0.0792236328125
1768421453502077400,7.710077392578125,0.277191162109375,-0.8003387451171875,-0.06048583984375
1768421453512076000,7.720075927734375,0.296661376953125,-0.8208465576171875,-0.0538787841796875
1768421453522076200,7.730076171875,0.307373046875,-0.836456298828125,-0.0565185546875
1768421453532076000,7.740075927734375,0.3207550048828125,-0.8423919677734375,-0.06951904296875
1768421453542076200,7.750076171875,0.3455047607421875,-0.837615966796875,-0.0960845947265625
1768421453552076300,7.760076171875,0.365081787109375,-0.8242034912109375,-0.1259765625
1768421453562076400,7.770076416015625,0.3694610595703125,-0.808135986328125,-0.1386260986328125
1768421453572076300,7.780076171875,0.354888916015625,-0.7977142333984375,-0.139190673828125
1768421453582076400,7.790076416015625,0.3360595703125,-0.793182373046875,-0.138671875
1768421453592076300,7.800076171875,0.321533203125,-0.7849273681640625,-0.1338958740234375
1768421453602076400,7.810076416015625,0.2678070068359375,-0.7807464599609375,-0.1706390380859375
1768421453612076300,7.820076171875,0.34228515625,-0.766876220703125,-0.0932464599609375
1768421453622076200,7.830076171875,0.31805419921875,-0.7664794921875,-0.1234893798828125
1768421453632076300,7.840076171875,0.3347930908203125,-0.767364501953125,-0.146209716796875
1768421453642075400,7.850075439453125,0.3470458984375,-0.7652587890625,-0.1517486572265625
1768421453652075300,7.8600751953125,0.3434906005859375,-0.772918701171875,-0.15313720703125
1768421453662075400,7.870075439453125,0.34228515625,-0.7843017578125,-0.1288299560546875
1768421453672075300,7.8800751953125,0.3665924072265625,-0.796875,-0.0999603271484375
1768421453682075100,7.8900751953125,0.376068115234375,-0.8003692626953125,-0.0718994140625
1768421453692075300,7.9000751953125,0.3404541015625,-0.775543212890625,-0.0558319091796875
1768421453702075100,7.9100751953125,0.293853759765625,-0.706787109375,-0.0453643798828125
1768421453712075300,7.9200751953125,0.2062225341796875,-0.6474761962890625,-0.0475921630859375
1768421453722075100,7.9300751953125,0.193695068359375,-0.6314849853515625,0.0522613525390625
1768421453732075300,7.9400751953125,0.089569091796875,-0.6522979736328125,0.0680694580078125
1768421453742075100,7.9500751953125,0.021881103515625,-0.6987457275390625,0.0289306640625
1768421453752075300,7.9600751953125,0.0867919921875,-0.69769287109375,0.0607757568359375
1768421453762075100,7.9700751953125,0.1202545166015625,-0.6767578125,0.015899658203125
1768421453772074200,7.98007421875,0.1639251708984375,-0.6302490234375,-0.05474853515625
1768421453782074000,7.99007421875,0.170318603515625,-0.557708740234375,-0.1306610107421875
1768421453792074200,8.00007421875,0.16546630859375,-0.506072998046875,-0.2086029052734375
1768421453802074000,8.01007421875,0.168212890625,-0.463134765625,-0.2649688720703125
1768421453812074200,8.02007421875,0.2314910888671875,-0.418914794921875,-0.26513671875
1768421453822074000,8.03007421875,0.304412841796875,-0.3614349365234375,-0.2380523681640625
1768421453832074200,8.04007421875,0.398193359375,-0.3410797119140625,-0.24420166015625
1768421453842074000,8.05007421875,0.4929656982421875,-0.3526458740234375,-0.234710693359375
1768421453852074200,8.06007421875,0.500244140625,-0.40545654296875,-0.235870361328125
1768421453862074000,8.07007421875,0.4847259521484375,-0.502532958984375,-0.2218017578125
1768421453872074200,8.08007421875,0.471466064453125,-0.632598876953125,-0.166351318359375
1768421453882074000,8.09007421875,0.4340972900390625,-0.745361328125,-0.104248046875
1768421453892074200,8.10007421875,0.3479156494140625,-0.8126068115234375,-0.057525634765625
1768421453902073000,8.110072998046874,0.256256103515625,-0.814178466796875,0.020538330078125
1768421453912073200,8.1200732421875,0.2587890625,-0.7815093994140625,0.04461669921875
1768421453922073000,8.130072998046876,0.365570068359375,-0.71746826171875,0.092803955078125
1768421453932073200,8.1400732421875,0.42169189453125,-0.608489990234375,0.2148590087890625
1768421453942073300,8.1500732421875,0.4702606201171875,-0.5257415771484375,0.299591064453125
1768421453952073200,8.1600732421875,0.399688720703125,-0.4974517822265625,0.3593292236328125
1768421453962073300,8.1700732421875,0.20208740234375,-0.4959716796875,0.41180419921875
1768421453972073200,8.1800732421875,-0.039886474609375,-0.48150634765625,0.4010162353515625
1768421453982073300,8.1900732421875,-0.2376556396484375,-0.4123687744140625,0.3072967529296875
1768421453992073200,8.2000732421875,-0.131378173828125,-0.2682342529296875,0.1992645263671875
1768421454002073300,8.2100732421875,0.1849822998046875,-0.1354522705078125,0.08154296875
1768421454012073200,8.2200732421875,0.16802978515625,-0.023529052734375,-0.0890045166015625
1768421454022073300,8.2300732421875,0.1357574462890625,0.0896148681640625,-0.211273193359375
1768421454032072200,8.240072265625,0.1555328369140625,0.2372283935546875,-0.289154052734375
1768421454042072300,8.250072265625,0.1750946044921875,0.34869384765625,-0.489166259765625
1768421454052072200,8.260072265625,0.3148956298828125,0.27880859375,-0.802581787109375
1768421454062072300,8.270072265625,0.484619140625,0.135101318359375,-1.0849609375
1768421454072072200,8.280072265625,0.53607177734375,0.0749359130859375,-1.412841796875
1768421454082072300,8.290072265625,0.9145050048828125,0.084991455078125,-1.7018280029296875
1768421454092072200,8.300072265625,1.929534912109375,-0.0794677734375,-1.4884033203125
1768421454102072300,8.310072265625,2.052215576171875,-0.105377197265625,-1.0132904052734375
1768421454112072200,8.320072265625,1.7769012451171875,0.097198486328125,-0.746856689453125
1768421454122072300,8.330072265625,1.3179931640625,0.3358154296875,-0.9286956787109375
1768421454132072200,8.340072265625,1.2347259521484375,0.5135498046875,-0.977020263671875
1768421454142072300,8.350072265625,1.7110595703125,0.6014251708984375,-0.8150177001953125
1768421454152072200,8.360072265625,1.968109130859375,0.5623321533203125,-0.3046112060546875
1768421454162071300,8.3700712890625,1.7410125732421875,0.2092742919921875,0.3807220458984375
1768421454172071200,8.3800712890625,1.6776580810546875,-0.2389068603515625,0.597808837890625
1768421454182071300,8.3900712890625,1.525634765625,-0.1796722412109375,0.6167449951171875
1768421454192071200,8.4000712890625,1.8954010009765625,0.33056640625,0.128448486328125
1768421454202071300,8.4100712890625,1.12005615234375,0.8388519287109375,-0.8103790283203125
1768421454212071200,8.4200712890625,0.51177978515625,1.1954345703125,-1.97833251953125
1768421454222071300,8.4300712890625,1.26544189453125,1.7368011474609375,-3.44610595703125
1768421454237071400,8.4450712890625,2.623138427734375,1.46728515625,-4.909423828125
1768421454247071200,8.4550712890625,1.891876220703125,1.7674713134765625,-3.7020263671875
1768421454257071400,8.4650712890625,1.267547607421875,1.410247802734375,-1.5041961669921875
1768421454267071200,8.4750712890625,1.952972412109375,0.8915557861328125,-0.9971466064453125
1768421454277071400,8.4850712890625,1.829254150390625,0.8433990478515625,-1.2733612060546875
1768421454287070200,8.4950703125,1.839599609375,0.283905029296875,-1.550445556640625
1768421454297070300,8.5050703125,1.479766845703125,0.5080413818359375,-1.5595245361328125
1768421454307070200,8.5150703125,1.311431884765625,0.7328338623046875,-1.79315185546875
1768421454317070300,8.5250703125,1.01446533203125,0.57403564453125,-1.97998046875
1768421454327070200,8.5350703125,0.4202880859375,0.5153350830078125,-1.74517822265625
1768421454337070300,8.5450703125,0.1901397705078125,0.5948638916015625,-0.9783935546875
1768421454347070700,8.55507080078125,0.127227783203125,0.4918212890625,-0.491973876953125
1768421454357070600,8.565070556640626,0.22552490234375,0.25,-0.28338623046875
1768421454367070700,8.57507080078125,0.3415679931640625,-0.082794189453125,-0.288604736328125
1768421454377070600,8.585070556640625,0.211029052734375,-0.320770263671875,-0.4036407470703125
1768421454387070700,8.59507080078125,0.15692138671875,-0.3434295654296875,-0.23114013671875
1768421454397070600,8.605070556640625,0.0911712646484375,-0.123138427734375,0.0741424560546875
1768421454407070700,8.61507080078125,0.0593414306640625,0.1558685302734375,0.2818145751953125
1768421454417069600,8.625069580078126,0.0864105224609375,0.3297576904296875,0.2664794921875
1768421454427069700,8.635069580078126,0.2193145751953125,0.4492645263671875,0.1743927001953125
1768421454437069600,8.645069580078125,0.3618316650390625,0.55230712890625,0.1399688720703125
1768421454447069700,8.655069580078125,0.3383026123046875,0.599639892578125,0.0427093505859375
1768421454457069600,8.665069580078125,0.3067169189453125,0.61669921875,-0.1344757080078125
1768421454467069700,8.675069580078125,0.3291168212890625,0.575042724609375,-0.347747802734375
1768421454477069600,8.685069580078125,0.367523193359375,0.465576171875,-0.54034423828125
1768421454487069700,8.695069580078124,0.4257965087890625,0.3358612060546875,-0.7214508056640625
1768421454497069600,8.705069580078124,0.485443115234375,0.1822662353515625,-0.8947906494140625
1768421454507069700,8.715069580078126,0.6246185302734375,0.05322265625,-1.011688232421875
1768421454517069600,8.725069580078125,0.687255859375,0.1165313720703125,-0.7190399169921875
1768421454527069700,8.735069580078125,0.8575439453125,0.30194091796875,-0.39447021484375
1768421454537069800,8.74506982421875,0.927978515625,0.5694732666015625,-0.2993927001953125
1768421454547068700,8.755068603515625,0.89263916015625,0.531280517578125,-0.4986114501953125
1768421454557068500,8.765068603515624,1.155181884765625,0.2668914794921875,-0.6538848876953125
1768421454567068700,8.775068603515624,1.147125244140625,0.28717041015625,-0.519195556640625
1768421454577068800,8.78506884765625,1.2720947265625,0.356414794921875,-0.6266632080078125
1768421454587068700,8.795068603515626,1.4674224853515625,0.6098480224609375,-0.8336944580078125
1768421454597068800,8.80506884765625,1.3741607666015625,0.965087890625,-0.978668212890625
1768421454607068700,8.815068603515625,1.354522705078125,1.0468292236328125,-0.9398651123046875
1768421454617068800,8.82506884765625,1.39935302734375,0.7075958251953125,-0.810516357421875
1768421454627068700,8.835068603515625,1.4325408935546875,0.59393310546875,-0.7829742431640625
1768421454637068800,8.84506884765625,1.3563385009765625,0.443267822265625,-0.67608642578125
1768421454647068700,8.855068603515624,1.2795562744140625,0.302581787109375,-0.578948974609375
1768421454657068800,8.86506884765625,1.206146240234375,0.2780914306640625,-0.541595458984375
1768421454667068700,8.875068603515626,1.112884521484375,0.30908203125,-0.5669403076171875
1768421454677067800,8.88506787109375,0.9952392578125,0.31451416015625,-0.63818359375
1768421454687067600,8.895067626953125,0.8657379150390625,0.367340087890625,-0.63226318359375
1768421454697067800,8.90506787109375,0.7681121826171875,0.3794097900390625,-0.529327392578125
1768421454707067600,8.915067626953125,0.6793975830078125,0.3470306396484375,-0.41827392578125
1768421454717067800,8.92506787109375,0.6300506591796875,0.2964630126953125,-0.278778076171875
1768421454727067600,8.935067626953124,0.64459228515625,0.2541961669921875,-0.1731719970703125
1768421454737067800,8.94506787109375,0.6632080078125,0.216796875,-0.1186370849609375
1768421454747067600,8.955067626953126,0.6612701416015625,0.194915771484375,-0.1248931884765625
1768421454757067800,8.96506787109375,0.676788330078125,0.1804351806640625,-0.1190032958984375
1768421454767067600,8.975067626953125,0.6900482177734375,0.1476287841796875,-0.152679443359375
1768421454777067800,8.98506787109375,0.69683837890625,0.1454010009765625,-0.1831512451171875
1768421454787067600,8.995067626953125,0.7028961181640625,0.16888427734375,-0.2710418701171875
1768421454797067500,9.005067626953124,0.712677001953125,0.205657958984375,-0.3336639404296875
1768421454807066600,9.015066650390626,0.724365234375,0.214691162109375,-0.352813720703125
1768421454817066800,9.025066650390626,0.75335693359375,0.2034912109375,-0.3553466796875
1768421454827066600,9.035066650390625,0.7729644775390625,0.19921875,-0.35784912109375
1768421454837066800,9.045066650390625,0.8033447265625,0.2003326416015625,-0.363922119140625
1768421454847066600,9.055066650390625,0.83349609375,0.2054443359375,-0.3657379150390625
1768421454857066800,9.065066650390625,0.868133544921875,0.205780029296875,-0.37176513671875
1768421454867066600,9.075066650390625,0.911468505859375,0.2034759521484375,-0.380767822265625
1768421454877066500,9.08506640625,0.975799560546875,0.207763671875,-0.3938446044921875
1768421454887066600,9.095066650390624,1.01947021484375,0.216888427734375,-0.397979736328125
1768421454897066500,9.10506640625,1.0399932861328125,0.2189483642578125,-0.4029083251953125
1768421454907066600,9.115066650390625,1.0589752197265625,0.2189788818359375,-0.4116058349609375
1768421454917066500,9.12506640625,1.0793304443359375,0.216522216796875,-0.4308624267578125
1768421454927067000,9.13506689453125,1.0954437255859375,0.2093353271484375,-0.435455322265625
1768421454937066800,9.145066650390625,1.0902252197265625,0.202362060546875,-0.4285430908203125
1768421454947065600,9.155065673828124,1.078399658203125,0.20513916015625,-0.4231719970703125
1768421454957065500,9.1650654296875,1.05987548828125,0.201995849609375,-0.418212890625
1768421454967065600,9.175065673828126,1.0392303466796875,0.1924591064453125,-0.402557373046875
1768421454977065700,9.185065673828126,1.016937255859375,0.189788818359375,-0.3834228515625
1768421454987065900,9.19506591796875,0.9887542724609375,0.187744140625,-0.366363525390625
1768421454997065700,9.205065673828125,0.957611083984375,0.1819610595703125,-0.3546600341796875
1768421455007065900,9.21506591796875,0.9304351806640625,0.1769866943359375,-0.34429931640625
1768421455017065700,9.225065673828125,0.9085693359375,0.17333984375,-0.336334228515625
1768421455027065900,9.23506591796875,0.8908843994140625,0.17303466796875,-0.3319854736328125
1768421455037065700,9.245065673828124,0.8754425048828125,0.1719970703125,-0.3264007568359375
1768421455047065900,9.25506591796875,0.8635711669921875,0.1707000732421875,-0.32342529296875
1768421455057065700,9.265065673828126,0.8578033447265625,0.1727447509765625,-0.3203277587890625
1768421455067065600,9.275065673828125,0.85272216796875,0.1739349365234375,-0.316436767578125
1768421455077064700,9.285064697265625,0.850189208984375,0.173126220703125,-0.3141632080078125
1768421455087064800,9.29506494140625,0.8544464111328125,0.17626953125,-0.3130340576171875
1768421455097064700,9.305064697265625,0.8617401123046875,0.178497314453125,-0.3123626708984375
1768421455107064800,9.31506494140625,0.8731536865234375,0.1807861328125,-0.313873291015625
1768421455117064700,9.325064697265624,0.8852996826171875,0.184051513671875,-0.31707763671875
1768421455127064800,9.33506494140625,0.900848388671875,0.1867828369140625,-0.3196868896484375
1768421455137064700,9.345064697265625,0.9204254150390625,0.1908721923828125,-0.322418212890625
1768421455147064600,9.355064697265625,0.9344635009765625,0.1951141357421875,-0.3240966796875
1768421455157064700,9.365064697265625,0.9481048583984375,0.1965179443359375,-0.3253173828125
1768421455167064600,9.375064697265625,0.956756591796875,0.2004547119140625,-0.3257293701171875
1768421455177064700,9.385064697265625,0.965118408203125,0.2057342529296875,-0.325714111328125
1768421455187064600,9.395064697265624,0.9725341796875,0.208770751953125,-0.3239593505859375
1768421455197064700,9.405064697265624,0.9751129150390625,0.207489013671875,-0.321197509765625
1768421455207064600,9.415064697265626,0.9751129150390625,0.207305908203125,-0.3172607421875
1768421455217063700,9.425063720703125,0.9671478271484375,0.2050018310546875,-0.3137054443359375
1768421455227063600,9.4350634765625,0.958892822265625,0.203704833984375,-0.3101654052734375
1768421455237063700,9.445063720703125,0.9508209228515625,0.2003936767578125,-0.304779052734375
1768421455247063600,9.4550634765625,0.9404144287109375,0.197540283203125,-0.302825927734375
1768421455257063700,9.465063720703125,0.9320526123046875,0.1941986083984375,-0.3019561767578125
1768421455267063600,9.4750634765625,0.92645263671875,0.1902923583984375,-0.2989501953125
1768421455277063700,9.485063720703126,0.923492431640625,0.186065673828125,-0.298492431640625
1768421455287063600,9.4950634765625,0.918487548828125,0.1833343505859375,-0.2955169677734375
1768421455297063700,9.505063720703125,0.9127349853515625,0.18212890625,-0.2952880859375
1768421455307063600,9.5150634765625,0.9149322509765625,0.1799468994140625,-0.295745849609375
1768421455317063700,9.525063720703125,0.9210052490234375,0.18145751953125,-0.29669189453125
1768421455327063800,9.535063720703125,0.9283905029296875,0.1807708740234375,-0.297454833984375
1768421455337063700,9.545063720703125,0.933349609375,0.1801910400390625,-0.3001556396484375
1768421455347062500,9.5550625,0.9351959228515625,0.182159423828125,-0.3012542724609375
1768421455357062700,9.565062744140626,0.9379730224609375,0.180755615234375,-0.3024139404296875
1768421455367062500,9.5750625,0.9477081298828125,0.181640625,-0.3053131103515625
1768421455377062700,9.585062744140625,0.9554443359375,0.1823883056640625,-0.307037353515625
1768421455387062500,9.5950625,0.952362060546875,0.1821136474609375,-0.3072662353515625
1768421455397062700,9.605062744140625,0.949005126953125,0.182220458984375,-0.306488037109375
1768421455407062500,9.6150625,0.946929931640625,0.1824188232421875,-0.305206298828125
1768421455417062400,9.6250625,0.945281982421875,0.1811065673828125,-0.3051910400390625
1768421455427062500,9.6350625,0.9427490234375,0.18292236328125,-0.30419921875
1768421455437062400,9.6450625,0.9416351318359375,0.1819915771484375,-0.304656982421875
1768421455447062500,9.6550625,0.9403076171875,0.1826934814453125,-0.3060760498046875
1768421455457062700,9.665062744140625,0.9428253173828125,0.18414306640625,-0.3056488037109375
1768421455467062800,9.675062744140625,0.9408111572265625,0.1854248046875,-0.304168701171875
1768421455477062700,9.685062744140625,0.937835693359375,0.1849365234375,-0.305084228515625
1768421455487061500,9.6950615234375,0.9335174560546875,0.18524169921875,-0.30364990234375
1768421455497061400,9.705061279296874,0.9282989501953125,0.183837890625,-0.302947998046875
1768421455507061800,9.715061767578124,0.9245758056640625,0.1847076416015625,-0.3013763427734375
1768421455517061600,9.7250615234375,0.9242706298828125,0.183349609375,-0.3005218505859375
1768421455527061800,9.735061767578125,0.9248809814453125,0.1850738525390625,-0.3014678955078125
1768421455537061600,9.7450615234375,0.925872802734375,0.185333251953125,-0.3013916015625
1768421455547061800,9.755061767578125,0.928436279296875,0.18536376953125,-0.3015594482421875
1768421455557061600,9.7650615234375,0.9326019287109375,0.1863555908203125,-0.303009033203125
1768421455567061800,9.775061767578125,0.93560791015625,0.1858673095703125,-0.3021240234375
1768421455577061600,9.7850615234375,0.938140869140625,0.185394287109375,-0.30224609375
1768421455587061800,9.795061767578124,0.938140869140625,0.18621826171875,-0.303436279296875
1768421455597061600,9.8050615234375,0.935760498046875,0.1856689453125,-0.3009796142578125
1768421455607061500,9.8150615234375,0.9358367919921875,0.18609619140625,-0.3004302978515625
1768421455617060600,9.825060546875,0.936798095703125,0.185760498046875,-0.300750732421875
1768421455627060700,9.835060791015625,0.93756103515625,0.1851654052734375,-0.299713134765625
1768421455637060600,9.845060546875,0.938385009765625,0.185089111328125,-0.2982330322265625
1768421455647060700,9.855060791015624,0.9394683837890625,0.1849822998046875,-0.2981414794921875
1768421455657060600,9.865060546875,0.939483642578125,0.1847381591796875,-0.298248291015625
1768421455667060700,9.875060791015626,0.940093994140625,0.1850128173828125,-0.298248291015625
1768421455677060600,9.885060546875,0.942108154296875,0.18438720703125,-0.2987823486328125
1768421455687060500,9.895060546875,0.9423370361328125,0.1840667724609375,-0.2971038818359375
1768421455697060600,9.905060546875,0.9403533935546875,0.1844482421875,-0.2972869873046875
1768421455707060500,9.915060546875,0.9383087158203125,0.18316650390625,-0.297271728515625
1768421455717060600,9.925060546875,0.936065673828125,0.18426513671875,-0.2964935302734375
1768421455727060500,9.935060546875,0.93701171875,0.1845245361328125,-0.296173095703125
1768421455737060600,9.945060546875,0.9366607666015625,0.182342529296875,-0.2951507568359375
1768421455747060500,9.955060546875,0.938934326171875,0.18231201171875,-0.2957763671875
1768421455757059600,9.9650595703125,0.940093994140625,0.1845855712890625,-0.295501708984375
1768421455767059500,9.9750595703125,0.941680908203125,0.1846923828125,-0.2959442138671875
1768421455777059600,9.9850595703125,0.9421234130859375,0.185089111328125,-0.29608154296875
1768421455787059500,9.9950595703125,0.94073486328125,0.1839599609375,-0.2951202392578125
1768421455797059600,10.0050595703125,0.940948486328125,0.185333251953125,-0.296905517578125
1768421455807059500,10.0150595703125,0.9422454833984375,0.1839141845703125,-0.29656982421875
1768421455817059600,10.0250595703125,0.940673828125,0.1834869384765625,-0.297210693359375
1768421455827059500,10.0350595703125,0.93896484375,0.18414306640625,-0.2967987060546875
1768421455837059600,10.0450595703125,0.93896484375,0.1836700439453125,-0.297637939453125
1768421455847059500,10.0550595703125,0.9413299560546875,0.184600830078125,-0.2972259521484375
1768421455857059800,10.065059814453125,0.941925048828125,0.1849517822265625,-0.2977294921875
1768421455867059700,10.075059814453125,0.94091796875,0.1853485107421875,-0.2971343994140625
1768421455877059600,10.0850595703125,0.939727783203125,0.183990478515625,-0.296630859375
1768421455887059700,10.095059814453125,0.9355621337890625,0.184326171875,-0.2978515625
1768421455897058600,10.10505859375,0.936553955078125,0.183685302734375,-0.2965087890625
1768421455907058700,10.11505859375,0.9356689453125,0.1848907470703125,-0.2966156005859375
1768421455917058800,10.125058837890625,0.9369659423828125,0.1848602294921875,-0.297119140625
1768421455927058700,10.13505859375,0.9381561279296875,0.1836395263671875,-0.297271728515625
1768421455937058600,10.14505859375,0.937469482421875,0.1848297119140625,-0.29754638671875
1768421455947058700,10.15505859375,0.936676025390625,0.1846160888671875,-0.2968902587890625
1768421455957058600,10.16505859375,0.9363250732421875,0.184173583984375,-0.2978057861328125
1768421455967058700,10.17505859375,0.93572998046875,0.1849212646484375,-0.2965087890625
1768421455977058600,10.18505859375,0.9381561279296875,0.1835479736328125,-0.297119140625
1768421455987058700,10.19505859375,0.93817138671875,0.182403564453125,-0.296844482421875
1768421455997058600,10.20505859375,0.93756103515625,0.1833953857421875,-0.295074462890625
1768421456007058700,10.21505859375,0.9386749267578125,0.183013916015625,-0.29510498046875
1768421456017058600,10.22505859375,0.9399871826171875,0.181427001953125,-0.293426513671875
1768421456027057700,10.2350576171875,0.9380645751953125,0.1828155517578125,-0.294921875
1768421456037057500,10.2450576171875,0.9372711181640625,0.1836395263671875,-0.296234130859375
1768421456047057700,10.2550576171875,0.94171142578125,0.18280029296875,-0.29559326171875
1768421456057057500,10.2650576171875,0.944793701171875,0.181610107421875,-0.296295166015625
1768421456067057700,10.2750576171875,0.944610595703125,0.183135986328125,-0.295166015625
1768421456077057500,10.2850576171875,0.9409637451171875,0.18304443359375,-0.2931060791015625
1768421456087057700,10.2950576171875,0.9422149658203125,0.1827392578125,-0.293670654296875
1768421456097057500,10.3050576171875,0.946533203125,0.1817779541015625,-0.293304443359375
1768421456107057700,10.3150576171875,0.94793701171875,0.1804656982421875,-0.292999267578125
1768421456117057500,10.3250576171875,0.9420623779296875,0.181304931640625,-0.2921600341796875
1768421456127057700,10.3350576171875,0.94012451171875,0.1805572509765625,-0.2907562255859375
1768421456137057500,10.3450576171875,0.9433441162109375,0.180267333984375,-0.292083740234375
1768421456147057400,10.355057373046876,0.947357177734375,0.1816253662109375,-0.2919464111328125
1768421456157057500,10.3650576171875,0.9451751708984375,0.1812286376953125,-0.2905120849609375
1768421456167056600,10.375056640625,0.94268798828125,0.181182861328125,-0.2904052734375
1768421456177056500,10.385056396484375,0.94097900390625,0.1789703369140625,-0.288726806640625
1768421456187056600,10.395056640625,0.9394683837890625,0.1793670654296875,-0.2894287109375
1768421456197056500,10.405056396484374,0.9348297119140625,0.17938232421875,-0.289703369140625
1768421456207056600,10.415056640625,0.9349517822265625,0.1751708984375,-0.2885284423828125
1768421456217056500,10.425056396484376,0.940032958984375,0.175079345703125,-0.2871856689453125
1768421456227056400,10.435056396484375,0.9413604736328125,0.1793670654296875,-0.2890625
1768421456237056500,10.445056396484375,0.940673828125,0.182769775390625,-0.2860107421875
1768421456247056400,10.455056396484375,0.9360809326171875,0.1825103759765625,-0.288421630859375
1768421456257056800,10.465056884765625,0.9358978271484375,0.1794891357421875,-0.28753662109375
1768421456267056600,10.475056640625,0.9372100830078125,0.1805877685546875,-0.288360595703125
1768421456277056800,10.485056884765624,0.940826416015625,0.1801605224609375,-0.28948974609375
1768421456287056600,10.495056640625,0.9439239501953125,0.180023193359375,-0.289337158203125
1768421456297056800,10.505056884765626,0.9464263916015625,0.1802978515625,-0.2884521484375
1768421456307055600,10.5150556640625,0.94647216796875,0.17877197265625,-0.2895965576171875
1768421456317055700,10.5250556640625,0.94500732421875,0.179931640625,-0.289581298828125
1768421456327055600,10.5350556640625,0.9441680908203125,0.179351806640625,-0.289459228515625
1768421456337055700,10.5450556640625,0.9434967041015625,0.1779937744140625,-0.2891387939453125
1768421456347055900,10.555055908203125,0.945220947265625,0.1779327392578125,-0.2883758544921875
1768421456357056000,10.565055908203124,0.943634033203125,0.178802490234375,-0.287689208984375
1768421456367056000,10.575055908203124,0.9423980712890625,0.1782684326171875,-0.288482666015625
1768421456377056000,10.585055908203126,0.9426727294921875,0.176849365234375,-0.2880859375
1768421456387055900,10.595055908203125,0.9445648193359375,0.17803955078125,-0.2873687744140625
1768421456397055700,10.6050556640625,0.9443511962890625,0.17742919921875,-0.2884368896484375
1768421456407056000,10.615055908203125,0.94207763671875,0.176177978515625,-0.2871856689453125
1768421456417055700,10.6250556640625,0.9415740966796875,0.17572021484375,-0.2883148193359375
1768421456427055900,10.635055908203125,0.94085693359375,0.176422119140625,-0.287078857421875
1768421456437055700,10.6450556640625,0.94207763671875,0.175537109375,-0.287017822265625
1768421456447054800,10.655054931640626,0.94207763671875,0.174835205078125,-0.2874603271484375
1768421456457055000,10.665054931640626,0.9405364990234375,0.17547607421875,-0.2870635986328125
1768421456467054800,10.675054931640625,0.9415283203125,0.17529296875,-0.28778076171875
1768421456477054700,10.6850546875,0.9411468505859375,0.1750946044921875,-0.2863922119140625
1768421456487054800,10.695054931640625,0.9423828125,0.17547607421875,-0.2866973876953125
1768421456497054700,10.7050546875,0.9422149658203125,0.1752777099609375,-0.285491943359375
1768421456507054800,10.715054931640625,0.943511962890625,0.1764678955078125,-0.28668212890625
1768421456517054700,10.7250546875,0.94378662109375,0.176055908203125,-0.284912109375
1768421456527054800,10.735054931640626,0.9449462890625,0.1741180419921875,-0.286834716796875
1768421456537054700,10.7450546875,0.9452362060546875,0.16766357421875,-0.2897796630859375
1768421456547054800,10.755054931640625,0.9473114013671875,0.1751861572265625,-0.280975341796875
1768421456557054700,10.7650546875,0.943206787109375,0.1850433349609375,-0.2848663330078125
1768421456567054800,10.775054931640625,0.9428253173828125,0.174224853515625,-0.2848052978515625
1768421456577054700,10.7850546875,0.9441375732421875,0.17645263671875,-0.2853546142578125
1768421456587053800,10.7950537109375,0.9434814453125,0.1751861572265625,-0.2855224609375
1768421456597053700,10.8050537109375,0.9453277587890625,0.1750640869140625,-0.2870330810546875
1768421456607053800,10.8150537109375,0.9459228515625,0.1738128662109375,-0.2845611572265625
1768421456617053700,10.8250537109375,0.946136474609375,0.1735076904296875,-0.284912109375
1768421456627053800,10.8350537109375,0.9435882568359375,0.1738128662109375,-0.2842864990234375
1768421456637053700,10.8450537109375,0.941680908203125,0.1740875244140625,-0.283782958984375
1768421456647053800,10.8550537109375,0.9422149658203125,0.173583984375,-0.2839508056640625
1768421456657053700,10.8650537109375,0.9418182373046875,0.1743316650390625,-0.2836456298828125
1768421456667053800,10.8750537109375,0.9422149658203125,0.17279052734375,-0.283599853515625
1768421456677054000,10.885053955078124,0.9428253173828125,0.1710357666015625,-0.283294677734375
1768421456687053800,10.8950537109375,0.94464111328125,0.17236328125,-0.2836456298828125
1768421456697054000,10.905053955078126,0.9450836181640625,0.1724395751953125,-0.2831878662109375
1768421456707053800,10.9150537109375,0.944580078125,0.1718902587890625,-0.2830810546875
1768421456717054000,10.925053955078125,0.9458770751953125,0.1712799072265625,-0.2823028564453125
1768421456727052800,10.935052734375,0.946807861328125,0.17291259765625,-0.2825469970703125
1768421456737053000,10.945052978515625,0.94573974609375,0.1724090576171875,-0.2828369140625
1768421456747052800,10.955052734375,0.9459075927734375,0.1721343994140625,-0.2823028564453125
1768421456757053000,10.965052978515626,0.94549560546875,0.1716156005859375,-0.2822113037109375
1768421456767052800,10.975052734375,0.9456939697265625,0.1706085205078125,-0.2838897705078125
1768421456777053000,10.985052978515625,0.9463653564453125,0.17083740234375,-0.282623291015625
1768421456787052800,10.995052734375,0.9438629150390625,0.171875,-0.2813568115234375
1768421456797053000,11.005052978515625,0.94256591796875,0.1729278564453125,-0.2811279296875
1768421456807052800,11.015052734375,0.9441986083984375,0.1711578369140625,-0.2829437255859375
1768421456817053000,11.025052978515625,0.9452972412109375,0.1717376708984375,-0.2818603515625
1768421456827052800,11.035052734375,0.9473876953125,0.1710357666015625,-0.282501220703125
1768421456837053000,11.045052978515624,0.945770263671875,0.17138671875,-0.2818603515625
1768421456847052800,11.055052734375,0.94158935546875,0.170654296875,-0.2818145751953125
1768421456857053000,11.065052978515626,0.9412841796875,0.1714630126953125,-0.2826080322265625
1768421456867051800,11.0750517578125,0.9450225830078125,0.171417236328125,-0.2808837890625
1768421456877052000,11.085052001953125,0.946868896484375,0.1702880859375,-0.28253173828125
1768421456887051800,11.0950517578125,0.9434967041015625,0.1717071533203125,-0.282257080078125
1768421456897052000,11.105052001953124,0.9413604736328125,0.1721038818359375,-0.281219482421875
1768421456907051800,11.1150517578125,0.9457550048828125,0.1717681884765625,-0.2825927734375
1768421456917052000,11.125052001953126,0.9502105712890625,0.17059326171875,-0.284149169921875
1768421456927051800,11.1350517578125,0.9512939453125,0.170989990234375,-0.282623291015625
1768421456937051600,11.1450517578125,0.9434051513671875,0.1697845458984375,-0.2823638916015625
1768421456947051800,11.1550517578125,0.9395599365234375,0.1696014404296875,-0.2822418212890625
1768421456957051600,11.1650517578125,0.9443511962890625,0.167388916015625,-0.28277587890625
1768421456967051800,11.1750517578125,0.9513092041015625,0.1709136962890625,-0.283935546875
1768421456977051600,11.1850517578125,0.949554443359375,0.1702117919921875,-0.2842254638671875
1768421456987051800,11.1950517578125,0.9437103271484375,0.168243408203125,-0.282623291015625
1768421456997051600,11.2050517578125,0.941131591796875,0.1699981689453125,-0.2826080322265625
1768421457007050800,11.21505078125,0.9395599365234375,0.168792724609375,-0.2830963134765625
1768421457017050600,11.225050537109375,0.939788818359375,0.1696624755859375,-0.28399658203125
1768421457027050800,11.23505078125,0.941650390625,0.1692657470703125,-0.2843017578125
1768421457037050600,11.245050537109375,0.943359375,0.1694183349609375,-0.2841949462890625
1768421457047050800,11.25505078125,0.9454498291015625,0.170257568359375,-0.2859039306640625
1768421457057050600,11.265050537109374,0.9489898681640625,0.169158935546875,-0.2864990234375
1768421457067050800,11.27505078125,0.94891357421875,0.168975830078125,-0.2877655029296875
1768421457077051000,11.28505078125,0.945526123046875,0.1702880859375,-0.2852783203125
1768421457087051000,11.295051025390626,0.9430694580078125,0.1685333251953125,-0.28338623046875
1768421457097051000,11.30505078125,0.9420318603515625,0.168701171875,-0.284454345703125
1768421457107051000,11.315051025390625,0.9418792724609375,0.1685791015625,-0.2837677001953125
1768421457117051000,11.32505078125,0.9446563720703125,0.16839599609375,-0.2831268310546875
1768421457127050800,11.33505078125,0.9444732666015625,0.167999267578125,-0.2832489013671875
1768421457137051000,11.34505078125,0.9431304931640625,0.167877197265625,-0.2825469970703125
1768421457147050000,11.355050048828126,0.9424591064453125,0.169281005859375,-0.2842559814453125
1768421457157049900,11.3650498046875,0.945220947265625,0.1678619384765625,-0.28277587890625
1768421457167050000,11.375050048828125,0.9448394775390625,0.168304443359375,-0.2814788818359375
1768421457177049900,11.3850498046875,0.94427490234375,0.167510986328125,-0.2832183837890625
1768421457187050000,11.395050048828125,0.94744873046875,0.16827392578125,-0.2841949462890625
1768421457197049900,11.4050498046875,0.9447021484375,0.1681365966796875,-0.2826385498046875
1768421457207049700,11.4150498046875,0.94219970703125,0.168792724609375,-0.282073974609375
1768421457217049900,11.4250498046875,0.9430999755859375,0.16851806640625,-0.281768798828125
1768421457227049700,11.4350498046875,0.9444732666015625,0.1683807373046875,-0.28240966796875
1768421457237049900,11.4450498046875,0.9451141357421875,0.1689605712890625,-0.2829437255859375
1768421457247049700,11.4550498046875,0.945953369140625,0.1675262451171875,-0.2823638916015625
1768421457257049900,11.4650498046875,0.947601318359375,0.168426513671875,-0.2835235595703125
1768421457267049700,11.4750498046875,0.9488983154296875,0.1697845458984375,-0.2830963134765625
1768421457277049900,11.4850498046875,0.9492034912109375,0.1678009033203125,-0.28271484375
1768421457287048700,11.495048583984374,0.94873046875,0.16851806640625,-0.28277587890625
1768421457297048800,11.505048828125,0.9503173828125,0.168975830078125,-0.2827301025390625
1768421457307048700,11.515048583984376,0.94903564453125,0.168304443359375,-0.2803802490234375
1768421457317048800,11.525048828125,0.94586181640625,0.1689910888671875,-0.281951904296875
1768421457327048700,11.535048583984375,0.9435577392578125,0.168701171875,-0.281768798828125
1768421457337048800,11.545048828125,0.9424591064453125,0.1688690185546875,-0.2817535400390625
1768421457347048400,11.55504833984375,0.9442596435546875,0.1695098876953125,-0.280853271484375
1768421457357048600,11.565048583984375,0.942657470703125,0.168792724609375,-0.2793121337890625
1768421457367048400,11.57504833984375,0.9422149658203125,0.1683349609375,-0.2795562744140625
1768421457377048600,11.585048583984374,0.9422454833984375,0.1687774658203125,-0.27972412109375
1768421457387048700,11.595048583984376,0.94464111328125,0.17034912109375,-0.2814178466796875
1768421457397048800,11.605048828125,0.9449310302734375,0.16888427734375,-0.2811279296875
1768421457407048700,11.615048583984375,0.9484100341796875,0.1700439453125,-0.2806854248046875
1768421457417048600,11.625048583984375,0.9472808837890625,0.1704559326171875,-0.2812957763671875
1768421457427047400,11.63504736328125,0.9470367431640625,0.167724609375,-0.2825164794921875
1768421457437047800,11.6450478515625,0.9456329345703125,0.168731689453125,-0.280548095703125
1768421457447047700,11.655047607421874,0.9437713623046875,0.1674346923828125,-0.280364990234375
1768421457457047800,11.6650478515625,0.94097900390625,0.1668548583984375,-0.2810516357421875
1768421457467047700,11.675047607421876,0.9428863525390625,0.167205810546875,-0.28131103515625
1768421457477047800,11.6850478515625,0.9493560791015625,0.1660614013671875,-0.2816619873046875
1768421457487047700,11.695047607421875,0.9534454345703125,0.1674957275390625,-0.2833099365234375
1768421457497047600,11.705047607421875,0.956146240234375,0.1668701171875,-0.2836151123046875
1768421457507047700,11.715047607421875,0.9515380859375,0.16729736328125,-0.2847442626953125
1768421457517047600,11.725047607421875,0.9443206787109375,0.1678009033203125,-0.28314208984375
1768421457527047700,11.735047607421874,0.9390106201171875,0.167205810546875,-0.2823944091796875
1768421457537047600,11.745047607421874,0.9427337646484375,0.166046142578125,-0.28204345703125
1768421457547047700,11.755047607421876,0.9468994140625,0.1668548583984375,-0.283416748046875
1768421457557047600,11.765047607421875,0.947998046875,0.1656036376953125,-0.2850494384765625
1768421457567046700,11.775046630859375,0.950775146484375,0.165740966796875,-0.2834320068359375
1768421457577046500,11.785046630859375,0.9486846923828125,0.1668548583984375,-0.2849578857421875
1768421457587046700,11.795046630859375,0.941650390625,0.1670989990234375,-0.2853546142578125
1768421457597046500,11.805046630859374,0.935333251953125,0.167388916015625,-0.2824249267578125
1768421457607046700,11.815046630859374,0.93280029296875,0.1671905517578125,-0.28271484375
1768421457617046500,11.825046630859376,0.936279296875,0.165252685546875,-0.2853240966796875
1768421457627046700,11.835046630859376,0.94110107421875,0.16607666015625,-0.28564453125
1768421457637046500,11.845046630859375,0.943115234375,0.167633056640625,-0.2878875732421875
1768421457647046700,11.855046630859375,0.945892333984375,0.16802978515625,-0.289886474609375
1768421457657046500,11.865046630859375,0.9486541748046875,0.1672515869140625,-0.2915496826171875
1768421457667046700,11.875046630859375,0.953887939453125,0.16876220703125,-0.2926483154296875
1768421457677046500,11.885046630859375,0.9530487060546875,0.1686859130859375,-0.29296875
1768421457687046400,11.89504638671875,0.947723388671875,0.1696319580078125,-0.2918853759765625
1768421457697046500,11.905046630859376,0.9421844482421875,0.1680145263671875,-0.2904052734375
1768421457707045600,11.915045654296875,0.9400482177734375,0.1659393310546875,-0.29132080078125
1768421457717045500,11.92504541015625,0.9427947998046875,0.1665191650390625,-0.29168701171875
1768421457727045600,11.935045654296875,0.943634033203125,0.170654296875,-0.2926483154296875
1768421457737045500,11.94504541015625,0.942596435546875,0.1706695556640625,-0.29052734375
1768421457747045600,11.955045654296875,0.9442291259765625,0.1739501953125,-0.29107666015625
1768421457757045500,11.96504541015625,0.947021484375,0.1759490966796875,-0.2958984375
1768421457767045400,11.97504541015625,0.94879150390625,0.1762847900390625,-0.296875
1768421457777045500,11.98504541015625,0.944915771484375,0.17474365234375,-0.2979278564453125
1768421457787045600,11.995045654296876,0.9407501220703125,0.1729888916015625,-0.296417236328125
1768421457797045800,12.005045654296875,0.9362335205078125,0.171173095703125,-0.296417236328125
1768421457807045600,12.015045654296875,0.932464599609375,0.1700439453125,-0.2948455810546875
1768421457817045800,12.025045654296875,0.9275665283203125,0.1682281494140625,-0.2946014404296875
1768421457827045600,12.035045654296875,0.9262237548828125,0.1683349609375,-0.2943115234375
1768421457837045800,12.045045654296874,0.92803955078125,0.1669921875,-0.294830322265625
1768421457847045600,12.055045654296874,0.9315643310546875,0.1677093505859375,-0.2947540283203125
1768421457857044700,12.065044677734376,0.936614990234375,0.166778564453125,-0.295166015625
1768421457867044600,12.075044677734375,0.94158935546875,0.1669921875,-0.2961273193359375
1768421457877044700,12.085044677734375,0.9477081298828125,0.1672515869140625,-0.2978668212890625
1768421457887044600,12.095044677734375,0.949005126953125,0.1658477783203125,-0.29730224609375
1768421457897044700,12.105044677734375,0.949310302734375,0.1662139892578125,-0.2972412109375
1768421457907044600,12.115044677734375,0.948638916015625,0.166534423828125,-0.2971954345703125
1768421457917044700,12.125044677734374,0.949188232421875,0.168182373046875,-0.2969207763671875
1768421457927044600,12.135044677734374,0.951202392578125,0.16571044921875,-0.2974700927734375
1768421457937044700,12.145044677734376,0.9517364501953125,0.165863037109375,-0.298553466796875
1768421457947044600,12.155044677734375,0.9507293701171875,0.166534423828125,-0.2983245849609375
1768421457957044500,12.16504443359375,0.948516845703125,0.165802001953125,-0.2968597412109375
1768421457967044600,12.175044677734375,0.9462738037109375,0.16717529296875,-0.295745849609375
1768421457977044500,12.18504443359375,0.942138671875,0.1671905517578125,-0.2941741943359375
1768421457987043600,12.195043701171874,0.9395751953125,0.1675567626953125,-0.2949066162109375
1768421457997043700,12.205043701171874,0.9379119873046875,0.16790771484375,-0.2939605712890625
1768421458007043600,12.215043701171876,0.93310546875,0.168701171875,-0.294677734375
1768421458017043700,12.225043701171876,0.935089111328125,0.16802978515625,-0.29522705078125
1768421458027043600,12.235043701171875,0.935577392578125,0.16925048828125,-0.293853759765625
1768421458037043500,12.24504345703125,0.9368438720703125,0.16973876953125,-0.293609619140625
1768421458047043600,12.255043701171875,0.9365234375,0.16961669921875,-0.2958526611328125
1768421458057043500,12.26504345703125,0.93634033203125,0.172454833984375,-0.296600341796875
1768421458067043600,12.275043701171874,0.93701171875,0.172210693359375,-0.2950897216796875
1768421458077043500,12.28504345703125,0.9373626708984375,0.171356201171875,-0.2957763671875
1768421458087043600,12.295043701171876,0.93878173828125,0.1712799072265625,-0.2971954345703125
1768421458097043500,12.30504345703125,0.940887451171875,0.1717987060546875,-0.2976531982421875
1768421458107043600,12.315043701171875,0.9412689208984375,0.1724700927734375,-0.2979278564453125
1768421458117043500,12.32504345703125,0.94354248046875,0.1721343994140625,-0.2973480224609375
1768421458127042600,12.33504248046875,0.945220947265625,0.1715087890625,-0.2981414794921875
1768421458137042400,12.34504248046875,0.9458465576171875,0.1714019775390625,-0.2981719970703125
1768421458147042600,12.35504248046875,0.9466552734375,0.1696319580078125,-0.2971038818359375
1768421458157042400,12.36504248046875,0.9450836181640625,0.1688385009765625,-0.29638671875
1768421458167042600,12.37504248046875,0.9435577392578125,0.167083740234375,-0.2951812744140625
1768421458177042400,12.38504248046875,0.9445343017578125,0.1670379638671875,-0.2968292236328125
1768421458187042800,12.395042724609375,0.9427642822265625,0.1676177978515625,-0.295318603515625
1768421458197042700,12.405042724609375,0.94219970703125,0.16705322265625,-0.2949066162109375
1768421458207042800,12.415042724609375,0.9398040771484375,0.16693115234375,-0.296356201171875
1768421458217042700,12.425042724609375,0.9403839111328125,0.1661834716796875,-0.2955169677734375
1768421458227042600,12.43504248046875,0.939300537109375,0.1673583984375,-0.2957916259765625
1768421458237042700,12.445042724609374,0.939300537109375,0.166900634765625,-0.295074462890625
1768421458247042600,12.45504248046875,0.9389495849609375,0.166595458984375,-0.2946929931640625
1768421458257042700,12.465042724609376,0.941192626953125,0.1679534912109375,-0.29632568359375
1768421458267042600,12.47504248046875,0.9402008056640625,0.1677093505859375,-0.2955780029296875
1768421458277041700,12.485041748046875,0.9405670166015625,0.1685791015625,-0.2979278564453125
1768421458287041800,12.495041748046875,0.94091796875,0.1690521240234375,-0.29644775390625
1768421458297041700,12.505041748046875,0.9426422119140625,0.1680145263671875,-0.297027587890625
1768421458307041500,12.51504150390625,0.9423828125,0.16998291015625,-0.2969818115234375
1768421458317041700,12.525041748046876,0.9434814453125,0.1699066162109375,-0.2977752685546875
1768421458327041500,12.53504150390625,0.9420166015625,0.169708251953125,-0.297943115234375
1768421458337041700,12.545041748046875,0.9418792724609375,0.1708221435546875,-0.2969207763671875
1768421458347041300,12.555041259765625,0.9419708251953125,0.171295166015625,-0.2967529296875
1768421458357041400,12.56504150390625,0.9445343017578125,0.170989990234375,-0.2977294921875
1768421458367041300,12.575041259765625,0.9454193115234375,0.1702728271484375,-0.2977447509765625
1768421458377041400,12.58504150390625,0.9428558349609375,0.170013427734375,-0.296722412109375
1768421458387041300,12.595041259765624,0.940399169921875,0.1705169677734375,-0.296051025390625
1768421458397041400,12.60504150390625,0.9386749267578125,0.17144775390625,-0.2955322265625
1768421458407041300,12.615041259765626,0.9410400390625,0.1689300537109375,-0.2969207763671875
1768421458417040400,12.625040283203125,0.941436767578125,0.1670989990234375,-0.296661376953125
1768421458427040300,12.635040283203125,0.9366912841796875,0.1660308837890625,-0.2955322265625
1768421458437040400,12.645040283203125,0.9337158203125,0.166778564453125,-0.2940826416015625
1768421458447040300,12.655040283203125,0.9356842041015625,0.1669921875,-0.2936859130859375
1768421458457040400,12.665040283203124,0.9439544677734375,0.167510986328125,-0.2965087890625
1768421458467040300,12.675040283203124,0.9455108642578125,0.169403076171875,-0.29656982421875
1768421458477040400,12.685040283203126,0.94482421875,0.16937255859375,-0.2965545654296875
1768421458487040300,12.695040283203125,0.9446258544921875,0.170074462890625,-0.298065185546875
1768421458497040400,12.705040283203125,0.94415283203125,0.1706695556640625,-0.2980194091796875
1768421458507040300,12.715040283203125,0.94439697265625,0.1695709228515625,-0.29693603515625
1768421458517040000,12.7250400390625,0.9426116943359375,0.1684722900390625,-0.2966156005859375
1768421458527040300,12.735040283203125,0.941680908203125,0.1697235107421875,-0.2961578369140625
1768421458537040100,12.7450400390625,0.94317626953125,0.1695098876953125,-0.295654296875
1768421458547040300,12.755040283203124,0.942626953125,0.1690826416015625,-0.29669189453125
1768421458557039400,12.765039306640626,0.943817138671875,0.1688079833984375,-0.2971954345703125
1768421458567039200,12.775039306640625,0.94195556640625,0.1684112548828125,-0.2966461181640625
1768421458577039400,12.785039306640625,0.9403533935546875,0.167755126953125,-0.2962188720703125
1768421458587039200,12.795039306640625,0.940216064453125,0.1681671142578125,-0.296173095703125
1768421458597039000,12.8050390625,0.9390869140625,0.1679229736328125,-0.2964630126953125
1768421458607039200,12.815039306640625,0.9409027099609375,0.1681365966796875,-0.2953948974609375
1768421458617039000,12.8250390625,0.9396820068359375,0.167083740234375,-0.2952728271484375
1768421458627039200,12.835039306640626,0.94012451171875,0.166778564453125,-0.2954864501953125
1768421458637039400,12.845039306640626,0.9390869140625,0.1677398681640625,-0.29583740234375
1768421458647039500,12.85503955078125,0.939208984375,0.16717529296875,-0.29486083984375
1768421458657039400,12.865039306640625,0.941314697265625,0.167266845703125,-0.29547119140625
1768421458667039500,12.87503955078125,0.9437408447265625,0.1675872802734375,-0.295989990234375
1768421458677039400,12.885039306640625,0.9419403076171875,0.16754150390625,-0.2960968017578125
1768421458687039500,12.89503955078125,0.941741943359375,0.166351318359375,-0.29388427734375
1768421458697039400,12.905039306640624,0.941375732421875,0.1663970947265625,-0.294769287109375
1768421458707038500,12.91503857421875,0.942169189453125,0.168182373046875,-0.2955322265625
1768421458717038300,12.925038330078126,0.943511962890625,0.167327880859375,-0.294189453125
1768421458727038500,12.93503857421875,0.9424591064453125,0.16790771484375,-0.2946319580078125
1768421458737038300,12.945038330078125,0.942474365234375,0.16778564453125,-0.2939453125
1768421458747038500,12.95503857421875,0.9439544677734375,0.1679534912109375,-0.295928955078125
1768421458757038300,12.965038330078125,0.94451904296875,0.1681976318359375,-0.295166015625
1768421458767038500,12.97503857421875,0.9423065185546875,0.16778564453125,-0.2942962646484375
1768421458777038300,12.985038330078124,0.943328857421875,0.1684417724609375,-0.2943115234375
