time,seconds_elapsed,z,y,x
1768421445863387400,0.071387451171875,-0.03881926773786545,-0.019209142860770224,-0.03926686537489295
1768421445873387300,0.08138720703125,-0.024910003117192533,-0.04009761711061001,-0.052223085320740936
1768421445883387400,0.091387451171875,0.015901351753342896,-0.020132687446475027,-0.06419255925156175
1768421445893387300,0.10138720703125,-0.002053991654049605,0.013751461976766586,-0.08914696776606142
1768421445903387400,0.111387451171875,-0.024759159937035292,0.04195990385115146,-0.07408062379844486
1768421445913386200,0.12138623046875,-0.020094693523645398,0.05041209037601947,-0.03524411266483366
1768421445923386400,0.131386474609375,0.01959783165110275,0.0027320553123950956,0.0021651421446353195
1768421445933386200,0.14138623046875,0.04380291963564232,-0.022673019579052923,0.009581117489561438
1768421445943386400,0.151386474609375,0.07327330773724243,-0.039707741010189056,-0.0006732961516827345
1768421445953386200,0.16138623046875,0.07083002450466155,-0.04523088834583759,0.012234992999210954
1768421445963386400,0.171386474609375,0.06724571801079436,-0.028007366344332693,0.0037150019351392984
1768421445973386200,0.18138623046875,0.042958833494316784,-0.02275777525305748,-0.02681954479925334
1768421445983386400,0.191386474609375,0.023511808490753173,-0.031283027014136315,-0.04916442840248346
1768421445993386200,0.20138623046875,0.03211127626551315,-0.04084814321696758,-0.0660750119972974
1768421446003386400,0.211386474609375,0.0496983708824031,-0.022416414469480513,-0.05936265487708151
1768421446013386200,0.22138623046875,0.0640484015405178,-0.013704700225591658,-0.035026524391397834
1768421446023386400,0.231386474609375,0.024811785173416135,-0.003951367974281311,-0.04336399849541485
1768421446033386200,0.24138623046875,0.008659125540126114,-0.015908347749710082,-0.04596234442554414
1768421446043386000,0.25138623046875,0.024214403802156448,-0.026683424264192578,-0.043110535190999506
1768421446053385200,0.26138525390625,0.04181552694439888,-0.05167582670152187,-0.050133346499875185
1768421446063385300,0.27138525390625,0.050830041793454434,-0.0579705429315567,-0.03368614263311028
1768421446073385200,0.28138525390625,0.04603228612290695,-0.06140402451157569,-0.029005583601444958
1768421446083385300,0.29138525390625,0.02335747644556686,-0.06076981826126575,-0.05128668125346303
1768421446093385200,0.30138525390625,0.03193358161104843,-0.03901683613657951,-0.06224668588079512
1768421446103385000,0.311385009765625,0.044735816571582106,-0.022945406779646873,-0.056770008035376664
1768421446113385200,0.32138525390625,0.039259978976380075,-0.02080196501016617,-0.056658583550155156
1768421446123385000,0.331385009765625,0.025780922466516493,-0.022110124999284744,-0.0482195487678051
1768421446133385200,0.34138525390625,0.015395100997947156,-0.025380524972081184,-0.06948328607082367
1768421446143385000,0.351385009765625,0.018494254323374478,-0.051534956926107406,-0.07202427579052746
1768421446153385200,0.36138525390625,-0.0026432262514717877,-0.05388181231319904,-0.0661627633459866
1768421446163385000,0.371385009765625,0.044355849943822245,0.030087679749727248,0.012479980736225842
1768421446173385200,0.38138525390625,-0.014298601864976808,-0.009085223731398582,-0.06629267333596944
1768421446183385000,0.391385009765625,-0.030694413471221923,-0.00830196439921856,-0.046037455488368864
1768421446193384200,0.40138427734375,0.019427160392468792,0.0505243185788393,0.01634483947083354
1768421446203384000,0.411384033203125,0.015846406695712356,0.05816401967704296,0.02626804839633405
1768421446213384200,0.42138427734375,0.0002454900605138391,0.05173194080293178,-0.009861176539957522
1768421446223384000,0.431384033203125,0.036250869421428064,0.01610416258275509,0.009416428447142243
1768421446233384200,0.44138427734375,0.028885893611377104,-0.016238602617383004,0.03352254956923425
1768421446243384000,0.451384033203125,0.0442132174695842,-0.020752280649542806,0.0504986726809293
1768421446253384200,0.46138427734375,0.018887053033243863,-0.0375356576681137,0.049841450881212945
1768421446263384300,0.47138427734375,0.024706562100118026,-0.028868367087841032,0.0560701892029494
1768421446273384400,0.481384521484375,0.023980595046281812,-0.030516134294867513,0.04916318629346788
1768421446283384300,0.49138427734375,0.009841001401608809,-0.008970657441020012,0.04328231156133115
1768421446293384200,0.50138427734375,0.011275418118899688,-0.012703998750448225,0.04618826213590801
1768421446303384300,0.51138427734375,0.007471340527664869,0.012143442258238792,0.0646309506688267
1768421446313384200,0.52138427734375,0.022469003173243254,0.01305412736237049,0.08009688841328025
1768421446323384300,0.53138427734375,0.02359011615766212,0.006334463718533516,0.06394333373084664
1768421446333384400,0.541384521484375,0.007982230925559997,0.00860650030374527,0.06000453297719359
1768421446343383600,0.551383544921875,-0.003773691586125642,-0.0167921448469162,0.06302117738462984
1768421446353383400,0.561383544921875,-0.0049848209415562445,-0.03185819655358791,0.06229870832897722
1768421446363383600,0.571383544921875,-0.016587562185525893,-0.040186464437842365,0.0697252781331539
1768421446373383400,0.581383544921875,-0.012645546561479568,-0.046404023778438566,0.06911262612752617
1768421446383383600,0.591383544921875,-0.017160402770573274,-0.050071314114332195,0.06548793282434344
1768421446393383400,0.601383544921875,-0.013009119176864623,-0.051337388527393335,0.05015113788489252
1768421446403383600,0.611383544921875,-0.009093973293434829,-0.07161445288062095,0.0285150601381436
1768421446413383400,0.621383544921875,-0.028185627254378048,-0.06765431707799434,0.02043130506686866
1768421446423383600,0.631383544921875,-0.04607433516634628,-0.053075172105431556,-0.003289762260392308
1768421446433383400,0.641383544921875,-0.059267021616036066,-0.04493278218209743,-0.02589965347535908
1768421446443383600,0.651383544921875,-0.056062663483619685,-0.013460954597592353,-0.0035707711588591337
1768421446453383400,0.661383544921875,-0.038178613480459894,-0.01851122372448444,0.011522058956883846
1768421446463383600,0.671383544921875,-0.03920505218505859,-0.014458148941397667,0.039524055006355044
1768421446473383400,0.681383544921875,-0.03368950363397598,-0.00430734180510044,0.08107537805661559
1768421446483382500,0.691382568359375,-0.02642272750139236,0.0019213234513998031,0.07972144269701092
1768421446493382400,0.70138232421875,-0.01844166561961174,0.0034931028127670287,0.07381137840300799
1768421446503382500,0.711382568359375,-0.028800562548637387,0.01672550935149193,0.08107757001370192
1768421446513382400,0.72138232421875,-0.016621446188818664,0.02501636783480644,0.10718133122641593
1768421446523382500,0.731382568359375,-0.00417231724858284,0.02626958276629448,0.10187924276292323
1768421446533382400,0.74138232421875,-0.013061707880627363,0.004780220013856888,0.08141432768739759
1768421446543382500,0.751382568359375,-0.002864157259464264,-0.01595335593521595,0.06246982711218297
1768421446553382400,0.76138232421875,-0.01339605440152809,-0.03712123164832592,0.06000438684672117
1768421446563382300,0.77138232421875,-0.020177713898289946,-0.058873629251122474,0.05963752629570663
1768421446573382400,0.78138232421875,-0.005528417165810242,-0.06099018301367759,0.08059095554053783
1768421446583382300,0.79138232421875,-0.0462391703392379,-0.044075288569927214,0.09032806730940937
1768421446593382400,0.80138232421875,-0.056386488610506054,-0.05348842908143997,0.1031852838601917
1768421446603382300,0.81138232421875,-0.0334510004366748,-0.06185118375718593,0.0855802882604301
1768421446613382400,0.82138232421875,0.03522327993935905,-0.05988952829539775,0.03444171024076641
1768421446623381500,0.831381591796875,0.034102157821785654,-0.048938510692119595,0.020526728265359995
1768421446633381400,0.84138134765625,-0.026637831556797026,-0.008214286115765572,0.013173369827866554
1768421446643381200,0.85138134765625,-0.0778886925782077,0.013342881175875662,-0.011457725016400218
1768421446653381400,0.86138134765625,-0.09762098253024741,0.003469721937179565,-0.03474631921052933
1768421446663381200,0.87138134765625,-0.07224104208005591,-0.023161095356941223,-0.025627595068328082
1768421446673381400,0.88138134765625,-0.037986917700106274,-0.060710781550407406,-0.02670468624792993
1768421446683381200,0.89138134765625,-0.03363923475146294,-0.04874094229340553,-0.00957600292302668
1768421446693381600,0.901381591796875,-0.0463478914107196,-0.027953590330481528,0.019563838049955665
1768421446703381500,0.911381591796875,-0.02362405495988205,-0.01989946321249008,0.020098529448546468
1768421446713381600,0.921381591796875,-0.03357143021225929,-0.0292313551813364,0.012827405934408306
1768421446723381500,0.931381591796875,-0.056382963212858885,-0.038872459229826926,-0.024691446729376912
1768421446733381600,0.941381591796875,-0.0652338119328022,-0.06962064871490001,-0.02048274299316108
1768421446743381500,0.951381591796875,-0.041186581391096114,-0.07925999919772148,-0.017786562711745498
1768421446753381400,0.96138134765625,-0.034436504342686386,-0.06029752457439899,-0.027779475872591136
1768421446763380500,0.97138037109375,-0.057490047671925275,-0.01364800160229206,-0.008403963468968868
1768421446773380600,0.981380615234375,-0.04847089318037033,0.0006733692169189453,0.004646510631591081
1768421446783380500,0.99138037109375,-0.03252164716469124,-0.009859715235233307,0.03473711299076676
1768421446793380600,1.001380615234375,-0.01821485286010429,-0.04778934065699577,0.04852744567319751
1768421446803380500,1.01138037109375,-0.009553444031346588,-0.07359598208665848,0.03729899936802685
1768421446813380400,1.02138037109375,-0.005459443582827225,-0.07126023261547088,0.012298194428533315
1768421446823380500,1.03138037109375,-0.008207865508133546,-0.07174830839335918,0.0060161184843629594
1768421446833380400,1.04138037109375,-0.0011421923050656914,-0.046645431318879126,0.0007275105569511652
1768421446843380500,1.05138037109375,0.0396317531645298,-0.04712181665897369,0.012359715357422828
1768421446853380400,1.06138037109375,0.0461748820645269,-0.06719955904781819,0.031150121349468825
1768421446863380500,1.07138037109375,0.05221531300623901,-0.08112930020093917,0.038100744204968215
1768421446873380400,1.08138037109375,0.054537079617846755,-0.0711029962271452,0.03514839720539748
1768421446883380500,1.09138037109375,0.023039533070195465,-0.02484159578979015,0.0170966076862067
1768421446893380400,1.10138037109375,-0.013514164355862885,-0.0010123919129371643,0.0010780775602906943
1768421446903379500,1.11137939453125,-0.048185646498203276,0.0434703084141016,-0.007861600220575929
1768421446913379300,1.12137939453125,-0.06360299586057662,0.06354980436861514,0.013622647965326905
1768421446923379500,1.13137939453125,-0.049601367648178706,0.056680503121018404,0.036506460750848055
1768421446933379300,1.14137939453125,-0.039111528682708736,0.037377836757898325,0.057418242811039084
1768421446943379500,1.15137939453125,-0.045585693132877345,0.0038578444719314575,0.07176650163717567
1768421446953379300,1.16137939453125,0.004618910238612443,-0.028916297882795334,0.08558153036944567
1768421446963379500,1.17137939453125,0.035874446457624436,-0.038651509955525395,0.07708711213804781
1768421446973379300,1.18137939453125,0.05129530295133591,-0.0329915844976902,0.0779153796557337
1768421446983379500,1.19137939453125,0.028447529593575743,-0.026314006429910657,0.039700653682276606
1768421446993379300,1.20137939453125,0.028696517652273178,-0.0069517188340425485,0.01698233365677297
1768421447003379500,1.21137939453125,0.006066159038012847,0.015228548792004585,-0.012868980053812264
1768421447013379300,1.22137939453125,-0.0023018472015857694,0.016449615019559858,-0.02661803087778389
1768421447023379200,1.231379150390625,-0.00022797267013229428,0.01887421181797981,-0.002083747471496463
1768421447033379600,1.241379638671875,-0.0022784663259983063,0.029086978274583813,-0.0027552169922739267
1768421447043378400,1.25137841796875,-0.005939929709304124,0.036759412598609924,0.021585443538054822
1768421447053378300,1.26137841796875,-0.014013346049655227,0.02319032145142555,0.0874010739468038
1768421447063378400,1.27137841796875,0.0010801964521408081,0.024423662638664245,0.14080292072333395
1768421447073378300,1.28137841796875,0.021344401323795316,0.012765373548865318,0.14852737749554215
1768421447083378400,1.29137841796875,0.009171130182873457,-0.04471358647346496,0.08322071952223778
1768421447093378600,1.301378662109375,0.003473210802208632,-0.10519757353067398,0.01222498306185007
1768421447103378400,1.31137841796875,0.03415476479185745,-0.17449790425002573,-0.007977554750442505
1768421447113378600,1.321378662109375,0.056443771755695336,-0.1839116292834282,0.019562559408321977
1768421447123378400,1.33137841796875,0.05235443834913894,-0.15482348196506499,0.06397014867253602
1768421447133378600,1.341378662109375,0.017035287686716763,-0.0758820471972227,0.09665558983050286
1768421447143378400,1.35137841796875,0.016645977841876446,-0.012794599643349646,0.11984759178236126
1768421447153378600,1.361378662109375,0.008742109382152558,0.03801321205198765,0.1259972735185176
1768421447163378400,1.37137841796875,-0.001375946262013167,0.03986030122339725,0.13384287245236337
1768421447173378600,1.381378662109375,-0.009829338363278657,0.009072364249825477,0.11566446087881922
1768421447183377400,1.39137744140625,0.01957912695063278,-0.023808745610713958,0.10243768036328256
1768421447193377500,1.40137744140625,0.04389874469293281,-0.05024783972501754,0.09069982323125005
1768421447203377400,1.41137744140625,0.05069092558370903,-0.06904547917544841,0.08824651179499923
1768421447213377500,1.42137744140625,0.038854320784937585,-0.03605272563397884,0.08072451879233121
1768421447223377400,1.43137744140625,0.040635980037320406,-0.022363222977519033,0.06555800238586962
1768421447233377500,1.44137744140625,0.020125106928218155,-0.021525603109598158,0.03323825273513794
1768421447243377400,1.45137744140625,0.011307009700406342,-0.013950199419260024,0.017673384660854934
1768421447253377500,1.46137744140625,-0.006259042128454894,0.012464344775676726,-0.004550356780737638
1768421447263377400,1.47137744140625,0.008155212872289121,0.0028068741142749784,-0.018100450966507194
1768421447273377500,1.48137744140625,-0.002234024396073073,-0.009845686709880829,-0.024479776740074156
1768421447283377400,1.49137744140625,-0.004573317531216889,-0.04029167837798595,-0.0077275985773652784
1768421447293377300,1.501377197265625,0.0008440313423983752,-0.0454395626604557,-0.008138809726759792
1768421447303377400,1.51137744140625,-0.0018681319594383238,-0.028423545929789542,0.00040967677943408486
1768421447313376500,1.52137646484375,0.003408949926961213,-0.0010889642804861068,0.009041457654908299
1768421447323376400,1.53137646484375,0.01149520748257637,0.013512392523884772,-0.002909530771151185
1768421447333376800,1.541376708984375,0.032128848454821855,0.021361936980485916,-0.005986380933225155
1768421447343376600,1.551376708984375,0.024020360801089553,0.01796878741085529,-0.03608896599113941
1768421447353376500,1.56137646484375,0.018549235913623122,0.018017302727699278,-0.06171082543842494
1768421447363376600,1.571376708984375,-0.008701192849874495,0.0005675707548856735,-0.05733114904947578
1768421447373376500,1.58137646484375,-0.0009176993668079376,-0.009390928679704666,-0.06408201154917478
1768421447383376600,1.591376708984375,-0.000019855477940291167,0.0074491469621658325,-0.057045317845419045
1768421447393376500,1.60137646484375,-0.025790293083060533,0.03132452806830406,-0.03706504448167979
1768421447403376600,1.611376708984375,-0.03853635914325714,0.031688685205578805,-0.017751856724545358
1768421447413376500,1.62137646484375,-0.008620528829097748,-0.002691138780117035,-0.020620617093890903
1768421447423376600,1.631376708984375,0.0296212130154483,-0.00850713158249855,-0.030223288828134534
1768421447433376500,1.64137646484375,0.03506897529363632,0.024271686947345734,-0.03433496193066239
1768421447443375600,1.651375732421875,-0.032632688057422636,0.04462181653678417,-0.04046287022642791
1768421447453375500,1.66137548828125,-0.050310949822794646,0.036225159591436386,-0.0681029376283288
1768421447463375600,1.671375732421875,-0.04139585849391296,-0.023075170639157296,-0.08954020486734807
1768421447473375500,1.68137548828125,-0.029819950457941738,-0.07174830839335918,-0.11460019264817237
1768421447483375600,1.691375732421875,0.000002319821249693632,-0.10634966617524623,-0.11393617578148842
1768421447493375500,1.70137548828125,-0.04204696108009666,-0.060578095081448555,-0.08572320386245846
1768421447503375600,1.711375732421875,-0.06376083503710106,-0.01686696364879608,-0.036820860462263225
1768421447513375500,1.72137548828125,-0.06049220689628273,0.013398410755395888,-0.010061813678592444
1768421447523375600,1.731375732421875,-0.11604865615712479,0.008045359289646148,0.038369039752334355
1768421447533375500,1.74137548828125,-0.13212068830225615,0.013578443497419357,0.07965908151790499
1768421447543375600,1.751375732421875,-0.0766401720881462,-0.01684299825131893,0.1048183649547398
1768421447553375700,1.761375732421875,-0.015825309108756482,-0.022457331001758573,0.10622815868742763
1768421447563375600,1.771375732421875,0.03228782014250755,-0.058313657280802726,0.038435017660632724
1768421447573375700,1.781375732421875,0.028937340670824048,-0.11751403426826,-0.008603212368115782
1768421447583374600,1.79137451171875,-0.015177695387601851,-0.14421557871103285,-0.05722542365267873
1768421447593374500,1.80137451171875,-0.03818213887810707,-0.13721768264770506,-0.05761361925266683
1768421447603374600,1.81137451171875,-0.04467851516008377,-0.10533025999963283,-0.028911256381496785
1768421447613374700,1.821374755859375,-0.07388126530144364,-0.03794131585955619,0.023713176281750202
1768421447623374600,1.83137451171875,-0.05977790288077667,0.022566052073240278,0.07384959152154624
1768421447633374700,1.841374755859375,-0.05238718984127044,0.03532324231564998,0.10309110277071594
1768421447643374600,1.85137451171875,-0.025385749136470258,-0.02931377276778221,0.10885368488542735
1768421447653374700,1.861374755859375,0.0056301513740792865,-0.08528408179283141,0.06783727242946624
1768421447663374600,1.87137451171875,0.00722817942155525,-0.11999065351486206,0.009604717560857534
1768421447673374700,1.881374755859375,-0.014229619148839264,-0.10321078362762927,-0.017743892613798377
1768421447683374600,1.89137451171875,-0.027134675163030624,-0.04076806371808052,-0.01919299544356763
1768421447693374700,1.901374755859375,-0.06297174875233322,0.022744915771484374,0.01233684593848884
1768421447703373600,1.91137353515625,-0.06733226378308609,0.07008826622664928,0.028746786534786222
1768421447713373700,1.921373779296875,-0.04322890087366104,0.09062310473322868,0.03410064171813428
1768421447723373600,1.93137353515625,-0.03972998937461525,0.07222469373345375,0.0470016974106431
1768421447733373700,1.941373779296875,-0.009406162781454622,0.01593406671285629,0.029416721685603258
1768421447743373600,1.95137353515625,0.008909264376293868,0.0024169980138540265,0.029091508319228885
1768421447753373700,1.961373779296875,0.006478840625286102,-0.006008885025978088,0.019271978963911533
1768421447763373600,1.97137353515625,-0.02105681655406952,-0.00006429740786552428,0.019987726017832753
1768421447773373700,1.981373779296875,-0.041986170803569256,0.034756256082653994,0.03475464864745736
1768421447783373600,1.99137353515625,-0.04593759357677772,0.02495090138316154,0.009183277278393506
1768421447793373700,2.001373779296875,-0.018709376645088194,-0.011080196940898894,-0.03301167743764818
1768421447803373600,2.01137353515625,-0.0052735564887523645,-0.06658698010742664,-0.06816358177438378
1768421447813373400,2.02137353515625,0.020824176841974257,-0.12912673065066338,-0.0917735899426043
1768421447823373600,2.03137353515625,0.01085928419921547,-0.1661906791538,-0.10301065794564783
1768421447833373400,2.04137353515625,-0.008780651294253766,-0.14499474638998508,-0.11219495813734828
1768421447843372500,2.05137255859375,-0.01805708674881607,-0.048933249995112414,-0.0938143750552088
1768421447853372700,2.06137255859375,-0.057944860501028594,0.043861353558301924,-0.07569032401740551
1768421447863372500,2.07137255859375,-0.07149404137134552,0.13140168984532355,-0.03008687603212893
1768421447873372700,2.08137255859375,-0.10594696712587028,0.16487667394578456,0.01205021101683378
1768421447883372500,2.09137255859375,-0.11518007489535957,0.1297650285542011,-0.002757920406013727
1768421447893372400,2.101372314453125,-0.10178750935886055,0.06574468406438827,-0.007908946493640542
1768421447903372500,2.11137255859375,-0.0959597895860672,0.015024550652503967,-0.001809022183343768
1768421447913372400,2.121372314453125,-0.03903780585937202,-0.0427338108330965,-0.022359715846180916
1768421447923372500,2.13137255859375,-0.032290121697448194,-0.10765139642357825,-0.007198679332435131
1768421447933372400,2.141372314453125,-0.038880094547010954,-0.12825637755692004,0.020676731195300817
1768421447943372500,2.15137255859375,-0.03070614044163376,-0.12729250096082687,0.0040226065795868635
1768421447953372700,2.16137255859375,-0.05551208039615303,-0.08710662104487418,0.015903087052702904
1768421447963372800,2.171372802734375,-0.0927052447695285,-0.02998421937525272,0.047036111136898394
1768421447973371400,2.181371337890625,-0.1112134362867102,0.03746668408513069,0.08632277719080447
1768421447983371500,2.19137158203125,-0.14880056841373443,0.12183715816438197,0.17077333076894283
1768421447993371400,2.201371337890625,-0.16333057701494544,0.2114163068026304,0.22169125177524981
1768421448003371800,2.211371826171875,-0.16248192429635672,0.28076106118559835,0.3093760380342603
1768421448013371600,2.22137158203125,-0.20005144770145414,0.32954408905506133,0.3834145762566477
1768421448023371800,2.231371826171875,-0.22208788641002028,0.3841857798248529,0.385112539280951
1768421448033371600,2.24137158203125,-0.24296821388602255,0.4268430182904005,0.3402293683942407
1768421448043371800,2.251371826171875,-0.27332711179256436,0.3979629607647657,0.26408231358528134
1768421448053371600,2.26137158203125,-0.32375260963942853,0.25000468839406964,0.15338380455076694
1768421448063371800,2.271371826171875,-0.3814204432973638,-0.0021557167291641234,0.05295213024765253
1768421448073371600,2.28137158203125,-0.40776363928914067,-0.24157822083234787,0.055125967155396936
1768421448083371500,2.29137158203125,-0.382307747525908,-0.41598669323325155,0.13808555152341723
1768421448093370600,2.30137060546875,-0.44972763479351996,-0.5145546194911003,0.2802356490720063
1768421448103370800,2.311370849609375,-0.5262357414672151,-0.53786769053936,0.44242432604283094
1768421448113370600,2.32137060546875,-0.5680091463029384,-0.532155158111453,0.5905678918525576
1768421448123370800,2.331370849609375,-0.5631658344576135,-0.5422451749712228,0.6170118813376874
1768421448133370600,2.34137060546875,-0.4156746316093951,-0.6204144563227891,0.47278052053563296
1768421448143370800,2.351370849609375,-0.34924130769371986,-0.6948650094121694,0.3662170654792338
1768421448153370600,2.36137060546875,-0.48281741896867747,-0.5989519815772771,0.3732490099426359
1768421448163370500,2.37137060546875,-0.6437713665127753,-0.3306470818608999,0.4449950533136725
1768421448173370600,2.38137060546875,-0.7602899600028992,-0.010968553259968757,0.5540091894578189
1768421448183370500,2.39137060546875,-0.7782032178342342,0.2622890004277229,0.7401542038165032
1768421448193370600,2.40137060546875,-0.7173474748551845,0.4220364947915077,0.9363776907276362
1768421448203370500,2.41137060546875,-0.5929787523865699,0.47421384127438065,1.1212139605753124
1768421448213370600,2.42137060546875,-0.43961544263456015,0.3975245693475008,1.2117969524938612
1768421448223369500,2.431369384765625,-0.27745500537753104,0.2580103001952171,1.1747183178782463
1768421448233369600,2.44136962890625,-0.11869772762749344,0.11770166579484939,1.1029827228359876
1768421448243369500,2.451369384765625,-0.04867200524304062,0.1004302129983902,0.9777654937792569
1768421448253369600,2.46136962890625,-0.11818333009826018,0.2034130330890417,0.8332689061697572
1768421448263369500,2.471369384765625,-0.1985305034781806,0.34603462060689927,0.6220076437983661
1768421448273369600,2.48136962890625,-0.2766565302099101,0.5344885694950818,0.35495983147099613
1768421448283369500,2.491369384765625,-0.3414274190723896,0.67755673173666,0.05581614137664437
1768421448293369600,2.50136962890625,-0.4575555519402027,0.768501908031106,-0.17198351027630268
1768421448303369500,2.511369384765625,-0.703558603477478,0.7571750428527593,-0.26431378425359725
1768421448313369600,2.52136962890625,-1.0224047729074954,0.5966723462074994,-0.19258432669118045
1768421448323369500,2.531369384765625,-1.2118810505807398,0.2762958984702825,-0.043922216900065536
1768421448333369900,2.541369873046875,-1.2199334241330624,-0.13024609006941318,0.16004413922280072
1768421448343368700,2.55136865234375,-1.0504565629154443,-0.49553486172258854,0.3549092703275382
1768421448353368800,2.561368896484375,-0.7728501663684845,-0.724170598873496,0.4452158564575016
1768421448363368700,2.57136865234375,-0.4470902720272541,-0.7590665556877851,0.5083417363256216
1768421448373368800,2.581368896484375,-0.357639133682847,-0.6640519379973411,0.48925607371404767
1768421448383368700,2.59136865234375,-0.61429568118155,-0.5473340225428343,0.42243185078464446
1768421448393368800,2.601368896484375,-1.0084569115757942,-0.4772884264141321,0.32569450095482166
1768421448403368700,2.61136865234375,-1.2566589344620704,-0.4948801972061395,0.18364435664936898
1768421448413368600,2.62136865234375,-1.255986149767041,-0.6213999602288007,0.027108956199884415
1768421448423368700,2.63136865234375,-1.252168637305498,-0.7742074261963366,-0.15813969384096563
1768421448433368600,2.64136865234375,-1.3540011183172465,-0.8883242192417383,-0.14145363971702754
1768421448443368700,2.65136865234375,-1.3680869268149136,-0.9493693473130465,-0.015084610276669262
1768421448453368600,2.66136865234375,-1.2838742736458777,-0.8847340857952832,0.16577983333058655
1768421448463368700,2.67136865234375,-1.1100152518212794,-0.7215905192524195,0.36637576317228376
1768421448473367800,2.681367919921875,-0.9982973366111516,-0.4322136054128408,0.5140148135259747
1768421448483367700,2.69136767578125,-0.9008382483780384,-0.07735387331545353,0.5643286311592907
1768421448493367600,2.701367431640625,-0.8202560606658458,0.30144319920837875,0.5315005666602403
1768421448503367700,2.71136767578125,-0.7287731242328882,0.6587509089797735,0.4687288339920342
1768421448513367600,2.721367431640625,-0.616240970030427,0.9419640394926071,0.3380312007628381
1768421448523367700,2.73136767578125,-0.5546662651270627,1.148390282922983,0.13021854447536169
1768421448533367600,2.741367431640625,-0.5889174942970276,1.255460664588213,-0.034797026484459634
1768421448543367700,2.75136767578125,-0.7568927187800407,1.2329822907984256,-0.13968896813206375
1768421448553367600,2.761367431640625,-0.8499965344130992,1.1768664358228444,-0.17920213641822336
1768421448563367700,2.77136767578125,-0.8281284014761447,1.0795675065875052,-0.2774298709362745
1768421448573367600,2.781367431640625,-0.8446025664150715,0.9406880282074213,-0.31185002693235875
1768421448583367700,2.79136767578125,-0.865200533285737,0.7605863126009702,-0.30757154589556157
1768421448593366500,2.801366455078125,-0.9467775772541761,0.5352729978710412,-0.21095869922824204
1768421448603366700,2.81136669921875,-0.9517454287946223,0.3962620020657778,-0.1203426818229258
1768421448613366500,2.821366455078125,-0.9452648346036672,0.37881694626808166,-0.10606259286217391
1768421448623366700,2.83136669921875,-1.0620055464118718,0.3935410526692867,-0.08776998032443224
1768421448633366500,2.841366455078125,-1.2185294025540352,0.4682032026827335,-0.1129031794719398
1768421448643366700,2.85136669921875,-1.3381336870998144,0.5131231253832579,-0.10292780196778475
1768421448653366800,2.86136669921875,-1.3765648323029278,0.5179945308119058,-0.082397347375378
1768421448663367000,2.871366943359375,-1.3242062840342521,0.49394320861697194,-0.045865459922328586
1768421448673366800,2.88136669921875,-1.294125618547201,0.3728624217778444,0.03328990985713899
1768421448683366700,2.89136669921875,-1.3652724539160728,0.23416005353033542,0.1767268323458731
1768421448693366800,2.90136669921875,-1.56735102353096,0.10300503192245959,0.33112660900615154
1768421448703366700,2.91136669921875,-1.7992717737019062,0.036378888848423954,0.5172225235261023
1768421448713366800,2.92136669921875,-2.0035282718777654,0.05559036979675293,0.6473625228725374
1768421448723366000,2.931365966796875,-2.199593280291557,0.14440613284707068,0.795407304482907
1768421448733365800,2.94136572265625,-2.344585104072094,0.25654957999289035,0.9579649608965962
1768421448743366000,2.951365966796875,-2.431964112317562,0.36250761650204655,1.0470667012814432
1768421448753365800,2.96136572265625,-2.4660791478872297,0.4529460123181343,1.0306205203279852
1768421448763365600,2.97136572265625,-2.522344055944681,0.5405284341812133,0.9899379429362714
1768421448773365800,2.98136572265625,-2.5932757872581482,0.5473796152502298,0.9527057251941412
1768421448783365600,2.99136572265625,-2.6485481771469113,0.46267479465007777,0.9743618228156119
1768421448793365800,3.00136572265625,-2.6579613176584242,0.3330260859519243,1.0042798450868575
1768421448803365600,3.01136572265625,-2.6175498122930527,0.16424071412980557,0.9843079742252826
1768421448813365800,3.02136572265625,-2.5573195077359676,-0.041249709755182266,0.9194990366410464
1768421448823365600,3.03136572265625,-2.3687246890723705,-0.1830962212473154,0.6508734536029398
1768421448833365800,3.04136572265625,-1.5282500162422656,-0.3230775233894586,-0.05045030349455774
1768421448843364600,3.051364501953125,-0.2772036609649658,-1.0882967564880848,-0.948201253381744
1768421448853364700,3.06136474609375,1.211524492228031,-3.615465456110239,-1.4931616055957972
1768421448863364600,3.071364501953125,1.0941022278964518,-6.671081106975675,-1.4563279587171971
1768421448873364700,3.08136474609375,-0.29661563292145726,-7.367049693715572,-0.7082270336799323
1768421448883364600,3.091364501953125,-1.1367395926177501,-5.582027979162335,-0.13974774911459534
1768421448893364700,3.10136474609375,-1.374596747100353,-2.684914206513762,-0.9500459314003586
1768421448903364600,3.111364501953125,-1.4994436084747313,-0.29968787997365,-1.6137499327428637
1768421448913364700,3.12136474609375,-1.3778782529890536,1.2961615082889795,-1.23353831724599
1768421448923364600,3.131364501953125,-1.138787757319212,1.7116753233134745,-0.9465415765412152
1768421448933364700,3.14136474609375,-0.7825707653939723,1.1273714602917433,-0.8242313940376043
1768421448943364600,3.151364501953125,0.34072486029360444,0.021806758138537406,-0.8140418623261153
1768421448953364700,3.16136474609375,1.8652467593908308,-1.4133733447402714,-1.0915689100265502
1768421448963364600,3.171364501953125,2.8240415221750736,-2.972328880369663,-1.343565064498782
1768421448973363700,3.18136376953125,2.8067794217288493,-4.208270605495572,-1.3127978780522942
1768421448983363600,3.191363525390625,2.826386623996496,-3.952748030462861,-0.7565459511689842
1768421448993363700,3.20136376953125,3.16176307246685,-2.277304296481609,-0.05284428595900535
1768421449003363600,3.211363525390625,2.8388439545094966,-0.7415268073439598,0.3664643547711894
1768421449013363700,3.22136376953125,2.0736545320272444,0.40337329537570477,0.6591932459197938
1768421449023363600,3.231363525390625,1.3324141404092311,1.311442664051056,1.0497020912863313
1768421449033363500,3.241363525390625,0.7486497910916805,1.8112281689554453,1.1205313851386307
1768421449043363600,3.251363525390625,0.4509119492072612,2.038912304469943,0.8184151089742779
1768421449053363700,3.26136376953125,0.3073462492397055,1.8552450053364038,0.10365436267666518
1768421449063363800,3.27136376953125,0.4423731073122471,1.3514005804300306,-0.6514551990136503
1768421449073363700,3.28136376953125,0.6882827084124088,0.8335036647737025,-1.04284849906452
1768421449083363800,3.29136376953125,0.7938320179902016,0.3578220890343189,-1.16671519029513
1768421449093362700,3.30136279296875,0.6978864030599594,0.05446107350587844,-1.1110011941187083
1768421449103362800,3.31136279296875,0.5997464198905974,-0.0876245074391365,-0.864799551269412
1768421449113362700,3.32136279296875,0.42955110820531844,-0.02655015327334404,-0.5626652645243332
1768421449123362800,3.33136279296875,0.19456169117875396,0.16879472417235372,-0.250286574075371
1768421449133362700,3.34136279296875,0.076783927940391,0.48980420911610123,0.05301076509971171
1768421449143362800,3.35136279296875,0.10828618719577789,0.9111439538151025,0.34062538197450337
1768421449153362700,3.36136279296875,0.23130466409921643,1.2900520854979753,0.5930795458799227
1768421449163362800,3.37136279296875,0.27551906887888905,1.5838579216957092,0.8161199837744235
1768421449173362700,3.38136279296875,0.30800562646389007,1.7615052298873661,1.0239048022069037
1768421449183362800,3.39136279296875,0.4040425729393959,1.7668261326491832,1.1435068947955966
1768421449193362700,3.40136279296875,0.49267136205025014,1.6235808602750301,1.260665832015872
1768421449203362800,3.41136279296875,0.5061982214909047,1.4304443065285681,1.313284784786403
1768421449213361700,3.421361572265625,0.4343652304887771,1.242910979616642,1.3442806654222308
1768421449223361800,3.43136181640625,0.2769452292244881,1.0662789859473705,1.3401719149291516
1768421449233361700,3.441361572265625,0.1818412527501583,0.921165581613779,1.2253780263397842
1768421449243361800,3.45136181640625,0.10712996636535972,0.8233604564219713,0.9849538709133863
1768421449253361700,3.461361572265625,0.07517875776607542,0.7227987259984016,0.639671310782805
1768421449263361800,3.47136181640625,0.05059497266225516,0.6034107145518064,0.2153016055370681
1768421449273361700,3.481361572265625,-0.13427877965159712,0.4396113144487142,-0.2398492964142002
1768421449283361800,3.49136181640625,-0.4863444971162826,0.3071785279899835,-0.4850033847056329
1768421449293361700,3.501361572265625,-0.861367823255062,0.19296119717955587,-0.5067588145157322
1768421449303361500,3.511361572265625,-1.1720972486596555,0.19812310998737812,-0.3049793739778921
1768421449313361700,3.521361572265625,-1.3588906439244746,0.25570494586229325,-0.013494290611613542
1768421449323361500,3.531361572265625,-1.4038988294303416,0.34456688614189623,0.39976233833692965
1768421449333361200,3.541361083984375,-1.186488177583739,0.39016836136579514,0.9866253112569451
1768421449343360300,3.5513603515625,-0.9968529830217361,0.4269616762340069,1.499761296121776
1768421449353360100,3.561360107421875,-1.0176678075134753,0.5082885448336601,1.8583894408419728
1768421449363360300,3.5713603515625,-1.2010872693657875,0.5575350985616445,1.9312660226128995
1768421449373360000,3.581360107421875,-1.4610276608407498,0.6509224073112011,1.6743423486106097
1768421449383360300,3.5913603515625,-1.6176535160526633,0.740586311623454,1.2882578955575823
1768421449393360100,3.601360107421875,-1.6874153268039225,0.886946501147747,0.8897788750294595
1768421449403360300,3.6113603515625,-1.7353075433135032,1.0169529372423887,0.589123501730524
1768421449413360000,3.621360107421875,-1.7096575537502765,1.159882567796111,0.4112552077319473
1768421449423360000,3.631360107421875,-1.6390461404323577,1.2120423786222934,0.25989249721262603
1768421449433360400,3.6413603515625,-1.5358593222022057,1.1862193705797195,0.22628756658956406
1768421449443360300,3.6513603515625,-1.42180624204278,1.050438442736864,0.25307419549990445
1768421449453360400,3.6613603515625,-1.3798282180130481,0.7429483645796775,0.2564543029248714
1768421449463359200,3.671359130859375,-1.2879378698229789,0.4593365901380777,0.2952364535227418
1768421449473359400,3.681359375,-1.2083773533087223,0.18175240542292595,0.23576149737760424
1768421449483359200,3.691359130859375,-1.1595078161995858,-0.11804185753464698,0.08532821319550275
1768421449493359400,3.701359375,-1.150607958972454,-0.2922749733686447,0.12017923488952219
1768421449503359200,3.711359130859375,-1.528389132452011,-0.6643699179053306,-0.11535057262405753
1768421449513359400,3.721359375,-2.114670433026552,-1.076449666827917,-0.3212266348257661
1768421449523359200,3.731359130859375,-2.610167300826311,-1.4361772972226141,-0.3071892685797065
1768421449533359400,3.741359375,-3.065240972822904,-1.751596999335289,-0.3384693729843944
1768421449543359200,3.751359130859375,-3.239726602113247,-1.741414043495059,-0.34757373980768025
1768421449553359400,3.761359375,-2.9434406395375725,-1.4020599235653877,-0.26619996332637963
1768421449563359200,3.771359130859375,-1.787238806080818,-1.062284947875142,0.045531259531900285
1768421449573359400,3.781359375,-0.31360878023318944,-1.2581272534489631,0.39201172421015795
1768421449583358200,3.791358154296875,1.8877356545746324,-2.5705373012274504,0.8521087042614817
1768421449593358300,3.8013583984375,4.32664505598545,-4.405622731110453,1.1490998194318265
1768421449603358200,3.811358154296875,4.79047369684577,-5.714983328190446,1.7214824315786361
1768421449613358300,3.8213583984375,4.911608844220638,-5.949523320949077,3.0102710730120537
1768421449623358200,3.831358154296875,5.556895291471481,-4.175054564592242,4.795496493443847
1768421449633358300,3.8413583984375,5.154364292138815,-1.5473615439474582,5.019678173795342
1768421449643358200,3.851358154296875,3.4972821442782878,0.19884557904303074,3.1257267134457827
1768421449653358300,3.8613583984375,1.6107529428839682,1.1960627192020417,1.1625066326893865
1768421449663358200,3.871358154296875,0.4941116239864379,1.4498533558756113,-0.799046610833332
1768421449673358000,3.881358154296875,0.3140378923654556,1.0880535953819752,-2.3710724212422964
1768421449683358200,3.891358154296875,0.19300671682171522,0.34852702194452284,-2.653506384076178
1768421449693358000,3.901358154296875,-0.4251870677769184,-0.5431511839002371,-1.8756458421997726
1768421449703357200,3.911357177734375,-1.1196388202130794,-1.256820262503624,-0.459902991849184
1768421449713357300,3.921357421875,-1.2767898683428764,-1.6571990522384643,1.0509153395336122
1768421449723357200,3.931357177734375,-0.7451379835784435,-1.6618179442107677,2.293166467002034
1768421449733357300,3.941357421875,0.319120858185552,-1.277799337646365,3.0478368335574864
1768421449743357200,3.951357177734375,1.0343617526829243,-0.7108131046503782,3.2601898366883395
1768421449753357000,3.961357177734375,1.3077052310883999,-0.11125497387349605,3.0182699628114698
1768421449763357200,3.971357177734375,1.402715757125616,0.40533787344694133,2.2946776022173463
1768421449773357000,3.981357177734375,1.4209832352221012,0.9750520701020955,1.52379391361624
1768421449783357200,3.991357177734375,1.381008952230215,1.5737433549165725,0.7784073621042072
1768421449793357000,4.001357177734375,1.212395429843664,2.0371751054137945,-0.0008042655875906348
1768421449803357200,4.011357177734375,0.9717302322030067,2.3510920017480847,-0.841507523009181
1768421449813357000,4.021357177734375,0.806363144391775,2.399897825971246,-1.5037515348017214
1768421449823357400,4.031357421875,0.73697571991086,2.1942045729905364,-2.1522629354484377
1768421449833356000,4.04135595703125,0.5760568802127615,1.8692063106715677,-2.6921055793225763
1768421449843356200,4.051356201171875,0.38842648613452907,1.4797861373245715,-2.892032816122472
1768421449853356000,4.06135595703125,0.25437925021648405,1.143216679677367,-2.7901448055312037
1768421449863356200,4.071356201171875,0.12395363886170088,0.91836630628407,-2.484301325537264
1768421449873356300,4.081356201171875,0.001840001843497157,0.7806535335958004,-1.896392423760891
1768421449883356400,4.0913564453125,-0.17296711448617277,0.7488356690526008,-1.2562602905333042
1768421449893356300,4.101356201171875,-0.31075989360809325,0.7556827584683895,-0.7443893571682274
1768421449903356400,4.1113564453125,-0.41903325785491613,0.7387976746410131,-0.4730931666813791
1768421449913356300,4.121356201171875,-0.5037351193130016,0.7438859376907349,-0.2619520966235548
1768421449923356400,4.1313564453125,-0.5752548796474933,0.7983411659777164,-0.015289777459949255
1768421449933356300,4.141356201171875,-0.6267161868155002,0.9390180491685867,0.2844047514501959
1768421449943356200,4.151356201171875,-0.6684522187829017,1.0901976216733456,0.5420758828189224
1768421449953355300,4.161355224609375,-0.6856161195516586,1.1853951947152614,0.6816290957421064
1768421449963355400,4.17135546875,-0.6832733558177948,1.2787626297205685,0.7336269209396094
1768421449973355300,4.181355224609375,-0.7372270643234252,1.3242881170988081,0.6718722563594579
1768421449983355400,4.19135546875,-0.9211690887451172,1.2666904991328716,0.39159481397233903
1768421449993355300,4.201355224609375,-1.0792238077163696,1.1958131283551454,-0.017670900442823767
1768421450003355400,4.21135546875,-1.2870190014123917,1.1308680702358485,-0.4500278598491102
1768421450013355300,4.221355224609375,-1.5486206040978432,1.0310831694036722,-0.6251170810557901
1768421450023355100,4.231355224609375,-1.6834090137720108,0.9239479058086871,-0.5436147097587585
1768421450033355300,4.241355224609375,-1.63960143622756,0.7999971164911985,-0.2755032137226313
1768421450043355100,4.251355224609375,-1.5120529146790505,0.631317543131113,0.005337415505200624
1768421450053355300,4.261355224609375,-1.4963175854086874,0.4469634307771921,0.2070482477862388
1768421450063355100,4.271355224609375,-1.417113700312376,0.3089835315853357,0.30686800073608755
1768421450073354200,4.281354248046875,-1.158364564448595,0.2525648942708969,0.17823036877661944
1768421450083354000,4.29135400390625,-0.6659820292770863,0.46390638227164743,-0.20193638466522096
1768421450093354200,4.301354248046875,-0.22375260475184766,0.800070766249299,-0.35966157942116256
1768421450103354000,4.31135400390625,-0.7447673967003822,0.5477244831651449,-0.0138872537182644
1768421450113354200,4.321354248046875,-2.324219192391634,-0.26027824512720105,0.6223902864404023
1768421450123354000,4.33135400390625,-3.418694345253706,-1.0295306792646646,1.4862332676373422
1768421450133354200,4.341354248046875,-3.5900165420770644,-1.7438620211690663,2.4274084948398174
1768421450143354000,4.35135400390625,-3.4233518156707285,-2.190391736704111,3.2827266626670957
1768421450153354200,4.361354248046875,-3.285318140465021,-2.07325238096714,3.689956925731897
1768421450163354000,4.37135400390625,-3.244282365721464,-1.4435516253829002,3.396761622647941
1768421450173354200,4.381354248046875,-2.71591432493329,-0.4180179067999124,2.609917125457525
1768421450183354000,4.39135400390625,-1.4812497801363467,0.07054711591005325,1.4589457400001584
1768421450193353200,4.401353271484375,0.4747089678475633,-0.9625994157642126,0.22092728166542946
1768421450203353000,4.41135302734375,2.3189608334720133,-3.0844898631721733,-1.4339064296811819
1768421450213353200,4.421353271484375,2.3606676393449306,-5.063541280919313,-3.2535575590670107
1768421450223353000,4.43135302734375,2.046411135792732,-5.348763413166999,-3.3964828057065604
1768421450233353200,4.441353271484375,2.0593828455686567,-4.716126019608974,-2.441887540438771
1768421450243353000,4.45135302734375,1.7027695478022098,-4.222374534171819,-2.235394661512971
1768421450253353200,4.461353271484375,1.345846453434229,-3.20038710989356,-1.9212351885944603
1768421450263353000,4.47135302734375,1.8393501015901565,-1.5743173554122447,-0.7870094784937799
1768421450273353200,4.481353271484375,2.2910358847141263,-1.0879647480547427,0.08287351351976394
1768421450283353300,4.491353271484375,2.032160492122173,-1.237843759354949,0.8023543471418321
1768421450293353200,4.501353271484375,1.842676031142473,-1.4615145675748586,1.238357115704566
1768421450303353300,4.511353271484375,1.9162147300839423,-1.6672282788217068,1.228111762152612
1768421450313352400,4.5213525390625,2.0670225466668604,-1.1847533896803855,0.9632835255708545
1768421450323352300,4.531352294921875,2.076115369182825,-0.17912030335366724,0.7369112033072859
1768421450333352400,4.5413525390625,2.048490864676237,0.7138052722036838,0.4056900844180956
1768421450343352300,4.551352294921875,2.0067045638263226,1.2461539070606231,-0.029795638000592588
1768421450353352200,4.561352294921875,1.8672060767650602,1.3864344844102858,-0.38550932004619387
1768421450363352300,4.571352294921875,1.5600386546909808,1.31570558219254,-0.5176643855420873
1768421450373352200,4.581352294921875,1.1059024827402084,1.257268006271124,-0.5389991787873208
1768421450383352300,4.591352294921875,0.796840040699765,1.1954764437466858,-0.5953732097750529
1768421450393352200,4.601352294921875,0.6802595609545707,1.1328799945801495,-0.7317552087835967
1768421450403352300,4.611352294921875,0.5926431637566536,1.0774930384010075,-0.8932302575923502
1768421450413352200,4.621352294921875,0.4517851518452167,0.9426876775920391,-1.002697544331476
1768421450423352300,4.631352294921875,0.42532852207422256,0.7792623714983463,-0.9256975259549916
1768421450433352400,4.6413525390625,0.4735445271780714,0.568739214143157,-0.6304086115926504
1768421450443351300,4.651351318359375,0.546250903481245,0.40598377013504505,-0.13915314422231168
1768421450453351200,4.66135107421875,0.6004103636920451,0.40223581577837464,0.4595371176788583
1768421450463351300,4.671351318359375,0.5885691192507744,0.5836994673877954,0.9862437645934522
1768421450473351200,4.68135107421875,0.5232908471217379,0.913515359121561,1.2704605191908775
1768421450483351600,4.6913515625,0.43024665272142737,1.341177877101302,1.3387303378187119
1768421450493351400,4.701351318359375,0.43407764571905133,1.6916770759016275,1.2868452522806821
1768421450503351600,4.7113515625,0.525478128032945,1.8693255531370638,1.2566693097256123
1768421450513351400,4.721351318359375,0.5827612366896122,1.9505396090120075,1.167184780568257
1768421450523351600,4.7313515625,0.5340717688551172,1.9556459922403095,0.9960377211160957
1768421450533351400,4.741351318359375,0.40340427503585813,1.9181424832761287,0.8211815049476922
1768421450543351300,4.751351318359375,0.25928101425077765,1.7515636815875768,0.615576587837562
1768421450553351400,4.761351318359375,0.10716386863496154,1.54191204636991,0.42349977227710184
1768421450563350500,4.7713505859375,-0.020390534665063024,1.2777946614712477,0.30874142992515113
1768421450573350400,4.781350341796875,-0.19051088141798972,1.087527525681257,0.35079555139839647
1768421450583350500,4.7913505859375,-0.35676530999038364,0.9690133744597434,0.3519548775013536
1768421450593350400,4.801350341796875,-0.47877252749204635,0.856358470660448,0.2907762592434883
1768421450603350500,4.8113505859375,-0.5195581633994355,0.7547592138826846,0.14631183860423042
1768421450613350400,4.821350341796875,-0.5501274891862645,0.6825403653681278,-0.06279045563498512
1768421450623350300,4.831350341796875,-0.542077490254119,0.6649830813676119,-0.23943304376350713
1768421450633350400,4.841350341796875,-0.589441298975423,0.6588947013646363,-0.35807493128422646
1768421450643350300,4.851350341796875,-0.7842693860054015,0.6118307523727416,-0.38648134341612456
1768421450653350400,4.861350341796875,-0.9882803119223564,0.5944610998988151,-0.26447001599492503
1768421450663350300,4.871350341796875,-1.1820868008196352,0.5574421595811844,-0.08339817671468482
1768421450673350400,4.881350341796875,-1.2760381731927395,0.4559826035350561,0.08384805764034389
1768421450683349200,4.891349365234375,-1.390065534389019,0.43151919340789313,0.29176099596451965
1768421450693349400,4.901349365234375,-1.5133669198870658,0.4538765711665153,0.5410503026308492
1768421450703349200,4.911349365234375,-1.4263351176440715,0.4079202911555767,0.8088006006717682
1768421450713349400,4.921349365234375,-1.1922960601449013,0.3529682192623615,1.1568486069276929
1768421450723349200,4.931349365234375,-0.9959259313046932,0.2904214544564485,1.5509376488685607
1768421450733349400,4.941349365234375,-0.8832441394984721,0.31583179004490375,2.0215863450072704
1768421450743349200,4.951349365234375,-0.7143569878023117,0.46077392946481704,2.390773731534183
1768421450753349400,4.961349365234375,-0.4758370585620403,0.5804904422134161,2.709267726525664
1768421450763349200,4.971349365234375,-0.46461190019249915,0.43396132586300373,2.9044118207022547
1768421450773349400,4.981349365234375,-0.8669733881771564,-0.12651041067242622,2.853565722823143
1768421450783349200,4.991349365234375,-1.3664461738705633,-0.8394728023111819,2.5827616997674108
1768421450793349400,5.001349365234375,-1.9524492420256137,-1.3188847967505455,1.9930380036540327
1768421450803348200,5.01134814453125,-2.5181319912075995,-1.7422405574470758,0.9917256300706416
1768421450813348400,5.021348388671875,-2.521896312177181,-1.9427035085588693,-0.11497607675585896
1768421450823348200,5.03134814453125,-1.5318214449882506,-1.9367320329338311,-1.2020605713773518
1768421450833348400,5.041348388671875,0.45640287477374075,-2.396206570237875,-1.984730047905445
1768421450843348200,5.05134814453125,2.385518002963066,-3.5066578753888606,-2.3100229092568156
1768421450853348400,5.061348388671875,3.138846307259798,-4.246475540727377,-1.9532238796599208
1768421450863348200,5.07134814453125,1.8589385991573333,-4.502091054740548,-1.0556240286812186
1768421450873348400,5.081348388671875,0.233414788120985,-4.861378540152311,-0.26982250120509416
1768421450883348500,5.091348388671875,0.7432967396259308,-4.79951800404489,0.3283805982336402
1768421450893348400,5.101348388671875,2.295210540050268,-3.0149171452522276,1.3883072925448416
1768421450903348500,5.111348388671875,3.2014591230392453,-0.9235001620411872,0.9488259611513465
1768421450913348400,5.121348388671875,3.21471081880033,0.673500149822235,-0.7691892327081412
1768421450923347200,5.13134716796875,2.719783275321126,1.8165777132898568,-2.4762162187591192
1768421450933347600,5.14134765625,2.5369933435440064,1.923164110830426,-4.247140434376895
1768421450943347500,5.151347412109375,2.503928693810105,1.0506541313141584,-5.716862566065788
1768421450953347300,5.161347412109375,2.1348843690156936,-0.19373042798638343,-6.334405266344547
1768421450963347500,5.171347412109375,1.4133078782886266,-1.0558932010114193,-6.005610534352064
1768421450973347300,5.181347412109375,0.19105276974234728,-1.3508043681025503,-4.754985327096283
1768421450983347500,5.191347412109375,-0.8285948499441146,-1.4320020573645829,-2.678189574433863
1768421450993347300,5.201347412109375,-1.0221148500502109,-1.548907604345679,-0.5199811015192419
1768421451003347500,5.211347412109375,-0.1908002562860027,-1.5496891101121901,1.506180807775259
1768421451013347300,5.221347412109375,1.1111451326340436,-1.3219295712739227,2.974846416148543
1768421451023347500,5.231347412109375,2.0792641886025667,-0.8907330339491367,3.386242858982086
1768421451033347300,5.241347412109375,2.4205548295527697,-0.5383212795257568,2.849838811254501
1768421451043346400,5.251346435546875,2.2988374983757733,-0.2539209850549698,1.4748722079284489
1768421451053346300,5.26134619140625,1.9982231512069701,0.26250118187367916,-0.06457090931097045
1768421451063346400,5.271346435546875,1.5409861636966466,0.9079051180243491,-1.3343915779620408
1768421451073346300,5.28134619140625,1.0457879865825175,1.5032850863337517,-2.282783604675531
1768421451083346400,5.291346435546875,0.6200573134481907,2.017757288238406,-2.9974001932621
1768421451093346300,5.30134619140625,0.28968844574047253,2.416353870731592,-3.564833585503697
1768421451103346400,5.311346435546875,0.1175724681909196,2.674860430011153,-3.883119198441505
1768421451113346300,5.32134619140625,-0.017600538620352744,2.7494594516605138,-3.873611949905753
1768421451123346400,5.331346435546875,0.06305122546302154,2.7457798863649368,-3.5469457543745633
1768421451133346300,5.34134619140625,0.1967325506781228,2.6284622514516114,-2.9141210215508937
1768421451143346400,5.351346435546875,0.3311696444302797,2.3015005801051855,-2.185667923052609
1768421451153346300,5.36134619140625,0.4907639940589666,1.921937199383974,-1.6642878414556384
1768421451163345400,5.371345458984375,0.45800095762014387,1.5401456212192772,-1.3005626658573746
1768421451173345300,5.38134521484375,0.4026560870170593,1.1869219658911228,-0.9760111243925989
1768421451183345400,5.391345458984375,0.2906067478954792,0.8869751427203416,-0.7817905748017132
1768421451193345300,5.40134521484375,0.11173019016981124,0.6792647046983241,-0.6736733144320547
1768421451203345400,5.411345458984375,-0.17743395770192144,0.5925736787170172,-0.7026354242179542
1768421451213345300,5.42134521484375,-0.5651683699190616,0.5579471864938735,-0.7401377641383559
1768421451223345200,5.43134521484375,-0.8158055109977722,0.5675853679329157,-0.8315998039137572
1768421451233345300,5.44134521484375,-0.8750000427663326,0.644208588886261,-0.9094275783512741
1768421451243345200,5.45134521484375,-0.8660346460223197,0.7077373504668474,-0.8776881128065288
1768421451253345300,5.46134521484375,-0.7739677722215652,0.7512772169858217,-0.7338079765949398
1768421451263345200,5.47134521484375,-0.7007879697203636,0.7461258255720138,-0.4965370610350743
1768421451273345500,5.481345458984375,-0.7616098104298115,0.703420656311512,-0.3355109615702182
1768421451283344400,5.491344482421875,-0.9560264671146869,0.5469102441728114,-0.3973130089560523
1768421451293344300,5.50134423828125,-1.241855333083868,0.3482867834478616,-0.540226784353517
1768421451303344000,5.51134423828125,-1.508170520287752,0.17949030570983884,-0.6880584712024778
1768421451313344300,5.52134423828125,-1.66423786483407,0.09584931494891644,-0.7348968678101897
1768421451323344400,5.531344482421875,-1.8074597563326358,0.11228197883367538,-0.6690542032640427
1768421451333344000,5.541343994140625,-1.9315151750683783,0.21601474050879477,-0.48784379576332865
1768421451343343900,5.55134375,-2.0536498548746107,0.23995792615413664,-0.1927911013096571
1768421451353344000,5.561343994140625,-2.5135902561247345,0.09330255307555198,0.2881121180681512
1768421451363344000,5.57134375,-2.733810047107935,-0.04043897789418697,0.8794499348472803
1768421451373344000,5.581343994140625,-2.229834104776382,-0.1751005463182926,1.0660811983529477
1768421451383344000,5.59134423828125,-1.8018576985418795,-0.19873159727454184,0.6456012853536754
1768421451393344300,5.60134423828125,-1.850990270501375,-0.08048691064417361,-0.21374781849011779
1768421451403342800,5.6113427734375,-2.3266028726577757,0.12752046449780463,-1.2560878565758467
1768421451413343000,5.621343017578125,-2.9063913040816782,0.34044483777582646,-2.013531194975972
1768421451423342800,5.6313427734375,-3.3760826994955537,0.49060558862686154,-2.351576132003218
1768421451433343200,5.64134326171875,-3.501785300916433,0.5230839629054069,-2.1773716577418147
1768421451443343000,5.651343017578125,-2.9805729771018026,0.38458851540684696,-1.8715015820018945
1768421451453343200,5.66134326171875,-1.8317443027615545,-0.1294353582084179,-1.860095367977023
1768421451463343000,5.671343017578125,-0.2994645926117897,-1.1270049650669096,-2.3004876036703585
1768421451473343200,5.68134326171875,0.8901566953659057,-2.5744401538848876,-3.0104969907224177
1768421451483343000,5.691343017578125,1.6007470971763134,-3.664844696307182,-3.520146594776213
1768421451493343200,5.70134326171875,1.4097031317949293,-4.301187374123931,-3.375933354152739
1768421451503343000,5.711343017578125,0.5826455013554543,-4.391015529087186,-2.7582757953226564
1768421451513343000,5.721343017578125,0.011257891595363617,-3.519383501449227,-2.4044059510454536
1768421451523342000,5.731342041015625,-0.46298466431684787,-2.0005320126712323,-2.4248544264428316
1768421451533342200,5.74134228515625,-0.8045792566496879,-0.5249392353832721,-2.4140590377926827
1768421451543342000,5.751342041015625,0.04787468085289001,0.20053075565099715,-2.6765923683702946
1768421451553342200,5.76134228515625,1.0237690469980238,0.20618132875859735,-3.0205390767872333
1768421451563342000,5.771342041015625,0.9620154783964157,-0.07577098803818226,-3.041093204516172
1768421451573342200,5.78134228515625,1.0556722517371178,-0.45607028181850906,-2.8416245251387355
1768421451583342000,5.791342041015625,1.8309937766551971,-0.8510504273802042,-2.4454108922593294
1768421451593342000,5.801342041015625,2.676249838542938,-1.1932558450877666,-1.8081738959513605
1768421451603342000,5.811342041015625,3.236854261547327,-1.3512953664898872,-1.1376355185441671
1768421451613342000,5.821342041015625,3.4054046555697917,-1.2806962281316518,-0.49307979672066865
1768421451623342000,5.831342041015625,3.1000550965726372,-1.001541433098912,0.08785148459542542
1768421451633342000,5.841342041015625,2.412017887353897,-0.550053802895546,0.4443780173938721
1768421451643341000,5.851341064453125,1.835832594988495,-0.07757482258975505,0.31820494891703127
1768421451653341000,5.8613408203125,1.5171875010885298,0.3093050186246633,-0.13756667874846606
1768421451663341000,5.871341064453125,1.28614090340361,0.4847638768613338,-0.7027030095614493
1768421451673341000,5.8813408203125,1.0805389819681643,0.376479443231225,-1.3282339321151375
1768421451683341000,5.891341064453125,1.0221708910863847,0.0032131168276071545,-1.9116651039555668
1768421451693341000,5.9013408203125,0.9858311652045696,-0.4413216254979372,-2.260191249117255
1768421451703341000,5.911341064453125,0.8718424555182457,-0.7209399463891982,-2.328340363974869
1768421451713341000,5.9213408203125,0.802002538029477,-0.8188292427331209,-2.165620137410611
1768421451723341000,5.931341064453125,0.7619511712133884,-0.6876683759063482,-1.8345368560895323
1768421451733341000,5.9413408203125,0.775815957371518,-0.38320436757206916,-1.3681781122297048
1768421451743341000,5.951341064453125,0.8587667008459567,0.11828911029398441,-0.8186363505095243
1768421451753341000,5.9613408203125,0.8201273197196424,0.6071919866561889,-0.34970581993293015
1768421451763340000,5.971340087890625,0.7543360200345516,1.153373916554451,0.00394150416739285
1768421451773340000,5.98133984375,0.7389630212705582,1.5890999140024185,0.20826379758846014
1768421451783340000,5.991340087890625,0.7082941806320101,1.9225088617920874,0.2877683095991611
1768421451793340000,6.00133984375,0.6781716487646102,2.1545757424354552,0.18836990560023112
1768421451803340000,6.011340087890625,0.7361818661194294,2.1813579508990046,-0.008086202756687998
1768421451813340000,6.02133984375,0.7401250507872551,2.057006179565191,-0.09182066222103312
1768421451823340300,6.03134033203125,0.6848560949645937,1.8203659996569155,-0.09854841783978044
1768421451833340200,6.041340087890625,0.5756592226646841,1.5384008233785629,0.062215669688023625
1768421451843340000,6.051340087890625,0.4372713271938264,1.1917074466019868,0.38154125666543837
1768421451853340200,6.061340087890625,0.258144740229845,0.900711991649866,0.8564015791498124
1768421451863340000,6.071340087890625,0.17933716097474098,0.720423813560605,1.4115842693664133
1768421451873340200,6.081340087890625,0.09627207040563225,0.6749468414992094,1.8445158137902615
1768421451883340000,6.091340087890625,0.030313305199146268,0.7810597763091325,2.1252875425003466
1768421451893339100,6.101339111328125,-0.1367804602742195,0.9403104270666837,2.3264628796651956
1768421451903339300,6.11133935546875,-0.3418843690596521,1.0052759434521197,2.3406992025494575
1768421451913339100,6.121339111328125,-0.46703079790249463,1.0711088903218506,2.291305057044327
1768421451923339000,6.131339111328125,-0.7162417055703699,1.036838956451416,2.105607274996489
1768421451933339100,6.141339111328125,-1.025015393797308,1.0226660541921853,1.7907680031202733
1768421451943339000,6.151339111328125,-1.2361340328276156,0.9817524445235729,1.3755315437324345
1768421451953339100,6.161339111328125,-1.5125859986424446,0.8711784386515616,1.0098819759428501
1768421451963339000,6.171339111328125,-1.7540300717011093,0.7562316245228051,0.7400074888221919
1768421451973339100,6.181339111328125,-1.9546084658861158,0.6039513972997665,0.5443491615131497
1768421451983339000,6.191339111328125,-2.0885386512957513,0.47198272122144697,0.5232981901779771
1768421451993339100,6.201339111328125,-2.224368825107813,0.3577209667474031,0.5381207154523581
1768421452003339000,6.211339111328125,-2.1696659056700764,0.2430447862535715,0.4846065308751538
1768421452013338000,6.221338134765625,-2.0012522897697984,0.17539572987258434,0.384175404561311
1768421452023338000,6.231337890625,-1.8813083980061114,0.09974456882178782,0.16843201007349415
1768421452033338000,6.241338134765625,-1.6745887245871125,0.003305471286177635,0.047459852974303066
1768421452043338000,6.251337890625,-1.207335808366537,-0.026440263158082962,0.14396899267197585
1768421452053338000,6.261338134765625,-0.4241699996888637,0.1448842717528343,0.49869405640587205
1768421452063338000,6.271337890625,0.061996875838190316,0.3037415392786264,1.06784667365551
1768421452073338000,6.281338134765625,-0.11748992274031042,0.03210311122536659,1.2649562226861715
1768421452083338000,6.291337890625,-1.315975192914158,-0.6919102512598038,0.8884989912867546
1768421452093338000,6.301338134765625,-2.69362767432332,-1.6425532717704772,0.18607107233963904
1768421452103338000,6.311337890625,-3.412073173548281,-2.3726707963496447,-0.5531421608323231
1768421452113338000,6.321338134765625,-3.3459517651259896,-2.767189754140377,-1.327281745956838
1768421452123338000,6.331337890625,-2.61925194003582,-2.897521768927574,-2.0798764752820134
1768421452133337000,6.341337158203125,-1.309635322368145,-2.8693273555785415,-2.473531217458844
1768421452143337000,6.3513369140625,0.2377075899440795,-3.4566210480660198,-2.200199721752107
1768421452153337000,6.361337158203125,1.3501730844616888,-4.375450295686721,-1.1312936752367764
1768421452163337000,6.3713369140625,1.4661843129515646,-5.175879373854398,0.39304665674846617
1768421452173337000,6.381337158203125,1.5859890885055064,-5.19930058145225,2.4258760245755315
1768421452183337000,6.3913369140625,2.899147908824682,-4.3946249517560005,4.065534159426391
1768421452193337000,6.401337158203125,4.209297610455751,-3.358039677804708,3.861147897391021
1768421452203337000,6.4113369140625,4.748209257090092,-1.8450602959305047,2.52958219050467
1768421452213336800,6.4213369140625,4.158563448518515,-0.07656593780815601,0.6392998471219092
1768421452223337200,6.431337158203125,2.7962252944886683,1.3509031523019075,-1.5914260188624263
1768421452233337000,6.441337158203125,1.7516624657869337,2.2328139973700045,-3.457177805165946
1768421452243337200,6.451337158203125,0.9604548049509525,2.2610914128273722,-4.32828814701736
1768421452253336000,6.461336181640625,0.22049455280397087,1.576718571335077,-3.9112764946505427
1768421452263336000,6.4713359375,-0.6143477036297321,0.5655529853224754,-2.434458851742744
1768421452273336000,6.481336181640625,-1.3527227689445018,-0.3190057439059019,-0.6080242362292483
1768421452283336200,6.491336181640625,-1.4284616082787513,-0.8467565295785665,1.15160398427248
1768421452293336000,6.501336181640625,-0.5433820700466633,-1.1984803017377852,2.6321082067385313
1768421452303336200,6.511336181640625,0.5787947442114353,-1.4162749114006756,3.576557048784196
1768421452313336000,6.521336181640625,1.4946528670668602,-1.5422633440256117,3.781860425664484
1768421452323336200,6.531336181640625,2.1006021601855753,-1.426289524936676,3.4571637766405936
1768421452333336000,6.541336181640625,2.27239781973958,-1.0588549734264612,2.597503634086251
1768421452343336200,6.551336181640625,2.078123786395788,-0.4635281966090202,1.5290854441531
1768421452353336000,6.561336181640625,1.7300901009261607,0.4452858529537916,0.6158082777015864
1768421452363336200,6.571336181640625,1.2270084770858287,1.471125861006975,-0.24369386127945034
1768421452373336000,6.581336181640625,0.7350818689882754,2.425203532141447,-1.051040427218005
1768421452383335200,6.591335205078125,0.32785248270630835,3.2012428499400616,-1.8758951407857238
1768421452393335000,6.6013349609375,0.07947334968745708,3.709806120061874,-2.220799296057969
1768421452403335200,6.611335205078125,-0.19082593871653078,3.834823661828041,-2.27357270873785
1768421452413335000,6.6213349609375,-0.292253930580616,3.591337561547756,-2.201084103371203
1768421452423335200,6.631335205078125,-0.32165362806618214,3.221507054811716,-1.8895188847295938
1768421452433335000,6.6413349609375,-0.2827420058697462,2.6734371192097663,-1.5651954529322682
1768421452443335200,6.651335205078125,-0.15424597433805465,2.119223274025321,-1.0881268067486582
1768421452453335000,6.6613349609375,-0.06500584839582443,1.636050465747714,-0.5725853681772947
1768421452463335000,6.6713349609375,-0.021406360644102094,1.1532967596650123,-0.2621644607326016
1768421452473335000,6.6813349609375,-0.0036252047598361965,0.9014280309647321,-0.0747546140698716
1768421452483335000,6.6913349609375,-0.07030395937052089,0.835118114233017,0.001296177290380001
1768421452493335000,6.7013349609375,-0.08915127861499786,0.9027496349573135,0.005473864833824336
1768421452503334100,6.711334228515625,-0.2244786174714565,0.9891495690375566,0.020176416990347206
1768421452513334000,6.721333984375,-0.5055553204774856,1.0241945789337157,0.08730192442126572
1768421452523334100,6.731334228515625,-0.8372866904437541,0.9977385336846113,0.17475070996731518
1768421452533334000,6.741333984375,-1.1048831496298313,0.91935473279953,0.20604805776774882
1768421452543334000,6.751333984375,-1.2688836252629756,0.7827391076982021,0.13046134025529027
1768421452553334000,6.761333984375,-1.4488228437840938,0.7127630696743726,-0.02542147803697735
1768421452563334000,6.771333984375,-1.7353870382905006,0.7072305699884891,0.060081580268777905
1768421452573334000,6.781333984375,-2.024989577579498,0.6959428677767515,0.22166169688720255
1768421452583334000,6.791333984375,-2.1720178756237027,0.7908966951906681,0.3745395612098276
1768421452593334000,6.801333984375,-2.093038446933031,0.9019967707633971,0.4491512231450528
1768421452603334000,6.811333984375,-1.8082944535911083,0.9107669371962547,0.357189965143241
1768421452613334300,6.821334228515625,-1.3658347639739512,0.818362794265151,0.23135471378602085
1768421452623332900,6.831332763671875,-0.6862006414413452,0.7668529717803001,0.019714790827967225
1768421452633333000,6.8413330078125,0.47190907146334643,1.0776251403480768,-0.4107947871459648
1768421452643332900,6.851332763671875,1.2054606621444224,1.2870827142983674,-0.8599863057687878
1768421452653333000,6.8613330078125,-0.601747749775648,0.4235696957081556,-0.8173034214053303
1768421452663333000,6.8713330078125,-3.0590789430618286,-0.978518284907937,-0.0707573611272499
1768421452673333200,6.881333251953125,-3.3059961868345735,-2.138935690233111,0.910235387602821
1768421452683333000,6.8913330078125,-2.6257892328500745,-3.1510370957911014,1.8353572325617074
1768421452693333200,6.901333251953125,-2.378331890851259,-3.7932436972051855,2.757081032580137
1768421452703333000,6.9113330078125,-2.564116328269243,-3.6847698784828182,3.090557492648065
1768421452713333200,6.921333251953125,-2.7011224139928816,-2.521343938991427,2.2557862921565768
1768421452723333000,6.9313330078125,-2.9375661945462226,-0.8032809604674577,0.9224455384217202
1768421452733333000,6.9413330078125,-3.337594271147251,0.4441483733564615,0.019109335748106242
1768421452743333000,6.9513330078125,-3.2137118708908554,1.126515720245242,-0.6079294706178828
1768421452753332200,6.961332275390625,-1.9955308433830736,1.3824065440684556,-1.118734857110679
1768421452763332000,6.97133203125,-0.487038836055994,0.7222726562976837,-1.5682754448994993
1768421452773332200,6.981332275390625,1.1942051086366177,-1.2728221337556838,-1.7573200531572102
1768421452783332000,6.99133203125,2.8484827204704284,-3.5797079140305517,-1.6255647275686262
1768421452793332200,7.001332275390625,3.144732442688942,-4.822583237811923,-1.087177397069335
1768421452803332000,7.01133203125,2.610023508441448,-4.94470798074603,-0.0916256693718955
1768421452813332000,7.02133203125,1.7332827594876288,-4.223478696021437,0.5263716793391853
1768421452823332000,7.03133203125,0.6415501833319663,-3.3361978483527897,0.14860442478712646
1768421452833332000,7.04133203125,0.7539666022002697,-1.3291332190424203,0.051469709670171136
1768421452843332000,7.05133203125,1.8602187020957468,0.28860476042330263,0.19121607054527848
1768421452853332000,7.06133203125,2.033225491005182,0.26098259400427337,0.18135661103837192
1768421452863332000,7.07133203125,2.2184826896786687,-0.1609714832007885,0.6262419203672558
1768421452873331000,7.0813310546875,2.9342519554316997,-0.6095692371815443,1.3535826006442309
1768421452883331000,7.0913310546875,3.0771102743148804,-1.3076473634213208,1.500254048074782
1768421452893331000,7.1013310546875,3.1630162873983383,-1.5950860026746987,1.452096604757756
1768421452903331000,7.1113310546875,2.9787773258566856,-1.4085072000086307,1.3910897628702223
1768421452913331000,7.1213310546875,2.6195395248055457,-0.8918108923137188,1.2213242939695714
1768421452923331000,7.1313310546875,2.274578086388111,-0.4664741869330406,0.9663790804333984
1768421452933331000,7.1413310546875,1.7427765640199184,-0.3396703462719917,0.6078192517090588
1768421452943331000,7.1513310546875,0.9579787702262401,-0.2741518721789121,0.20827932395115495
1768421452953331000,7.1613310546875,0.31336916279103605,-0.0975888520926237,-0.10109481438696384
1768421452963331000,7.1713310546875,-0.03567457650396973,0.15747487325668333,-0.6262518572393805
1768421452973331000,7.1813310546875,-0.1985983262836933,0.3772685477823019,-1.2593684856817124
1768421452983331000,7.1913310546875,-0.2050373828878626,0.7354571320414542,-1.590440368825942
1768421452993331000,7.2013310546875,-0.19389993933439253,1.0715174711227415,-1.6495917921051382
1768421453003330000,7.211330078125,-0.2774807243406772,1.2300450683027506,-1.5563824702709912
1768421453013330000,7.221329833984375,-0.3336322716841474,1.5196785872519016,-1.1647831993192435
1768421453023330000,7.231330078125,-0.14655143778007476,1.7381015579462051,-0.7175979424849153
1768421453033330000,7.241329833984375,-0.06517426376529037,1.7627561067312956,-0.23264026008453217
1768421453043330000,7.251330078125,-0.050233811199665065,1.7382798371225594,0.29510526489112526
1768421453053330000,7.261329833984375,0.030828780440613626,1.8121844467669725,0.8696901728551835
1768421453063330000,7.271330078125,0.09081468178257346,1.9034674767136572,1.3193940614469348
1768421453073330200,7.281330078125,0.08853636158704757,2.079990164789557,1.7191136566206813
1768421453083330000,7.291330078125,0.08345226325578987,2.325035769471526,2.0455958738870916
1768421453093330200,7.301330078125,0.048204351198673244,2.4509733486920595,2.142869230289757
1768421453103330000,7.311330078125,-0.09358882267102599,2.4182138193845746,1.9711162408336995
1768421453113330200,7.321330078125,-0.37566505810841916,2.2751807284563776,1.717408460137993
1768421453123330000,7.331330078125,-0.5867487719558179,2.003414290109277,1.4152302246533333
1768421453133329200,7.3413291015625,-0.5388694149278104,1.552141763961315,0.9930142816416918
1768421453143329000,7.3513291015625,-0.3787177236773073,1.0371394007027148,0.623853417795524
1768421453153329200,7.3613291015625,-0.2437036154884845,0.5095066884517669,0.2750131651833653
1768421453163329000,7.3713291015625,-0.38782230969630177,0.31673429184257984,-0.14388386253863572
1768421453173329200,7.3813291015625,-0.7710464779473841,0.49355508608222004,-0.420335974483937
1768421453183329000,7.3913291015625,-1.2443679004266857,0.8208055112421512,-0.49775275696776805
1768421453193329200,7.4013291015625,-1.6972915547825396,1.1243582499504088,-0.41742264432050286
1768421453203329000,7.4113291015625,-1.8925323873318731,1.2588392011106013,-0.2701281696207821
1768421453213329200,7.4213291015625,-1.7260615760624407,1.1559072344243526,0.007602364762499928
1768421453223329000,7.4313291015625,-1.3321043438076972,0.9679717564523219,0.4058302600737661
1768421453233329200,7.4413291015625,-0.9220027630902826,0.6592933452934027,0.6432883322361856
1768421453243329000,7.4513291015625,-0.5273861170787364,0.3158113317787647,0.9050291241966187
1768421453253328100,7.461328125,-0.18987163366638124,-0.09077157329320908,1.217634864867106
1768421453263328000,7.471327880859375,-0.10925766257643699,-0.8485714700460434,1.460116975736618
1768421453273328000,7.481328125,-0.0672854837656021,-1.9286814129471779,1.4746283161699771
1768421453283328000,7.491327880859375,-0.45690804781690236,-2.8768904843091962,0.9862905994098633
1768421453293328100,7.501328125,-1.0526504196979105,-3.2866432515889406,-0.21291575158014892
1768421453303328000,7.511327880859375,-1.3480068463385104,-3.0019588794797656,-1.6192720571652053
1768421453313328000,7.521328125,-1.03381478632465,-2.1543945406496525,-2.72790696054399
1768421453323328000,7.531327880859375,-0.45794279769212004,-0.9104290835440159,-2.968262946105003
1768421453333328100,7.541328125,0.029307927548885344,0.05166939696073532,-2.2589212291814387
1768421453343328300,7.551328369140625,0.41373613782748575,0.348248789525032,-0.7540002852741629
1768421453353328000,7.561328125,1.086225357041508,0.1687263351112604,1.0816658671062438
1768421453363328300,7.571328369140625,1.9795548372246323,-0.15578735856115816,2.2403075679957865
1768421453373328100,7.581328125,2.6716893987596033,-0.5058323838531971,2.441912528749555
1768421453383327200,7.5913271484375,2.8212849169433114,-0.776838359221816,1.8640712858706712
1768421453393327400,7.601327392578125,2.2554140978433193,-0.8220417750388384,0.4293687373757362
1768421453403327200,7.6113271484375,2.5262466163411736,-0.3296235840320587,-0.39880920233055944
1768421453413327000,7.6213271484375,1.84096572009325,0.458610613951087,-1.4808938063055277
1768421453423327200,7.6313271484375,1.295072397878021,1.3181857085704802,-2.149150502516329
1768421453433327000,7.6413271484375,0.6386746278956532,2.110766995847225,-2.2190058367699383
1768421453443327200,7.6513271484375,0.12189502583146095,2.4989257709562778,-2.068470115126669
1768421453453327000,7.6613271484375,-0.1803621201083064,2.657663211494684,-1.6152214666001499
1768421453463327200,7.6713271484375,-0.285796278873831,2.6173931604266163,-0.9497111464880407
1768421453473327000,7.6813271484375,-0.24158523509502408,2.448876084151864,-0.325415976274386
1768421453483327200,7.6913271484375,-0.09505874909311532,2.0840712966233492,0.15866707871593533
1768421453493327000,7.7013271484375,0.04232990620732307,1.6915075645536184,0.4889772567726671
1768421453503327200,7.7113271484375,0.15340630864351987,1.4074042072027921,0.6497182922184467
1768421453513326000,7.721326171875,0.18466332443356512,1.1872259172737598,0.7173578501187264
1768421453523326200,7.731326171875,0.16198475189656017,1.0331932934254406,0.6877560541898011
1768421453533326000,7.741326171875,0.2489417353376746,0.9843132349222898,0.5444350862309336
1768421453543326200,7.751326171875,0.35867110707908867,1.03392219222188,0.30043329151347276
1768421453553326000,7.761326171875,0.37031887477487324,1.1357377220988274,0.12214037889465688
1768421453563326200,7.771326171875,0.19051643437594173,1.2234855636566877,0.11259674387127161
1768421453573326000,7.781326171875,-0.10554448727220296,1.237781800034642,0.16451207841709256
1768421453583326500,7.791326416015625,-0.3954664677739143,1.237289632603526,0.22604776648432015
1768421453593326300,7.801326416015625,-0.8199620461553335,1.2783037800371646,0.18450433447957038
1768421453603326200,7.811326171875,-0.8326450021177529,1.22461895160079,0.3122333271615207
1768421453613326300,7.821326416015625,-0.7395256966546178,1.3275368897616862,0.7405265442602336
1768421453623326200,7.831326171875,-0.9756266551196574,1.1794365785717964,0.3073261197671294
1768421453633325300,7.8413251953125,-0.8934007918536663,1.1601835965692997,0.3258870278522372
1768421453643325400,7.851325439453125,-1.0003840797573327,1.040136244431138,0.25936405289173126
1768421453653325300,7.8613251953125,-1.1926122864872217,0.872018981128931,0.4447742501698434
1768421453663325200,7.8713251953125,-1.2057377255201338,0.6614034693151712,0.7471462546609342
1768421453673325300,7.8813251953125,-1.1019149474740029,0.4813227964967489,1.073718634428829
1768421453683325200,7.8913251953125,-1.3893541712492703,0.4684896184086799,1.3242233812995254
1768421453693325300,7.9013251953125,-1.9873995593756437,0.8477028705179691,1.450119459465891
1768421453703325200,7.9113251953125,-2.6782354594022033,1.4942641600102184,1.5618496496357024
1768421453713325300,7.9213251953125,-3.4034587821990248,1.7012164731413124,1.9300392572969196
1768421453723325200,7.9313251953125,-4.120405275037885,1.620109969294071,2.693518368729949
1768421453733325300,7.9413251953125,-5.2877264684021466,1.092083873811364,2.428505642426759
1768421453743325200,7.9513251953125,-5.327088172453641,0.6975169852256774,2.4359683795228597
1768421453753325300,7.9613251953125,-5.0018373966783285,0.7424602888017893,2.4614228465139862
1768421453763324200,7.97132421875,-4.8027375506132834,0.865172476235032,1.8010380527220666
1768421453773324300,7.98132421875,-4.651199666190147,1.375412155136466,1.1401055619195104
1768421453783324200,7.99132421875,-4.900743166813254,1.8552005816727875,0.35203020775988697
1768421453793324300,8.00132421875,-5.004525028327107,2.1312503964275122,-0.2593012167885899
1768421453803324200,8.01132421875,-5.029176654502749,2.369907761377096,-0.6878228358156979
1768421453813324300,8.02132421875,-4.337563924884796,2.7404069611549375,-0.3012668197281658
1768421453823324200,8.03132421875,-3.7554514344274996,2.970716184476018,-0.20716332553327083
1768421453833324300,8.04132421875,-2.875658896687627,2.783451737633347,-0.20298150980398058
1768421453843324200,8.05132421875,-2.514186468452215,2.2937106568813324,-0.05386076952517032
1768421453853324300,8.06132421875,-2.8052941516071557,1.333934481844306,-0.024158435831218957
1768421453863324200,8.07132421875,-3.0602684451073405,-0.04217851503789424,0.40451764310523863
1768421453873324000,8.081323974609376,-3.4123014293462037,-1.5308108066409825,1.1514841572850942
1768421453883324200,8.09132421875,-4.121251078212261,-2.6647873642861843,1.7252552281156182
1768421453893324000,8.101323974609375,-5.207250663673878,-3.263040549944341,2.4572508215263484
1768421453903323100,8.1113232421875,-5.901746839773654,-3.300224909956753,3.1532728920191526
1768421453913323300,8.1213232421875,-5.292489737281203,-3.111741734974086,3.4068095539316534
1768421453923323100,8.1313232421875,-4.519982100740075,-2.52626210617125,4.414426215291023
1768421453933323300,8.1413232421875,-4.1789182542830705,-1.7386133068606255,5.534500504311919
1768421453943323100,8.1513232421875,-4.181135930332541,-1.5143109227389095,6.276861424392461
1768421453953323000,8.161322998046876,-5.777332524597645,-1.6941478499293325,6.796235426864028
1768421453963323100,8.1713232421875,-8.06096368601322,-1.9570877154812216,7.067425526627898
1768421453973323300,8.1813232421875,-10.526816039407253,-1.8613927143111824,6.493031647723913
1768421453983323400,8.191323486328125,-11.416069063931703,-1.0696161675460636,5.336590160292387
1768421453993323300,8.2013232421875,-8.718307650804519,0.11831278343051671,4.281272128820419
1768421454003323400,8.211323486328125,-7.151265254831314,0.9957853537902236,2.6883476880937813
1768421454013323300,8.2213232421875,-8.057754660838842,1.8134797472745179,1.0429477947205303
1768421454023323400,8.231323486328124,-7.8613821939110755,2.7391502390921114,0.10383534526675939
1768421454033322200,8.241322265625,-7.9981188150435685,3.9545746613681314,-1.0597264955639838
1768421454043322400,8.251322265625,-7.054476613205671,3.9123116829171773,-3.70434902369976
1768421454053322200,8.261322265625,-5.595439833921194,2.33397588564381,-6.626833968970179
1768421454063322400,8.271322265625,-4.0259073746979235,0.9488070372551679,-9.223117121350764
1768421454073322200,8.281322265625,-3.47200683324635,0.7570859032645821,-12.62603522080183
1768421454083322400,8.291322265625,5.089132818293571,-0.09508960088910534,-12.803145353376864
1768421454093322200,8.301322265625,11.657115369844435,-1.723804737046361,-8.550602475434541
1768421454103322400,8.311322265625,10.11068321570158,-0.6752155754379928,-3.687003044362366
1768421454113322200,8.321322265625,6.704368459549546,1.525323315140605,-3.2944369742050763
1768421454123322400,8.331322265625,3.463342465275526,3.5008450974568723,-4.32039943959415
1768421454133322200,8.341322265625,6.211142459291219,4.665862397792935,-3.3108453804314135
1768421454143322000,8.351322021484375,11.53966972463727,4.871191201375424,0.3192313693553209
1768421454153321200,8.3613212890625,10.630793131232261,3.1993010682225225,7.14495066485703
1768421454163321300,8.3713212890625,10.463125365263224,-1.7072165903389454,12.366907314753531
1768421454173321200,8.3813212890625,7.968199477598071,-3.8676130017518995,13.040166641557215
1768421454183321300,8.3913212890625,11.196756450921296,-0.6188116242360323,12.081828974890708
1768421454193321200,8.4013212890625,8.7858947478652,5.132344768032431,3.814050922912359
1768421454203321300,8.4113212890625,1.8960721057653427,9.090365185940264,-4.976419462305307
1768421454213321200,8.4213212890625,-0.8697633111566304,13.167316519176959,-20.315930382716655
1768421454223321000,8.431321044921875,13.50180332533121,16.728626022207735,-30.439000786304472
1768421454233321200,8.4413212890625,19.491502004802225,13.054769167405366,-40.692262919425964
1768421454243321000,8.451321044921874,12.232190216749906,15.9294980897665,-28.939124631631373
1768421454253321200,8.4613212890625,6.050052902668714,12.332904507386683,-7.455859611546993
1768421454263321000,8.471321044921876,12.802460293722152,7.198621464768052,-2.4665812521904704
1768421454273321200,8.4813212890625,11.606500450372696,6.685211923658847,-5.169128730550408
1768421454283320000,8.491320068359375,11.704522433185577,1.1283334371916949,-7.90492089138627
1768421454293320200,8.5013203125,8.166009868374466,3.254082459723949,-8.019228823089598
1768421454303320000,8.511320068359375,6.515258092579245,5.411560353341699,-10.321606770551204
1768421454313320200,8.5213203125,3.565924887871742,3.84812328838408,-12.1878530623734
1768421454323320000,8.531320068359374,-2.3585136761814356,3.2855613015711307,-9.969288539630174
1768421454333320200,8.5413203125,-4.7395296915501355,4.072939174985885,-2.562308986586332
1768421454343320600,8.551320556640626,-5.466063512423634,3.06166779051125,2.103107421004772
1768421454353320700,8.56132080078125,-4.572083459377288,0.6841748347021639,4.0785850719183685
1768421454363320600,8.571320556640625,-3.477003326359391,-2.5948200940907,3.9806782399177547
1768421454373320700,8.58132080078125,-4.788079495185613,-4.942485043999552,2.817746221423149
1768421454383320600,8.591320556640625,-5.351145339867473,-5.15754409121871,4.478301013830304
1768421454393320700,8.60132080078125,-6.029512803465128,-2.965370731794834,7.446043735453486
1768421454403320800,8.61132080078125,-6.372942794531584,-0.18934023020341992,9.460584984254837
1768421454413319700,8.621319580078126,-6.149078509566188,1.5415392675347626,9.27329481844902
1768421454423319600,8.631319580078125,-4.900364396628738,2.7218653422921895,8.314504731839895
1768421454433319700,8.641319580078125,-3.572032557097077,3.732471833117306,7.902191174161434
1768421454443319800,8.65131982421875,-3.8761253940314053,4.191304273125529,6.866102159294486
1768421454453319700,8.661319580078125,-4.254647156745195,4.3481934554487465,5.048173615917563
1768421454463319800,8.67131982421875,-4.10139077796638,3.9291844917848704,2.877282698497176
1768421454473319700,8.681319580078124,-3.7955823692858215,2.8443016353935002,0.9018938949108123
1768421454483319800,8.69131982421875,-3.3069571408212184,1.557905295924097,-0.9784364518433809
1768421454493319700,8.701319580078126,-2.816851318410039,0.043975919848680496,-2.798825247853994
1768421454503319800,8.71131982421875,-1.5646142920434474,-1.2046215809717773,-4.085792226818204
1768421454513319700,8.721319580078125,-1.0788415304005146,-0.5416477935999632,-1.3765309300333262
1768421454523319800,8.73131982421875,0.447118329077959,1.3223891516096888,1.6164198826044798
1768421454533319700,8.741319580078125,0.9763491241753101,3.9807477980226276,2.3173791172385214
1768421454543318800,8.75131884765625,0.4613093515157699,3.62932096298337,0.10090133764147757
1768421454553318700,8.761318603515624,2.861476642078161,1.0790405601039528,-1.7098440162330866
1768421454563318800,8.77131884765625,2.607940272426605,1.3326669461265206,-0.6991004550248384
1768421454573318700,8.781318603515626,3.691973526251316,2.0503549049824477,-2.029477536648512
1768421454583318800,8.79131884765625,5.508009387749433,4.550675345167518,-4.2735465030044315
1768421454593318700,8.801318603515625,4.528661666280031,8.025581991508602,-5.849495259010792
1768421454603318800,8.81131884765625,4.293408556815981,8.795364002478122,-5.58522589842081
1768421454613318700,8.821318603515625,4.708454169806838,5.420054040920734,-4.398614313653111
1768421454623318800,8.83131884765625,5.027697229599952,4.2475609978765245,-4.169777208711206
1768421454633318700,8.841318603515624,4.288461748063564,2.704065773968398,-3.131153122408688
1768421454643318500,8.851318603515624,3.5580350114047525,1.2482400656849144,-2.1572069677218795
1768421454653318700,8.861318603515626,2.8749843584269286,0.927210122475028,-1.7377815322116017
1768421454663318500,8.871318603515626,2.008002786943316,1.1486695382557808,-1.9106617721319197
1768421454673317600,8.881317626953125,0.9096966776162385,1.118437481599301,-2.519667530211806
1768421454683317800,8.89131787109375,-0.3016618103951216,1.553682271401584,-2.368917581295967
1768421454693317600,8.901317626953125,-1.205355448204279,1.5915419003270566,-1.2813354028180242
1768421454703317800,8.91131787109375,-2.0283856497585773,1.1980308044046162,-0.13020283544957637
1768421454713317600,8.921317626953124,-2.468270520451665,0.6300127441428601,1.2928376245632767
1768421454723317500,8.9313173828125,-2.282668453863263,0.1481407893307507,2.3815645891621706
1768421454733317600,8.941317626953126,-2.0616087049245833,-0.27581892860829826,2.9638363618344066
1768421454743317500,8.9513173828125,-2.049663415586948,-0.5324531181447207,2.9417244832694527
1768421454753317600,8.961317626953125,-1.877361560076475,-0.7000976493686437,3.0254511064872145
1768421454763317500,8.9713173828125,-1.738855006662011,-1.031546110740304,2.7066414696753025
1768421454773317600,8.981317626953125,-1.6752128478348254,-1.0496356019213795,2.4040642980009315
1768421454783317800,8.99131787109375,-1.627831503456831,-0.8042068431407213,1.5266384893923997
1768421454793318000,9.00131787109375,-1.5516156942605972,-0.4173446837134659,0.8876315608024596
1768421454803316500,9.01131640625,-1.4627227743208409,-0.2928076189406216,0.6676897099778055
1768421454813316600,9.021316650390625,-1.209607260429859,-0.35903014964982866,0.602904226334393
1768421454823316500,9.03131640625,-1.0532979238212108,-0.3518151037044823,0.5302519548386335
1768421454833316900,9.04131689453125,-0.7954793468058109,-0.2881738216601312,0.414120899361372
1768421454843316700,9.051316650390625,-0.543559764701128,-0.1827086832344532,0.331148601642251
1768421454853316900,9.06131689453125,-0.2510007136940956,-0.12193258136287331,0.19803689300864935
1768421454863316700,9.071316650390624,0.1253133098423481,-0.08670096285343169,0.02941781766414642
1768421454873316900,9.08131689453125,0.7083692186295986,0.013515607394278048,-0.18024696929603815
1768421454883316700,9.091316650390626,1.0925380473196507,0.16110153932124374,-0.296474470885098
1768421454893316900,9.10131689453125,1.2562503536611795,0.2365577623218298,-0.4085927835896611
1768421454903316700,9.111316650390625,1.4126315864622592,0.2871006394706666,-0.5427493251010775
1768421454913316600,9.121316650390625,1.5899521469175815,0.30665479637682436,-0.7661267033323645
1768421454923316700,9.131316650390625,1.7310393644750117,0.27262480874210593,-0.8363727904692292
1768421454933316600,9.141316650390625,1.6668588609874249,0.2320031677573919,-0.7885124304026365
1768421454943315700,9.151315673828124,1.5415508118420838,0.2772562679350376,-0.7513730785757303
1768421454953315800,9.16131591796875,1.353841543841362,0.25451500542536376,-0.7147329084426164
1768421454963315700,9.171315673828126,1.1481073743283747,0.1608797132641077,-0.5700155176892876
1768421454973315800,9.18131591796875,0.9284346958339214,0.12911840121373533,-0.3880453778624534
1768421454983315700,9.191315673828125,0.6525941399157047,0.10042802104130387,-0.22375117997974156
1768421454993315600,9.201315673828125,0.3487029630333185,0.033436113394796844,-0.1102285534352064
1768421455003315700,9.211315673828125,0.08413724984526634,-0.026446839029341935,-0.009209726893901824
1768421455013315600,9.221315673828125,-0.12826865251660347,-0.07395853178873658,0.06816752729713917
1768421455023315700,9.231315673828124,-0.3000987988620996,-0.08892053859904409,0.10877952367067337
1768421455033315600,9.241315673828124,-0.45093291893005366,-0.1110001223295927,0.15881459742784498
1768421455043315700,9.251315673828126,-0.5680787044078112,-0.1352244630038738,0.1798497866719961
1768421455053315600,9.261315673828125,-0.6268558875471353,-0.12601400545760988,0.19836568657159803
1768421455063315700,9.271315673828125,-0.6803524999350309,-0.12396890949606895,0.22130057195723055
1768421455073314600,9.281314453125,-0.7103460716605186,-0.1398150056645274,0.2251554938197136
1768421455083314700,9.291314697265625,-0.6751648681640625,-0.11470087654367088,0.21500322537869213
1768421455093314600,9.301314453125,-0.6114689333230257,-0.09602101825401187,0.19812924746721983
1768421455103314700,9.311314697265624,-0.508275685352087,-0.07434519301876426,0.15849778656363486
1768421455113314600,9.321314453125,-0.3984498674988746,-0.041355508217215536,0.10148790535777806
1768421455123314700,9.331314697265626,-0.25542671344280243,-0.012411153283715247,0.05027852712422609
1768421455133314600,9.341314453125,-0.07276245387196541,0.03090367230772972,-0.0013549217402935027
1768421455143314700,9.351314697265625,0.05607376939952373,0.07645940869376062,-0.04103372891694307
1768421455153314600,9.361314453125,0.18168226279616354,0.09436433708816766,-0.07438187176734208
1768421455163314700,9.371314697265625,0.25904139680862426,0.1368061792373657,-0.09813976397365332
1768421455173314600,9.381314453125,0.33415830485224723,0.1918826081626117,-0.11638882963061332
1768421455183314700,9.391314697265624,0.40073943974077697,0.22428514072597025,-0.11589870802611112
1768421455193314800,9.401314697265626,0.4206722207009792,0.21398001981079579,-0.10349369222223759
1768421455203314700,9.411314697265626,0.41593759339451786,0.21447686341702937,-0.07775631663650273
1768421455213313500,9.4213134765625,0.33354338782429693,0.19432649418339132,-0.054364919655025004
1768421455223313700,9.431313720703125,0.24865678091645238,0.1840771951086819,-0.030097324360907077
1768421455233313800,9.441313720703125,0.16591303125619888,0.15412527056783437,0.013326806823909281
1768421455243313700,9.451313720703125,0.06056231299042701,0.12875614377260208,0.0239811795681715
1768421455253313800,9.461313720703124,-0.024380408018827435,0.09828019535765051,0.024884558148682116
1768421455263313700,9.471313720703124,-0.08181319081187248,0.062184507364779706,0.04796937339901924
1768421455273313800,9.481313720703126,-0.1130652381658554,0.02317980005741119,0.04709551317393779
1768421455283313700,9.491313720703126,-0.16420622733831405,-0.0006377133816480637,0.07171323707997798
1768421455293313800,9.501313720703125,-0.2225181310534477,-0.009236322639882564,0.07004413482397795
1768421455303313700,9.511313720703125,-0.2026677676796913,-0.027442718198895454,0.06223112298548221
1768421455313313800,9.521313720703125,-0.14466215343475342,-0.009364625194668769,0.050125382389128205
1768421455323313700,9.531313720703125,-0.07369768889546394,-0.01267491878643632,0.04018091147989034
1768421455333313800,9.541313720703124,-0.026460136902332305,-0.01443622937053442,0.011733984674513339
1768421455343312400,9.5513125,-0.00953881271779537,0.008984393705427645,-0.00024199206233024596
1768421455353312500,9.5613125,0.016890344524383545,-0.0012134674429893494,-0.011971300561726093
1768421455363312600,9.571312744140625,0.11181085419058799,0.010766747077554463,-0.04012450511753559
1768421455373312800,9.581312744140625,0.18723288266062735,0.021356676283478735,-0.05646686037033796
1768421455383312600,9.591312744140625,0.15688216806054114,0.021066607295721768,-0.057658408242464064
1768421455393312800,9.601312744140625,0.12409516622424124,0.023757746075838804,-0.04863251348286867
1768421455403312600,9.611312744140625,0.10409165811538695,0.026730770537257195,-0.03437134841829538
1768421455413312800,9.621312744140624,0.08844166904091834,0.014388006314635276,-0.0323246450215578
1768421455423312600,9.631312744140626,0.06431728160977364,0.032220600125193594,-0.020365619419515132
1768421455433312800,9.641312744140626,0.05427402650117874,0.022644670267403126,-0.02239478715956211
1768421455443312600,9.651312744140625,0.04223462913930416,0.028483313293009994,-0.033901392818987366
1768421455453312500,9.6613125,0.06785889973938465,0.04120835483148694,-0.027708967919647692
1768421455463312600,9.671312744140625,0.04893032738566398,0.05218450687602162,-0.011596914291381835
1768421455473312500,9.6813125,0.02048281605839729,0.045684915723651645,-0.01933130793571472
1768421455483311600,9.6913115234375,-0.021242694514989852,0.04677651035264134,-0.004478314457833766
1768421455493311700,9.701311767578124,-0.07204115386009216,0.031202362993359566,0.002493278120458126
1768421455503311600,9.7113115234375,-0.10843582479953766,0.03797214938923716,0.01721767678260803
1768421455513311700,9.721311767578126,-0.11153963603377341,0.022992899183183906,0.024262334597110746
1768421455523311600,9.7313115234375,-0.10586509752869605,0.03850990952774882,0.0131952893987298
1768421455533311500,9.7413115234375,-0.09670680856108665,0.04011208402737975,0.011622340993583202
1768421455543311600,9.7513115234375,-0.07238485273122787,0.03991480788961053,0.007148702710866928
1768421455553311500,9.7613115234375,-0.03250233967602253,0.04955591193810105,-0.010118658432364463
1768421455563311600,9.7713115234375,-0.004060089045763015,0.04487403773218393,-0.004588204573094844
1768421455573311500,9.7813115234375,0.01970657098889351,0.04041705832332373,-0.009008066841959953
1768421455583311600,9.7913115234375,0.01869301003217697,0.04859349664673209,-0.02377338203638792
1768421455593311500,9.8013115234375,-0.005608487531542777,0.043202743519097565,-0.002666296599805355
1768421455603311600,9.8113115234375,-0.005915361523628235,0.047424598997831344,-0.0005456511840224266
1768421455613310500,9.821310546875,0.002331073296070099,0.04466930894032121,-0.0070458268582820885
1768421455623310600,9.831310546875,0.008518822020292282,0.03967252356633544,-0.0004053659304976463
1768421455633310500,9.841310546875,0.01528057124018669,0.03989551866725087,0.010570786114037035
1768421455643310600,9.851310546875,0.02456628597974777,0.03988280531615018,0.007902735948562622
1768421455653310500,9.861310546875,0.02335515662431717,0.03850990952774882,0.0032049335211515426
1768421455663310600,9.871310546875,0.028080431580543515,0.041783962762355804,-0.00040273558199405667
1768421455673310500,9.881310546875,0.04665303010344505,0.03603475158587098,-0.009114742086827754
1768421455683310600,9.891310546875,0.047803369182348246,0.0332717166133225,0.004129062628746033
1768421455693310500,9.901310546875,0.027354455393552777,0.03732946757152676,-0.0006149170279502868
1768421455703310600,9.911310546875,0.006420388436317443,0.02510959907621145,-0.003037175738811493
1768421455713310700,9.921310791015625,-0.0163911628305912,0.03620411680340767,0.0022150457009673117
1768421455723310600,9.931310546875,-0.007893383598327636,0.03912497268617153,0.003121346890926361
1768421455733310700,9.941310791015624,-0.011996727263927458,0.018127631234377623,0.011297639083862304
1768421455743310600,9.951310546875,0.009741641813516616,0.018141075237840414,0.0035869185760617254
1768421455753309400,9.961309326171875,0.020687398719787597,0.04079042168036103,0.005143792629241943
1768421455763309800,9.971309814453125,0.035920039165019985,0.04215221155285835,-0.000048515316843986505
1768421455773309700,9.981309814453125,0.04006663745045662,0.046253363261371847,-0.0018780688315629959
1768421455783309800,9.991309814453125,0.02643324889540672,0.035308044746518136,0.007575403690338134
1768421455793309700,10.001309814453125,0.02867664390802383,0.04847483870312571,-0.0096443189188838
1768421455803309600,10.0113095703125,0.04161445141434669,0.034180648151785134,-0.0058902270823717115
1768421455813309700,10.021309814453126,0.026470658296346664,0.029714754784107206,-0.01149082356840372
1768421455823309600,10.0313095703125,0.010035071802139282,0.03583952127471566,-0.006614157442748546
1768421455833309700,10.041309814453125,0.01042903955578804,0.030559973436594008,-0.013987608820199966
1768421455843309600,10.0513095703125,0.03406593573093414,0.03907090441137552,-0.008919219514727591
1768421455853309700,10.061309814453125,0.04041501249670982,0.04181479629203677,-0.012660744130611419
1768421455863309600,10.0713095703125,0.03107318365573883,0.04506999869570136,-0.0055222705528140065
1768421455873309700,10.081309814453125,0.020018705677986144,0.030788521495461463,0.0007812135055661201
1768421455883309600,10.0913095703125,-0.02030161427259445,0.03341550899818539,-0.009918459685146808
1768421455893308700,10.10130859375,-0.010058452677726745,0.026577918063104153,0.004544657692313194
1768421455903308500,10.11130859375,-0.018270985227823257,0.03792071146294474,0.004677051900327206
1768421455913308700,10.12130859375,-0.00518704724907875,0.037378713540732855,0.0007405892342329024
1768421455923308500,10.13130859375,0.006671732848882675,0.02536430448964238,-0.00019055413603782652
1768421455933308700,10.14130859375,-0.00003156418204307556,0.03720423375666141,-0.002684416778385639
1768421455943308500,10.15130859375,-0.008003273713588714,0.035585254252701995,0.003438742277026176
1768421455953308700,10.16130859375,-0.011843582528829574,0.0319533274911344,-0.006367489205300807
1768421455963308500,10.17130859375,-0.018358663511276244,0.04003668070361018,0.0046659459844231605
1768421455973308700,10.18130859375,0.004409633135795593,0.027676234693825245,-0.0038809330865740774
1768421455983308500,10.19130859375,0.003245265531539917,0.01773775513395667,-0.004558978478610515
1768421455993308700,10.20130859375,-0.004277531188726425,0.028881372699886557,0.00879471635222435
1768421456003308500,10.21130859375,0.0049801265001296995,0.026646307124197483,0.004129354889690876
1768421456013308400,10.221308349609375,0.016275427496433258,0.01222849019318819,0.016287994717061518
1768421456023307500,10.2313076171875,-0.004070610439777374,0.02689195244833827,-0.0024836335092782973
1768421456033307600,10.2413076171875,-0.01315174251794815,0.03578223812952638,-0.019001345328986643
1768421456043307500,10.2513076171875,0.029208558827638623,0.028155688773840663,-0.016128420241177083
1768421456053307600,10.2613076171875,0.05804185460209846,0.018199965818226336,-0.026413667412102222
1768421456063307500,10.2713076171875,0.054822308033704754,0.03522986494377255,-0.01862900488525629
1768421456073307400,10.281307373046875,0.01772328821718693,0.036299540001899,-0.0015054361268877982
1768421456083307500,10.2913076171875,0.028647417813539505,0.035153000315278765,-0.010229425330460071
1768421456093307400,10.301307373046875,0.0696165570616722,0.027509645955264568,-0.009972527959942816
1768421456103307500,10.3113076171875,0.08196399745941162,0.01655365991592407,-0.010373509976267814
1768421456113307600,10.3213076171875,0.022936638951301574,0.026786153986304996,-0.005478139150142669
1768421456123307800,10.331307861328124,0.0026315175473690033,0.021315759751200675,0.005232639956474304
1768421456133307600,10.3413076171875,0.032976386928558345,0.020534838506579396,-0.010490998876094818
1768421456143307800,10.351307861328126,0.07100888820290566,0.03610007190704345,-0.01204202771037817
1768421456153307600,10.3613076171875,0.048317748445272445,0.03422127242311835,-0.0009288052827119827
1768421456163306800,10.371306640625,0.02269055523574352,0.03549436109885573,-0.0028308395117521284
1768421456173306600,10.381306640625,0.004732289218902588,0.01539864466190338,0.010721592761576176
1768421456183306800,10.391306640625,-0.011193009665608405,0.02095496361479163,0.001249123278260231
1768421456193306600,10.401306640625,-0.05767185224592685,0.022686171321570872,-0.0036906712114810943
1768421456203306800,10.411306640625,-0.05737082347273826,-0.017160247506946325,0.0058054714083671565
1768421456213306600,10.421306640625,-0.008451017481088638,-0.01632204311713576,0.01707563796341419
1768421456223306800,10.431306640625,0.003558569264411926,0.027718320269882676,-0.003396364440023899
1768421456233306600,10.441306640625,-0.004139584022760391,0.06322524858936666,0.0246913736641407
1768421456243306800,10.451306640625,-0.05002572140693664,0.06256546950638293,-0.0005564648389816284
1768421456253306600,10.461306640625,-0.052393035060167306,0.03420198320075869,0.007028875723481178
1768421456263306500,10.471306396484374,-0.039859716701507564,0.045644729843735694,-0.0017377835780382155
1768421456273306600,10.481306640625,-0.004584989702701568,0.04177797141298652,-0.013233575582504271
1768421456283306500,10.491306396484376,0.025647651475667953,0.04064049181565642,-0.012079729372262954
1768421456293306600,10.501306640625,0.0500058476626873,0.04374547209367156,-0.003743278181552887
1768421456303305700,10.5113056640625,0.05021744458675384,0.0294426598444581,-0.015341946038603782
1768421456313305600,10.5213056640625,0.03551379645168781,0.04154211683049798,-0.01585398721396923
1768421456323305700,10.5313056640625,0.026859949874877928,0.03663125617429614,-0.015567863748967646
1768421456333305600,10.5413056640625,0.01987725138068199,0.02393792494833469,-0.013348434133827686
1768421456343305700,10.5513056640625,0.03640051615834236,0.024033348146826027,-0.006707973206043243
1768421456353305900,10.561305908203124,0.020528408765792844,0.03331365605890751,-0.0005275310054421424
1768421456363305700,10.5713056640625,0.008148235142230988,0.02890387679263949,-0.008655600142478943
1768421456373305900,10.581305908203126,0.010530746364593505,0.0160023096434772,-0.00516483541727066
1768421456383305700,10.5913056640625,0.02870236287117004,0.028949323369562623,0.0013899930536746979
1768421456393305900,10.601305908203125,0.0261205296844244,0.02439487493559718,-0.0098076927870512
1768421456403305700,10.6113056640625,0.0033399580776691433,0.013509616044908761,0.0017182020947337149
1768421456413305900,10.621305908203125,-0.002090250277519226,0.010384177500754594,-0.010140285742282866
1768421456423305700,10.6313056640625,-0.009652794486284255,0.018517507334798573,0.0010024550408124922
1768421456433305900,10.641305908203124,0.0017605799317359924,0.010805617783218622,0.0003606500059366226
1768421456443304700,10.6513046875,0.0011532616883516312,0.005047784908860922,-0.0052872927531599995
1768421456453304800,10.661304931640625,-0.014611878198385237,0.012632979340851306,-0.00274842192530632
1768421456463304700,10.6713046875,-0.005534253251552581,0.011885229713469742,-0.011276304034888744
1768421456473304800,10.681304931640625,-0.00983341175019741,0.011089110899716615,0.0012044073536992073
1768421456483304700,10.6913046875,0.0016559505134820937,0.016115560759603978,-0.0030862755775451656
1768421456493304800,10.701304931640625,-0.0005769231051206588,0.015498159513622522,0.00761047500371933
1768421456503304700,10.7113046875,0.011527940708398817,0.028184184215962884,-0.005466740973293781
1768421456513304800,10.721304931640624,0.013523498439788818,0.02529956869035959,0.010290800128877162
1768421456523304700,10.7313046875,0.024154782569408416,0.007586655736714601,-0.010223287850618362
1768421456533304800,10.741304931640625,0.026116438031196593,-0.05406812866553664,-0.04101619326025247
1768421456543305000,10.751304931640625,0.04540215325951576,0.021890490899235008,0.043135377371311186
1768421456553304800,10.761304931640625,0.0038987610042095183,0.12060878541320562,0.002085574102401733
1768421456563305000,10.771304931640625,-0.0008873042285442352,0.01633402581587434,0.00032850130200386043
1768421456573304800,10.781304931640625,0.011044541105628013,0.03997735173180699,-0.007073883908987045
1768421456583304000,10.791303955078124,0.00378887088894844,0.029292729979753494,-0.010391922415792941
1768421456593303800,10.8013037109375,0.02111176161170006,0.029898148526996373,-0.026711189053952693
1768421456603304000,10.811303955078126,0.02614800221323967,0.01962590696811676,-0.003915419878065586
1768421456613303800,10.8213037109375,0.02742109088897705,0.018798662363737822,-0.008776303912699223
1768421456623304000,10.831303955078125,0.0015898995399475098,0.023809622393548488,-0.00421761769503355
1768421456633303800,10.8413037109375,-0.017922610181570053,0.028218817137926816,-0.000933189196884632
1768421456643304000,10.851303955078125,-0.01345803198814392,0.024953823992609977,-0.004138414978981018
1768421456653303800,10.8613037109375,-0.018083938223123548,0.03376300726160407,-0.0027048750445246694
1768421456663304000,10.871303955078124,-0.014893617749214171,0.019999854847043752,-0.003770750710368156
1768421456673303800,10.8813037109375,-0.009600187516212463,0.004239683396369219,-0.002213292135298252
1768421456683304000,10.891303955078126,0.0075146134138107295,0.018746055393666028,-0.007068038690090179
1768421456693303800,10.9013037109375,0.011200608450174331,0.021027444329112768,-0.003834463596343994
1768421456703304000,10.911303955078125,0.0056242696225643155,0.01719897208213806,-0.0039794250249862665
1768421456713303800,10.9213037109375,0.017907412612438202,0.012266191855072975,0.0028270401194691657
1768421456723303000,10.931302978515625,0.02656710440814495,0.029525515822321175,-0.0003787701845169067
1768421456733302800,10.941302734375,0.01563479150533676,0.02577010881155729,-0.004042261128127575
1768421456743303000,10.951302978515624,0.016773440146446227,0.024462971735745666,0.0003317161723971367
1768421456753302800,10.961302734375,0.012223521757125854,0.020886866814643145,0.0004357610687613487
1768421456763303000,10.971302978515626,0.013696516919136047,0.01239376375749707,-0.016776655016839503
1768421456773302800,10.981302734375,0.019830489629507064,0.01606076183244586,-0.005010521638393402
1768421456783302700,10.991302734375,-0.005168927070498466,0.027600539109110832,0.0066927756369113914
1768421456793302800,11.001302734375,-0.018311901760101317,0.03913768603727221,0.00824263542741537
1768421456803302700,11.011302734375,-0.0025754034459590913,0.022602000169456005,-0.00999152492135763
1768421456813302800,11.021302734375,0.008076923471689224,0.02899243185892701,0.000647065731883049
1768421456823302700,11.031302734375,0.02848725881576538,0.022811551266908644,-0.0055199324652552605
1768421456833302800,11.041302734375,0.01262976447045803,0.02686564896330237,0.0011468319475650788
1768421456843302700,11.051302734375,-0.028221885877847668,0.02026698135063052,0.002445347325503826
1768421456853302800,11.061302734375,-0.03100947076976299,0.028383944571763277,-0.004539104734361171
1768421456863301600,11.071301513671875,0.005945756661891937,0.027880671224743126,0.013321253865957259
1768421456873301800,11.0813017578125,0.02433013913631439,0.016952742236107588,-0.0018219547301530836
1768421456883301600,11.091301513671874,-0.008489595925807952,0.03132730454728007,0.001980652423202991
1768421456893301800,11.1013017578125,-0.029134909069538115,0.035521833627671,0.013356325179338454
1768421456903301600,11.111301513671876,0.014327800559997557,0.03237783651351928,0.0012006079614162444
1768421456913301800,11.1213017578125,0.058365095207095145,0.021324673710018394,-0.012636194211244582
1768421456923301600,11.131301513671875,0.06926350584030151,0.02626008428558707,0.0038660277783870694
1768421456933302000,11.141302001953125,-0.007799860095977783,0.015582769057154654,0.008085106778144837
1768421456943302000,11.151302001953125,-0.04505845438838005,0.014539982005953788,0.011230419066548347
1768421456953302000,11.161302001953125,0.0024608371555805207,-0.006484831974655389,0.008165186277031899
1768421456963302000,11.171302001953125,0.07107552369832992,0.029061113180965183,-0.0013619360029697416
1768421456973301800,11.1813017578125,0.05410276158750057,0.023226123417168853,-0.0028010288953781125
1768421456983302000,11.191302001953124,-0.002958265283703804,0.00465703202560544,0.014175824868679045
1768421456993301800,11.2013017578125,-0.02801321156322956,0.02225727838501334,0.015334054993093012
1768421457003300900,11.21130078125,-0.043265141230821605,0.01067673070654273,0.011221358977258204
1768421457013301000,11.221301025390625,-0.04095978689789772,0.019529460856318473,0.002786123587191105
1768421457023300900,11.23130078125,-0.02271802776455879,0.01606792222559452,-0.0000011690437793731689
1768421457033301000,11.241301025390625,-0.006079027652740478,0.01809124474674463,0.0009583236381411552
1768421457043300900,11.25130078125,0.014229016360640525,0.026958880204707384,-0.016064707355201244
1768421457053300700,11.26130078125,0.04873042089939117,0.016855127080529927,-0.022216800244152544
1768421457063300900,11.27130078125,0.04769347906708717,0.01582651468515396,-0.035145547661185265
1768421457073300700,11.28130078125,0.014203881919384001,0.02942556257918477,-0.011221066716313361
1768421457083300900,11.29130078125,-0.010151391658186912,0.01294584468230605,0.006887421426177025
1768421457093300700,11.30130078125,-0.020569325298070908,0.015089724843204021,-0.004102759143710136
1768421457103300900,11.31130078125,-0.022338088536262513,0.014297259291261433,0.0019666238978505134
1768421457113300700,11.32130078125,0.004584989702701568,0.012849983092397451,0.007422258955240249
1768421457123300900,11.33130078125,0.002443301498889923,0.009291267697513103,0.005265373182296753
1768421457133300700,11.34130078125,-0.011056231543421745,0.00838379746377468,0.011219605411589145
1768421457143299800,11.3512998046875,-0.017919103050231932,0.022201164283603428,-0.006437924093008041
1768421457153299700,11.3612998046875,0.008891162464022636,0.008139905705302953,0.007077098779380321
1768421457163299800,11.3712998046875,0.004841010290384292,0.012361322792619466,0.01869564038068056
1768421457173299700,11.3812998046875,-0.001050970357656479,0.004519669381529093,0.0004161795854568481
1768421457183299800,11.3912998046875,0.029666823989152907,0.011936667639762163,-0.010552958196401596
1768421457193299700,11.4012998046875,0.0023065233767032623,0.010323533354699611,0.003133037328720093
1768421457203299800,11.4112998046875,-0.02265606844425201,0.01641775857657194,0.007058686339855193
1768421457213299700,11.4212998046875,-0.014198036700487136,0.013237228844314813,0.008524374978244304
1768421457223299800,11.4312998046875,-0.0010077157378196716,0.011212737279385328,0.0009144844964146614
1768421457233299700,11.4412998046875,0.004884264910221099,0.016533347780257463,-0.00585457124710083
1768421457243299800,11.4512998046875,0.012696984487771987,0.0021574702948331833,-0.001750350798666477
1768421457253299700,11.4612998046875,0.028484336206316945,0.010987696351855992,-0.014370470657944678
1768421457263299600,11.471299560546875,0.04088146096467971,0.024421762942522764,-0.01118979479521513
1768421457273299700,11.4812998046875,0.04356207835078239,0.0052300096079707144,-0.008342296409606932
1768421457283298800,11.491298828125,0.03864332664906978,0.01256225219219923,-0.009701309803128243
1768421457293298700,11.501298583984376,0.05392097527980804,0.01745528493076563,-0.009967559523880481
1768421457303298800,11.511298828125,0.04109890310764312,0.011378303104639052,0.012533318358659744
1768421457313298700,11.521298583984375,0.009756839382648468,0.018589403527230024,-0.0033262218132615088
1768421457323298800,11.531298828125,-0.01300268943607807,0.016205284869670867,-0.0018090952485799788
1768421457333299000,11.541298828125,-0.023896423894166945,0.018163433200120926,-0.0018760230049490927
1768421457343298600,11.551298583984375,-0.006358429116010665,0.024775983207672832,0.0067453826069831845
1768421457353298700,11.561298583984374,-0.022216507983207703,0.018254034093022346,0.021669980016350746
1768421457363298600,11.571298583984374,-0.026814357167482376,0.01464841081649065,0.018932371746003627
1768421457373298700,11.581298583984376,-0.02694178293943405,0.02017009684741497,0.016555705742537976
1768421457383298600,11.591298583984376,-0.0039747488498687745,0.03705678810998797,-0.0009489712879061699
1768421457393298700,11.601298583984375,-0.001679331389069557,0.02440817280858755,0.0010708441019058226
1768421457403298600,11.611298583984375,0.03185410490036011,0.0376719973988831,0.004565992741286755
1768421457413298700,11.621298583984375,0.02022796451449394,0.043491497332602734,-0.0022255670949816704
1768421457423297500,11.631297607421875,0.01734627159833908,0.018021248250454664,-0.015061960053443908
1768421457433297700,11.641297607421874,0.0031809681236743925,0.028755992754548786,0.0034060090512037277
1768421457443297500,11.651297607421874,-0.015410335099697112,0.016694237430393694,0.004460486540198326
1768421457453297700,11.661297607421876,-0.04299041594266891,0.011385755758732557,-0.002710428002476692
1768421457463297500,11.671297607421875,-0.024239538243412972,0.014792495462298392,-0.005118950448930263
1768421457473297700,11.681297607421875,0.03946867155730724,0.0034233985774219035,-0.007764204260706901
1768421457483297500,11.691297607421875,0.07997720755636692,0.017359131079912184,-0.022637363743782044
1768421457493297700,11.701297607421875,0.10700257712602615,0.011223112542927264,-0.0238178057000041
1768421457503297500,11.711297607421875,0.062493573313951487,0.015555004267394541,-0.03251519915759563
1768421457513297700,11.721297607421874,-0.007424597042798996,0.020541122116893528,-0.013888240098953246
1768421457523297500,11.731297607421874,-0.058522331595420835,0.014705840092152356,-0.003281505888700485
1768421457533297700,11.741297607421876,-0.020948095482587813,0.0035071313381195065,0.0038178047224879264
1768421457543297500,11.751297607421876,0.021067922469973563,0.011902034717798233,-0.0054822308033704754
1768421457553297400,11.76129736328125,0.033359833288192746,-0.0001309329032897949,-0.01629237863123417
1768421457563296500,11.771296630859375,0.06246084008812904,0.0008985562749207019,0.005602934573590755
1768421457573296600,11.781296630859375,0.0439537080168724,0.011072013634443283,-0.003177460992336273
1768421457583296500,11.791296630859375,-0.02294599130153656,0.01222410627901554,-0.0008899345770478248
1768421457593296600,11.801296630859374,-0.08279168045520782,0.01315174251794815,0.033681028066575525
1768421457603296500,11.811296630859376,-0.1056102459847927,0.00878682530671358,0.03609948738515377
1768421457613296400,11.82129638671875,-0.0696516283750534,-0.012386164972931145,0.015313888987898826
1768421457623296500,11.831296630859375,-0.02084755771756172,-0.00554828177690506,0.016439385886490344
1768421457633296400,11.84129638671875,0.0002443301498889923,0.009366817151755094,-0.0013648586124181746
1768421457643296800,11.851296875,0.028829788643121718,0.013432897546887397,-0.016437924581766128
1768421457653296600,11.861296630859375,0.05737549964785576,0.005815846671909094,-0.027963234941661357
1768421457663296800,11.871296875,0.11030161867141723,0.02065948779955506,-0.03350274889022112
1768421457673296600,11.881296630859374,0.10369476775228977,0.01986293059438467,-0.031385318344831464
1768421457683296800,11.891296875,0.05306172810196876,0.028721067571640013,-0.015834697991609574
1768421457693296600,11.901296630859376,0.00040974984467029567,0.011851473574340342,0.0035056700333952902
1768421457703295700,11.911295654296875,-0.018618775752186775,-0.0103686876706779,-0.0003264554753899574
1768421457713295600,11.921295654296875,0.010508534532785415,-0.006950403659790754,0.0018655016109347343
1768421457723295700,11.931295654296875,0.021036942809820176,0.031351562205702066,-0.0014434768065810203
1768421457733295600,11.941295654296875,0.013330606216192245,0.029059067354351282,0.02589256614744663
1768421457743295700,11.951295654296874,0.0317582433104515,0.05920490703210234,0.027095804457366465
1768421457753295600,11.961295654296874,0.06126607734560966,0.07776786094382405,-0.013985855254530905
1768421457763295700,11.971295654296876,0.08025602449774742,0.08109948958456516,-0.018334113591909406
1768421457773295600,11.981295654296876,0.04336860160529613,0.06687777974754572,-0.024580606766045093
1768421457783295700,11.991295654296875,0.0031657705545425413,0.05084785144478082,-0.007035889986157417
1768421457793295600,12.001295654296875,-0.04082300877571106,0.03424246134161949,-0.005387245996296405
1768421457803295500,12.01129541015625,-0.07771569236516952,0.024294191040098667,0.01087912141084671
1768421457813295600,12.021295654296875,-0.12590601503849028,0.007585925084352493,0.013394611363112926
1768421457823295500,12.03129541015625,-0.13942717539072036,0.009643149875104427,0.015688567519187926
1768421457833295600,12.041295654296874,-0.12220482243299484,-0.00257087340131402,0.00928133082538843
1768421457843295500,12.05129541015625,-0.08843114764690399,0.0055716626524925225,0.008135375660657883
1768421457853294600,12.061294677734375,-0.03972060049176216,-0.0024367256276309488,0.0021203531548380852
1768421457863294700,12.071294677734375,0.008283259698748588,0.0008139467313885688,-0.009132277743518352
1768421457873294600,12.081294677734375,0.06761632315516472,0.004481383197754621,-0.027697862003743648
1768421457883294500,12.09129443359375,0.07985971865653992,-0.008343465453386305,-0.023143559700250626
1768421457893294600,12.101294677734375,0.08258008353114128,-0.004139291761815548,-0.02307107898592949
1768421457903294500,12.11129443359375,0.07589899833202361,-0.0007841361150145531,-0.022808336396515368
1768421457913294600,12.121294677734374,0.08135375660657883,0.015214666397124528,-0.019992109932005404
1768421457923294500,12.13129443359375,0.10134440523386001,-0.009447481172531842,-0.02485299396663904
1768421457933294600,12.141294677734376,0.10694295589327811,-0.008486088794469833,-0.034630583876371385
1768421457943294500,12.15129443359375,0.09753916773200035,-0.002524111650139093,-0.031232173609733578
1768421457953294600,12.161294677734375,0.07647767500281333,-0.010610533602535725,-0.015349252562224865
1768421457963294500,12.17129443359375,0.055255438753962514,0.001616641416400671,-0.002660159119963646
1768421457973294600,12.181294677734375,0.015547113221883773,0.00026829554736614226,0.014589666366577148
1768421457983293400,12.19129345703125,-0.008860767325758934,0.002535802087932825,0.008985270488262176
1768421457993293600,12.20129345703125,-0.024516017097234725,0.004631897584348917,0.019584698174893854
1768421458003293400,12.21129345703125,-0.07112170092761516,0.01110109359845519,0.013492811040580272
1768421458013293600,12.22129345703125,-0.05125087928771972,0.0033824820451438427,0.008789747916162013
1768421458023293400,12.23129345703125,-0.0461760602414608,0.014373539397865533,0.02261339834630489
1768421458033293600,12.24129345703125,-0.0335883813470602,0.01834405046403408,0.025075112284719942
1768421458043293700,12.251293701171875,-0.036685762840509416,0.016537147172540425,0.002875555436313152
1768421458053293800,12.2612939453125,-0.03853168296813965,0.04397942698001861,-0.004837503159046173
1768421458063293700,12.271293701171874,-0.03207154704332352,0.04149696251451969,0.009530921672284602
1768421458073293600,12.28129345703125,-0.028852000474929806,0.033095044872164726,0.0020808979272842407
1768421458083293700,12.291293701171876,-0.015240239229798317,0.03243102800548076,-0.012755436676740646
1768421458093293600,12.30129345703125,0.005087678527832031,0.03771890528053045,-0.018154665371775625
1768421458103293700,12.311293701171875,0.008489595925807952,0.044683921987563366,-0.02171118880957365
1768421458113293600,12.32129345703125,0.030429040533304214,0.041936522975564,-0.01684650538265705
1768421458123292700,12.331292724609375,0.046566520863771436,0.03647825756967067,-0.02526917355209589
1768421458133292800,12.341292724609374,0.05243979681134223,0.03615954700931907,-0.025988719998300075
1768421458143292700,12.351292724609374,0.06017302141189575,0.019682459460943935,-0.015645020638406275
1768421458153292500,12.36129248046875,0.04465396524071693,0.012714374013990164,-0.008487842360138893
1768421458163292700,12.371292724609376,0.029632921719551085,-0.003839139771461487,0.003519698558747768
