time,seconds_elapsed,z,y,x
1768421445863387400,0.071387451171875,-0.005003932863473892,-0.018651092424988747,-0.014780417084693909
1768421445873387300,0.08138720703125,-0.004548532422631979,-0.0178390946239233,-0.016933849081397057
1768421445883387400,0.091387451171875,-0.006936855148524046,-0.018086502328515053,-0.015433423221111298
1768421445893387300,0.10138720703125,-0.008830895647406578,-0.02126258984208107,-0.009204023517668247
1768421445903387400,0.111387451171875,-0.012276490218937397,-0.023171251639723778,-0.0010366966016590595
1768421445913386200,0.12138623046875,-0.01290206704288721,-0.023030104115605354,0.005142636131495237
1768421445923386400,0.131386474609375,-0.008741657249629498,-0.02300119958817959,0.006855114363133907
1768421445933386200,0.14138623046875,-0.0044260043650865555,-0.02162700891494751,0.0015338524244725704
1768421445943386400,0.151386474609375,-0.002142017474398017,-0.01925130933523178,-0.0030204891227185726
1768421445953386200,0.16138623046875,-0.0007265475578606129,-0.016586551442742348,-0.006661829072982073
1768421445963386400,0.171386474609375,-0.0008585595060139894,-0.016303956508636475,-0.010466158390045166
1768421445973386200,0.18138623046875,-0.00034323777072131634,-0.015101805329322815,-0.004074305295944214
1768421445983386400,0.191386474609375,-0.0016982646193355322,-0.01981518603861332,0.0014987725298851728
1768421445993386200,0.20138623046875,-0.004447446204721928,-0.01842474937438965,0.004252747632563114
1768421446003386400,0.211386474609375,-0.0040418850257992744,-0.018565915524959564,-0.0038801440969109535
1768421446013386200,0.22138623046875,-0.0016921774949878454,-0.015966136008501053,-0.011268552392721176
1768421446023386400,0.231386474609375,-0.00017961685080081224,-0.011778006330132484,-0.016147151589393616
1768421446033386200,0.24138623046875,0.0029799574986100197,-0.009073833003640175,-0.01268637366592884
1768421446043386000,0.25138623046875,0.0031845509074628353,-0.003757447237148881,-0.01058126799762249
1768421446053385200,0.26138525390625,0.0028961305506527424,-0.002300698310136795,-0.011498460546135902
1768421446063385300,0.27138525390625,0.0020980010740458965,-0.0029189425986260176,-0.012549545615911484
1768421446073385200,0.28138525390625,-0.003191303228959441,-0.0073640248738229275,-0.014072341844439507
1768421446083385300,0.29138525390625,-0.006341065280139446,-0.006942489184439182,-0.013600237667560577
1768421446093385200,0.30138525390625,-0.007905672304332256,-0.006452201399952173,-0.013896115124225616
1768421446103385000,0.311385009765625,-0.009991091676056385,-0.006823777221143246,-0.012183696031570435
1768421446113385200,0.32138525390625,-0.008877890184521675,-0.0017270196694880724,-0.012681707739830017
1768421446123385000,0.331385009765625,-0.008229697123169899,0.0022276327945291996,-0.012925451621413231
1768421446133385200,0.34138525390625,-0.007558847311884165,0.00946530606597662,-0.012406136840581894
1768421446143385000,0.351385009765625,-0.006278276443481445,0.014551193453371525,-0.014745062217116356
1768421446153385200,0.36138525390625,-0.005167472176253796,0.019205335527658463,-0.015882497653365135
1768421446163385000,0.371385009765625,0.0009491942473687232,0.023905780166387558,-0.019904132932424545
1768421446173385200,0.38138525390625,-0.004665015731006861,0.021720657125115395,-0.0158500038087368
1768421446183385000,0.391385009765625,-0.004393802955746651,0.029912449419498444,-0.009842383675277233
1768421446193384200,0.40138427734375,0.0014342587674036622,0.033235274255275726,-0.01322060264647007
1768421446203384000,0.411384033203125,0.001745585585013032,0.03408884257078171,-0.011086400598287582
1768421446213384200,0.42138427734375,0.00195970362983644,0.03663402795791626,-0.008697278797626495
1768421446223384000,0.431384033203125,0.0037913606502115726,0.0379161536693573,-0.005402824375778437
1768421446233384200,0.44138427734375,0.004044095054268837,0.03885704651474953,-0.0020120879635214806
1768421446243384000,0.451384033203125,0.005663858726620674,0.03710639849305153,-0.004095087759196758
1768421446253384200,0.46138427734375,0.005428168922662735,0.03529385104775429,-0.005548641085624695
1768421446263384300,0.47138427734375,0.0043599046766757965,0.03399570286273956,-0.0072964634746313095
1768421446273384400,0.481384521484375,0.0017566647147759795,0.03277570754289627,-0.00852950755506754
1768421446283384300,0.49138427734375,0.0008361897780559957,0.027945641428232193,-0.007518952712416649
1768421446293384200,0.50138427734375,0.0013520440552383661,0.02444837987422943,-0.006091764196753502
1768421446303384300,0.51138427734375,-0.0006072246469557285,0.020087329670786858,-0.0054597314447164536
1768421446313384200,0.52138427734375,-0.0007811291143298149,0.013851536437869072,-0.002898569218814373
1768421446323384300,0.53138427734375,-0.0018740023951977491,0.011201579123735428,-0.0034942030906677246
1768421446333384400,0.541384521484375,-0.0029062433168292046,0.004523967858403921,-0.003463044296950102
1768421446343383600,0.551383544921875,-0.006788019556552172,0.0015957416035234928,-0.0020196503028273582
1768421446353383400,0.561383544921875,-0.008174194023013115,-0.0026208413764834404,-0.0022018104791641235
1768421446363383600,0.571383544921875,-0.007495850324630737,-0.006423551589250565,-0.0017342949286103249
1768421446373383400,0.581383544921875,-0.008920375257730484,-0.010765302926301956,-0.003293842077255249
1768421446383383600,0.591383544921875,-0.0066710882820189,-0.013101570308208466,-0.008159502409398556
1768421446393383400,0.601383544921875,-0.007947275415062904,-0.017242785543203354,-0.011732932180166245
1768421446403383600,0.611383544921875,-0.008308211341500282,-0.020343415439128876,-0.012372767552733421
1768421446413383400,0.621383544921875,-0.0072173806838691235,-0.02049228549003601,-0.010775936767458916
1768421446423383600,0.631383544921875,-0.006380111910402775,-0.019670600071549416,-0.011239605024456978
1768421446433383400,0.641383544921875,-0.004105239175260067,-0.01705670729279518,-0.010883808135986328
1768421446443383600,0.651383544921875,-0.004079017322510481,-0.014795368537306786,-0.009482324123382568
1768421446453383400,0.661383544921875,-0.0020595421083271503,-0.013054726645350456,-0.006025007925927639
1768421446463383600,0.671383544921875,0.0021163970232009888,-0.010015326552093029,-0.00026005692780017853
1768421446473383400,0.681383544921875,0.007526342757046223,-0.006379312835633755,0.000039548613131046295
1768421446483382500,0.691382568359375,0.011874021962285042,-0.0051836371421813965,0.002776356413960457
1768421446493382400,0.70138232421875,0.011899854987859726,-0.0060414415784180164,0.002277812920510769
1768421446503382500,0.711382568359375,0.01332600973546505,-0.007523232139647007,0.005351020023226738
1768421446513382400,0.72138232421875,0.014824038371443748,-0.011152587831020355,0.008484495803713799
1768421446523382500,0.731382568359375,0.013342241756618023,-0.01129784807562828,0.009879871271550655
1768421446533382400,0.74138232421875,0.013242373242974281,-0.010975072160363197,0.009183455258607864
1768421446543382500,0.751382568359375,0.011108273640275002,-0.015253107063472271,0.010114753618836403
1768421446553382400,0.76138232421875,0.007942574098706245,-0.02152937836945057,0.012824520468711853
1768421446563382300,0.77138232421875,0.004858248867094517,-0.02604828029870987,0.014984749257564545
1768421446573382400,0.78138232421875,-0.001084594987332821,-0.034808747470378876,0.012875791639089584
1768421446583382300,0.79138232421875,-0.004468900617212057,-0.039526522159576416,0.014344656839966774
1768421446593382400,0.80138232421875,-0.0049682436510920525,-0.03862850368022919,0.017519943416118622
1768421446603382300,0.81138232421875,-0.0042231702245771885,-0.03620431572198868,0.014019068330526352
1768421446613382400,0.82138232421875,-0.004640753846615553,-0.036424558609724045,0.008802467957139015
1768421446623381500,0.831381591796875,-0.0032397592440247536,-0.037760257720947266,0.0016849972307682037
1768421446633381400,0.84138134765625,-0.0030381581746041775,-0.03406458720564842,0.004795835819095373
1768421446643381200,0.85138134765625,-0.0036403120029717684,-0.031196653842926025,0.01251026801764965
1768421446653381400,0.86138134765625,-0.004088788293302059,-0.028295937925577164,0.0151585154235363
1768421446663381200,0.87138134765625,-0.003987790085375309,-0.02565448358654976,0.01367618702352047
1768421446673381400,0.88138134765625,-0.002784040989354253,-0.024388151243329048,0.011222616769373417
1768421446683381200,0.89138134765625,-0.0019003062043339014,-0.0209447480738163,0.007453450467437506
1768421446693381600,0.901381591796875,0.0016121369553729892,-0.01715293899178505,0.007159703876823187
1768421446703381500,0.911381591796875,0.006080286577343941,-0.012542649172246456,0.008227569051086903
1768421446713381600,0.921381591796875,0.007416660897433758,-0.011314133182168007,0.008146076463162899
1768421446723381500,0.931381591796875,0.008838809095323086,-0.01140507124364376,0.010648980736732483
1768421446733381600,0.941381591796875,0.010057738050818443,-0.008802098222076893,0.007348525337874889
1768421446743381500,0.951381591796875,0.008557645604014397,-0.0071821813471615314,0.00012218044139444828
1768421446753381400,0.96138134765625,0.007516882382333279,-0.004677478224039078,-0.008468111976981163
1768421446763380500,0.97138037109375,0.009261595085263252,2.7706846594810486e-7,-0.009621914476156235
1768421446773380600,0.981380615234375,0.011227540671825409,0.0012181410565972328,-0.006983787752687931
1768421446783380500,0.99138037109375,0.012893124483525753,0.0024808826856315136,-0.004100667778402567
1768421446793380600,1.001380615234375,0.010989230126142502,0.0008598165586590767,-0.0029816068708896637
1768421446803380500,1.01138037109375,0.011073160916566849,-0.0015359236858785152,-0.0026922221295535564
1768421446813380400,1.02138037109375,0.009788185358047485,-0.002894668374210596,-0.005319963674992323
1768421446823380500,1.03138037109375,0.007617168128490448,-0.005123609211295843,-0.004816778004169464
1768421446833380400,1.04138037109375,0.005310337990522385,-0.007356936112046242,-0.005174173973500729
1768421446843380500,1.05138037109375,0.006306041963398457,-0.010769549757242203,-0.003739607986062765
1768421446853380400,1.06138037109375,0.0061193546280264854,-0.012585826218128204,-0.006939129438251257
1768421446863380500,1.07138037109375,0.0029853421729058027,-0.014347361400723457,-0.009234359487891197
1768421446873380400,1.08138037109375,0.0020170167554169893,-0.016440605744719505,-0.010406683199107647
1768421446883380500,1.09138037109375,-0.00246047112159431,-0.017137134447693825,-0.013011939823627472
1768421446893380400,1.10138037109375,-0.002996831899508834,-0.01615016721189022,-0.012147212401032448
1768421446903379500,1.11137939453125,-0.0039888592436909676,-0.0170508474111557,-0.007314105983823538
1768421446913379300,1.12137939453125,-0.0028290527407079935,-0.018110252916812897,-0.0008471524342894554
1768421446923379500,1.13137939453125,-0.0029942160472273827,-0.017490139231085777,0.005072804633527994
1768421446933379300,1.14137939453125,0.00017467944417148829,-0.016288254410028458,0.007576442323625088
1768421446943379500,1.15137939453125,-0.0022802953608334064,-0.017161153256893158,0.005906496196985245
1768421446953379300,1.16137939453125,0.00045024382416158915,-0.01730363257229328,0.005568275228142738
1768421446963379500,1.17137939453125,0.0020658576395362616,-0.01552365068346262,0.0008070026524364948
1768421446973379300,1.18137939453125,0.006719465367496014,-0.012557954527437687,0.0003952779807150364
1768421446983379500,1.19137939453125,0.011264558881521225,-0.010362348519265652,0.0024081161245703697
1768421446993379300,1.20137939453125,0.01683961972594261,-0.0074666934087872505,0.0025529921986162663
1768421447003379500,1.21137939453125,0.018663622438907623,-0.005304086022078991,0.004090552218258381
1768421447013379300,1.22137939453125,0.018500903621315956,-0.00024461280554533005,0.007046927232295275
1768421447023379200,1.231379150390625,0.01626407355070114,0.0032768677920103073,0.011566180735826492
1768421447033379600,1.241379638671875,0.013687466271221638,0.0036819344386458397,0.01546371728181839
1768421447043378400,1.25137841796875,0.013199642300605774,0.0035673310048878193,0.016811242327094078
1768421447053378300,1.26137841796875,0.012072859331965446,0.0014391993172466755,0.01603013649582863
1768421447063378400,1.27137841796875,0.014649225398898125,0.002177571412175894,0.016131047159433365
1768421447073378300,1.28137841796875,0.019396577030420303,0.007220799569040537,0.014917978085577488
1768421447083378400,1.29137841796875,0.023273739963769913,0.011086304672062397,0.016444161534309387
1768421447093378600,1.301378662109375,0.02265668660402298,0.013807522132992744,0.019453002139925957
1768421447103378400,1.31137841796875,0.01920616813004017,0.015486571937799454,0.019630827009677887
1768421447113378600,1.321378662109375,0.01337917149066925,0.012161880731582642,0.01519240252673626
1768421447123378400,1.33137841796875,0.00881795585155487,0.006910785101354122,0.013794176280498505
1768421447133378600,1.341378662109375,0.005410707090049982,0.00014662230387330055,0.016075441613793373
1768421447143378400,1.35137841796875,0.0038604214787483215,-0.008327980525791645,0.020276380702853203
1768421447153378600,1.361378662109375,0.006522784009575844,-0.009968221187591553,0.023707598447799683
1768421447163378400,1.37137841796875,0.009262697771191597,-0.011978870257735252,0.02538120746612549
1768421447173378600,1.381378662109375,0.011184700764715672,-0.013702468015253544,0.024619009345769882
1768421447183377400,1.39137744140625,0.009498425759375095,-0.011058197356760502,0.02222868800163269
1768421447193377500,1.40137744140625,0.011079544201493263,-0.012832394801080227,0.015971589833498
1768421447203377400,1.41137744140625,0.011491597630083561,-0.01495862752199173,0.010479701682925224
1768421447213377500,1.42137744140625,0.00862869992852211,-0.017401810735464096,0.008572345599532127
1768421447223377400,1.43137744140625,0.008106525987386703,-0.017924964427947998,0.010622290894389153
1768421447233377500,1.44137744140625,0.005867340601980686,-0.016099635511636734,0.009848643094301224
1768421447243377400,1.45137744140625,0.008431673049926758,-0.011834215372800827,0.007275219075381756
1768421447253377500,1.46137744140625,0.010235166177153587,-0.013105608522891998,0.007252848241478205
1768421447263377400,1.47137744140625,0.01138028409332037,-0.012845700606703758,0.008604271337389946
1768421447273377500,1.48137744140625,0.008166381157934666,-0.013018272817134857,0.008482031524181366
1768421447283377400,1.49137744140625,0.007287338376045227,-0.012723137624561787,0.008952994830906391
1768421447293377300,1.501377197265625,0.004468382336199284,-0.011303672567009926,0.007040578871965408
1768421447303377400,1.51137744140625,0.005440053064376116,-0.010350986383855343,0.005302233621478081
1768421447313376500,1.52137646484375,0.007051798515021801,-0.009961898438632488,0.004606083035469055
1768421447323376400,1.53137646484375,0.009458547458052635,-0.01132343802601099,0.005777059588581324
1768421447333376800,1.541376708984375,0.010966428555548191,-0.009851242415606976,0.009452488273382187
1768421447343376600,1.551376708984375,0.013027841225266457,-0.007829828187823296,0.010296516120433807
1768421447353376500,1.56137646484375,0.009640567004680634,-0.007848735898733139,0.01164301112294197
1768421447363376600,1.571376708984375,0.008951529860496521,-0.007927726954221725,0.014347695745527744
1768421447373376500,1.58137646484375,0.0067466991022229195,-0.009722430258989334,0.016355186700820923
1768421447383376600,1.591376708984375,0.005040695890784264,-0.011960404925048351,0.018229493871331215
1768421447393376500,1.60137646484375,0.004098203033208847,-0.015637164935469627,0.021891873329877853
1768421447403376600,1.611376708984375,0.005555787589401007,-0.015337808057665825,0.028321940451860428
1768421447413376500,1.62137646484375,0.008910039439797401,-0.017065666615962982,0.02858133241534233
1768421447423376600,1.631376708984375,0.01155086699873209,-0.016272293403744698,0.025564633309841156
1768421447433376500,1.64137646484375,0.012775122188031673,-0.016505053266882896,0.02396274171769619
1768421447443375600,1.651375732421875,0.012579498812556267,-0.012920510023832321,0.029329288750886917
1768421447453375500,1.66137548828125,0.014095902442932129,-0.007970226928591728,0.035769879817962646
1768421447463375600,1.671375732421875,0.015786947682499886,-0.0052849967032670975,0.03812482953071594
1768421447473375500,1.68137548828125,0.016913997009396553,-0.0012276708148419857,0.03504115715622902
1768421447483375600,1.691375732421875,0.014902873896062374,0.0005235336720943451,0.03325317054986954
1768421447493375500,1.70137548828125,0.008634058758616447,-0.002278644358739257,0.03391043841838837
1768421447503375600,1.711375732421875,0.004132251720875502,-0.005397206172347069,0.03649956360459328
1768421447513375500,1.72137548828125,0.0018523195758461952,-0.009247338399291039,0.04090842604637146
1768421447523375600,1.731375732421875,0.0015800483524799347,-0.014181286096572876,0.04607569798827171
1768421447533375500,1.74137548828125,0.008020903915166855,-0.01764179766178131,0.049638472497463226
1768421447543375600,1.751375732421875,0.015178320929408073,-0.01621558517217636,0.042513392865657806
1768421447553375700,1.761375732421875,0.02347060665488243,-0.011164634488523006,0.030772579833865166
1768421447563375600,1.771375732421875,0.027142705395817757,-0.0028495187871158123,0.021060224622488022
1768421447573375700,1.781375732421875,0.028332870453596115,-0.00040207337588071823,0.013896053656935692
1768421447583374600,1.79137451171875,0.024378210306167603,0.0003617932088673115,0.013812239281833172
1768421447593374500,1.80137451171875,0.019766414538025856,-0.0007239778060466051,0.010444672778248787
1768421447603374600,1.81137451171875,0.011893711052834988,-0.008777182549238205,0.01165979728102684
1768421447613374700,1.821374755859375,0.006345546804368496,-0.01801941730082035,0.015118710696697235
1768421447623374600,1.83137451171875,0.0069244420155882835,-0.021327363327145576,0.021561434492468834
1768421447633374700,1.841374755859375,0.009201444685459137,-0.023863226175308228,0.02394123561680317
1768421447643374600,1.85137451171875,0.012073231860995293,-0.022446636110544205,0.026863735169172287
1768421447653374700,1.861374755859375,0.013272453099489212,-0.020647138357162476,0.021378688514232635
1768421447663374600,1.87137451171875,0.011540214531123638,-0.017565257847309113,0.016535185277462006
1768421447673374700,1.881374755859375,0.012772991321980953,-0.014925267547369003,0.009732140228152275
1768421447683374600,1.89137451171875,0.009003572165966034,-0.018415197730064392,0.008467204868793488
1768421447693374700,1.901374755859375,0.006524168886244297,-0.021916188299655914,0.012672069482505322
1768421447703373600,1.91137353515625,0.006459686439484358,-0.02283700741827488,0.021067671477794647
1768421447713373700,1.921373779296875,0.007574485614895821,-0.023168304935097694,0.026657113805413246
1768421447723373600,1.93137353515625,0.01083269715309143,-0.02289515547454357,0.029527796432375908
1768421447733373700,1.941373779296875,0.013927290216088295,-0.023999834433197975,0.03164447844028473
1768421447743373600,1.95137353515625,0.016547013074159622,-0.02570824697613716,0.02745860442519188
1768421447753373700,1.961373779296875,0.017638375982642174,-0.02919938415288925,0.024221796542406082
1768421447763373600,1.97137353515625,0.01572759635746479,-0.029910430312156677,0.022464506328105927
1768421447773373700,1.981373779296875,0.0173001941293478,-0.0314774364233017,0.02555270865559578
1768421447783373600,1.99137353515625,0.021984580904245377,-0.030022870749235153,0.031092491000890732
1768421447793373700,2.001373779296875,0.02320803701877594,-0.026491250842809677,0.03708992898464203
1768421447803373600,2.01137353515625,0.02409886009991169,-0.024179629981517792,0.0397300124168396
1768421447813373400,2.02137353515625,0.021493757143616676,-0.020891692489385605,0.0402730293571949
1768421447823373600,2.03137353515625,0.016954854130744934,-0.015907254070043564,0.03176644816994667
1768421447833373400,2.04137353515625,0.013539083302021027,-0.010377200320363045,0.025967679917812347
1768421447843372500,2.05137255859375,0.010432662442326546,-0.009579876437783241,0.021996725350618362
1768421447853372700,2.06137255859375,0.007859515957534313,-0.008415276184678078,0.022918447852134705
1768421447863372500,2.07137255859375,0.0097010163590312,-0.005682109389454126,0.028821613639593124
1768421447873372700,2.08137255859375,0.014453694224357605,-0.001516659278422594,0.03541000932455063
1768421447883372500,2.09137255859375,0.018901487812399864,0.003738981205970049,0.03526168689131737
1768421447893372400,2.101372314453125,0.0212197694927454,0.006110259797424078,0.03767770528793335
1768421447903372500,2.11137255859375,0.02311975695192814,0.011351807042956352,0.036640465259552
1768421447913372400,2.121372314453125,0.02228592149913311,0.015763333067297935,0.03403216600418091
1768421447923372500,2.13137255859375,0.01930462196469307,0.017861686646938324,0.03250692039728165
1768421447933372400,2.141372314453125,0.01877065747976303,0.015026219189167023,0.03025095723569393
1768421447943372500,2.15137255859375,0.015148017555475235,0.013409577310085297,0.028183650225400925
1768421447953372700,2.16137255859375,0.01442150678485632,0.011406879872083664,0.02905796654522419
1768421447963372800,2.171372802734375,0.010647408664226532,0.010818781331181526,0.02833058312535286
1768421447973371400,2.181371337890625,0.009485205635428429,0.0039246566593647,0.02935989573597908
1768421447983371500,2.19137158203125,0.008184346370398998,-0.005716198123991489,0.03385286033153534
1768421447993371400,2.201371337890625,0.007997658103704453,-0.01586497202515602,0.041829027235507965
1768421448003371800,2.211371826171875,0.012748909182846546,-0.023709101602435112,0.043649617582559586
1768421448013371600,2.22137158203125,0.02435816079378128,-0.025300607085227966,0.04541689157485962
1768421448023371800,2.231371826171875,0.04547005519270897,-0.020273907110095024,0.044206440448760986
1768421448033371600,2.24137158203125,0.0674656331539154,-0.005657413508743048,0.04060424864292145
1768421448043371800,2.251371826171875,0.08865019679069519,0.013473760336637497,0.03591907024383545
1768421448053371600,2.26137158203125,0.10083255916833878,0.03702196106314659,0.033851124346256256
1768421448063371800,2.271371826171875,0.0996604859828949,0.05970050022006035,0.03299751505255699
1768421448073371600,2.28137158203125,0.09463004767894745,0.0766587108373642,0.029221951961517334
1768421448083371500,2.29137158203125,0.08956766873598099,0.08722399920225143,0.012454073876142502
1768421448093370600,2.30137060546875,0.08445972204208374,0.09405554085969925,-0.009865079075098038
1768421448103370800,2.311370849609375,0.07528455555438995,0.09915787726640701,-0.03416921943426132
1768421448113370600,2.32137060546875,0.07033826410770416,0.12045810371637344,-0.051394011825323105
1768421448123370800,2.331370849609375,0.07169173657894135,0.16255365312099457,-0.06088908016681671
1768421448133370600,2.34137060546875,0.07165444642305374,0.1877112090587616,-0.07183786481618881
1768421448143370800,2.351370849609375,0.056591615080833435,0.1946554034948349,-0.09753692895174026
1768421448153370600,2.36137060546875,0.043000441044569016,0.20567555725574493,-0.1314442902803421
1768421448163370500,2.37137060546875,0.037590038031339645,0.21631252765655518,-0.15604230761528015
1768421448173370600,2.38137060546875,0.03702571615576744,0.22196641564369202,-0.15830519795417786
1768421448183370500,2.39137060546875,0.034259945154190063,0.21493777632713318,-0.1375008523464203
1768421448193370600,2.40137060546875,0.035283397883176804,0.2071690708398819,-0.11516039818525314
1768421448203370500,2.41137060546875,0.04708633944392204,0.20261961221694946,-0.09944935142993927
1768421448213370600,2.42137060546875,0.06168152764439583,0.2017623484134674,-0.08771280199289322
1768421448223369500,2.431369384765625,0.06935509294271469,0.19721351563930511,-0.08717015385627747
1768421448233369600,2.44136962890625,0.07115326076745987,0.19252341985702515,-0.1021570935845375
1768421448243369500,2.451369384765625,0.06841755658388138,0.18961958587169647,-0.12611551582813263
1768421448253369600,2.46136962890625,0.05916893109679222,0.2025604099035263,-0.14774730801582336
1768421448263369500,2.471369384765625,0.044990334659814835,0.23893670737743378,-0.18003132939338684
1768421448273369600,2.48136962890625,0.023529252037405968,0.2880541682243347,-0.2197771519422531
1768421448283369500,2.491369384765625,-0.004141239449381828,0.34104564785957336,-0.2594163715839386
1768421448293369600,2.50136962890625,-0.03509782254695892,0.3817763030529022,-0.2855078876018524
1768421448303369500,2.511369384765625,-0.06750153005123138,0.3987526297569275,-0.2891368567943573
1768421448313369600,2.52136962890625,-0.09260022640228271,0.4124636650085449,-0.25927484035491943
1768421448323369500,2.531369384765625,-0.11144162714481354,0.4210015833377838,-0.2131202220916748
1768421448333369900,2.541369873046875,-0.11689791083335876,0.4293668568134308,-0.15579888224601746
1768421448343368700,2.55136865234375,-0.11161316186189651,0.421825647354126,-0.0984930768609047
1768421448353368800,2.561368896484375,-0.09595537185668945,0.4104885756969452,-0.05543296039104462
1768421448363368700,2.57136865234375,-0.068278968334198,0.3983154296875,-0.042691320180892944
1768421448373368800,2.581368896484375,-0.03667869418859482,0.3903523087501526,-0.06669385731220245
1768421448383368700,2.59136865234375,-0.004334033466875553,0.37914738059043884,-0.09066244214773178
1768421448393368800,2.601368896484375,0.023960454389452934,0.3645156919956207,-0.10326505452394485
1768421448403368700,2.61136865234375,0.051960282027721405,0.3575003445148468,-0.11314275860786438
1768421448413368600,2.62136865234375,0.08260687440633774,0.34804025292396545,-0.11314275860786438
1768421448423368700,2.63136865234375,0.10604172945022583,0.2999148368835449,-0.1107867956161499
1768421448433368600,2.64136865234375,0.12691159546375275,0.23977215588092804,-0.10477737337350845
1768421448443368700,2.65136865234375,0.14511355757713318,0.17245452105998993,-0.10935444384813309
1768421448453368600,2.66136865234375,0.15422557294368744,0.10068020969629288,-0.12142416089773178
1768421448463368700,2.67136865234375,0.15414544939994812,0.018462054431438446,-0.1366112232208252
1768421448473367800,2.681367919921875,0.15678225457668304,-0.05625985562801361,-0.1385878324508667
1768421448483367700,2.69136767578125,0.15847870707511902,-0.12587939202785492,-0.12625612318515778
1768421448493367600,2.701367431640625,0.1578081250190735,-0.18857233226299286,-0.10739240795373917
1768421448503367700,2.71136767578125,0.14817963540554047,-0.23304025828838348,-0.07295501977205276
1768421448513367600,2.721367431640625,0.14229963719844818,-0.2629677951335907,-0.037805553525686264
1768421448523367700,2.73136767578125,0.13055643439292908,-0.2928151488304138,-0.008774703368544579
1768421448533367600,2.741367431640625,0.12007049471139908,-0.32498908042907715,0.020841510966420174
1768421448543367700,2.75136767578125,0.10089929401874542,-0.34024563431739807,0.05072037875652313
1768421448553367600,2.761367431640625,0.0925859734416008,-0.347160279750824,0.07527365535497665
1768421448563367700,2.77136767578125,0.08054842799901962,-0.3572002649307251,0.08956930786371231
1768421448573367600,2.781367431640625,0.061356887221336365,-0.37130409479141235,0.09650151431560516
1768421448583367700,2.79136767578125,0.03766237571835518,-0.3841114044189453,0.10597280412912369
1768421448593366500,2.801366455078125,0.011516524478793144,-0.39009952545166016,0.1278133988380432
1768421448603366700,2.81136669921875,-0.011763391084969044,-0.3964386284351349,0.14304253458976746
1768421448613366500,2.821366455078125,-0.03102896548807621,-0.3957462012767792,0.14430193603038788
1768421448623366700,2.83136669921875,-0.044479094445705414,-0.3950064182281494,0.14147186279296875
1768421448633366500,2.841366455078125,-0.051644593477249146,-0.39806053042411804,0.1395338773727417
1768421448643366700,2.85136669921875,-0.05825221911072731,-0.41045263409614563,0.14192093908786774
1768421448653366800,2.86136669921875,-0.06679964065551758,-0.4188557267189026,0.14728109538555145
1768421448663367000,2.871366943359375,-0.08559803664684296,-0.44015392661094666,0.14038608968257904
1768421448673366800,2.88136669921875,-0.11779458820819855,-0.4701879918575287,0.12237299978733063
1768421448683366700,2.89136669921875,-0.15335515141487122,-0.5137677788734436,0.10016681998968124
1768421448693366800,2.90136669921875,-0.19426077604293823,-0.5704869627952576,0.08243576437234879
1768421448703366700,2.91136669921875,-0.22845084965229034,-0.6245015859603882,0.07887788116931915
1768421448713366800,2.92136669921875,-0.25514957308769226,-0.6807984113693237,0.07409670948982239
1768421448723366000,2.931365966796875,-0.27877935767173767,-0.7353231310844421,0.06652641296386719
1768421448733365800,2.94136572265625,-0.30074456334114075,-0.7737738490104675,0.06172739714384079
1768421448743366000,2.951365966796875,-0.3218839466571808,-0.7908681631088257,0.05931191146373749
1768421448753365800,2.96136572265625,-0.3368482291698456,-0.8031845092773438,0.06316576898097992
1768421448763365600,2.97136572265625,-0.34902140498161316,-0.823595404624939,0.06961113959550858
1768421448773365800,2.98136572265625,-0.3499050438404083,-0.8417659401893616,0.07355288416147232
1768421448783365600,2.99136572265625,-0.35148322582244873,-0.8712400794029236,0.0632215291261673
1768421448793365800,3.00136572265625,-0.3667125105857849,-0.895488977432251,0.03867197781801224
1768421448803365600,3.01136572265625,-0.39249175786972046,-0.9302652478218079,-0.008217559196054935
1768421448813365800,3.02136572265625,-0.409187912940979,-0.9665766358375549,-0.061491698026657104
1768421448823365600,3.03136572265625,-0.3851282596588135,-0.9248897433280945,-0.07719762623310089
1768421448833365800,3.04136572265625,-0.29554539918899536,-0.7664330005645752,0.0070512015372514725
1768421448843364600,3.051364501953125,-0.13937754929065704,-0.5892494916915894,0.2614617943763733
1768421448853364700,3.06136474609375,0.013738488778471947,-0.6312859058380127,0.40115976333618164
1768421448863364600,3.071364501953125,0.0048211244866251945,-0.7048924565315247,0.17713746428489685
1768421448873364700,3.08136474609375,-0.02832377888262272,-0.4795845150947571,-0.09112940728664398
1768421448883364600,3.091364501953125,0.09344863146543503,-0.2333507090806961,-0.1877111792564392
1768421448893364700,3.10136474609375,0.17913450300693512,-0.16148345172405243,-0.252917617559433
1768421448903364600,3.111364501953125,0.13420410454273224,-0.2041693478822708,-0.3146660327911377
1768421448913364700,3.12136474609375,0.058093082159757614,-0.31469160318374634,-0.24885666370391846
1768421448923364600,3.131364501953125,0.0045536961406469345,-0.43689262866973877,-0.014600830152630806
1768421448933364700,3.14136474609375,-0.009860662743449211,-0.48830467462539673,0.3204285502433777
1768421448943364600,3.151364501953125,0.00027409172616899014,-0.4679579436779022,0.6254846453666687
1768421448953364700,3.16136474609375,0.02859627641737461,-0.4293128252029419,0.7273896932601929
1768421448963364600,3.171364501953125,0.08079276978969574,-0.4298008978366852,0.5853530764579773
1768421448973363700,3.18136376953125,0.09655788540840149,-0.4314272701740265,0.35063719749450684
1768421448983363600,3.191363525390625,0.07319802790880203,-0.42678365111351013,0.19654768705368042
1768421448993363700,3.20136376953125,0.06271395832300186,-0.48271721601486206,0.10065951198339462
1768421449003363600,3.211363525390625,0.018996231257915497,-0.5579679608345032,0.020532578229904175
1768421449013363700,3.22136376953125,-0.054658014327287674,-0.6281121373176575,-0.04826566204428673
1768421449023363600,3.231363525390625,-0.09944503754377365,-0.6541255116462708,-0.09285441040992737
1768421449033363500,3.241363525390625,-0.11950822919607162,-0.624433159828186,-0.0754205584526062
1768421449043363600,3.251363525390625,-0.11365433037281036,-0.561012864112854,-0.005785554647445679
1768421449053363700,3.26136376953125,-0.1145789846777916,-0.49152040481567383,0.09040596336126328
1768421449063363800,3.27136376953125,-0.13224276900291443,-0.43922126293182373,0.1561289131641388
1768421449073363700,3.28136376953125,-0.14244267344474792,-0.4030526280403137,0.15288305282592773
1768421449083363800,3.29136376953125,-0.146019846200943,-0.34880495071411133,0.0919862687587738
1768421449093362700,3.30136279296875,-0.1504926234483719,-0.2663729190826416,0.011112723499536514
1768421449103362800,3.31136279296875,-0.1488000601530075,-0.171349436044693,-0.06229057535529137
1768421449113362700,3.32136279296875,-0.12459325790405273,-0.08094628900289536,-0.10948552191257477
1768421449123362800,3.33136279296875,-0.10262034833431244,-0.014434393495321274,-0.1290292590856552
1768421449133362700,3.34136279296875,-0.09487348049879074,0.02819509245455265,-0.12963007390499115
1768421449143362800,3.35136279296875,-0.09315315634012222,0.042053207755088806,-0.11959674954414368
1768421449153362700,3.36136279296875,-0.10361432284116745,0.038311999291181564,-0.09953223168849945
1768421449163362800,3.37136279296875,-0.11281188577413559,0.014862827956676483,-0.064376100897789
1768421449173362700,3.38136279296875,-0.1222434714436531,-0.01485485304147005,-0.015445046126842499
1768421449183362800,3.39136279296875,-0.12291856110095978,-0.04870827868580818,0.03902225196361542
1768421449193362700,3.40136279296875,-0.11667957901954651,-0.08698642998933792,0.08480625599622726
1768421449203362800,3.41136279296875,-0.11069834232330322,-0.12401074171066284,0.1058722585439682
1768421449213361700,3.421361572265625,-0.11175162345170975,-0.14971904456615448,0.10751702636480331
1768421449223361800,3.43136181640625,-0.11544733494520187,-0.15643981099128723,0.11103421449661255
1768421449233361700,3.441361572265625,-0.12946514785289764,-0.14952383935451508,0.12892986834049225
1768421449243361800,3.45136181640625,-0.1426677703857422,-0.11418236792087555,0.1595040112733841
1768421449253361700,3.461361572265625,-0.14752298593521118,-0.05785943940281868,0.19940562546253204
1768421449263361800,3.47136181640625,-0.13796749711036682,-0.009807862341403961,0.23168732225894928
1768421449273361700,3.481361572265625,-0.1279420256614685,0.043483857065439224,0.25487467646598816
1768421449283361800,3.49136181640625,-0.11450271308422089,0.1008220836520195,0.26733824610710144
1768421449293361700,3.501361572265625,-0.10128118097782135,0.16665595769882202,0.2807382047176361
1768421449303361500,3.511361572265625,-0.08135372400283813,0.2102922946214676,0.28512564301490784
1768421449313361700,3.521361572265625,-0.07431845366954803,0.20853860676288605,0.2774381637573242
1768421449323361500,3.531361572265625,-0.07764311879873276,0.17173439264297485,0.260283499956131
1768421449333361200,3.541361083984375,-0.0641251802444458,0.09680795669555664,0.22069132328033447
1768421449343360300,3.5513603515625,-0.03885849937796593,0.030965132638812065,0.15765810012817383
1768421449353360100,3.561360107421875,0.0029416787438094616,-0.008636072278022766,0.10092584788799286
1768421449363360300,3.5713603515625,0.0543358288705349,-0.022745944559574127,0.0724971741437912
1768421449373360000,3.581360107421875,0.11299354583024979,-0.01615275628864765,0.07167452573776245
1768421449383360300,3.5913603515625,0.1644969880580902,-0.0032991128973662853,0.07555316388607025
1768421449393360100,3.601360107421875,0.2106972336769104,0.007931703701615334,0.07930449396371841
1768421449403360300,3.6113603515625,0.24801577627658844,0.027819743379950523,0.08807148039340973
1768421449413360000,3.621360107421875,0.2817561626434326,0.05853504687547684,0.10080138593912125
1768421449423360000,3.631360107421875,0.3072926998138428,0.08942720293998718,0.10404293984174728
1768421449433360400,3.6413603515625,0.32786959409713745,0.1156311109662056,0.10080692917108536
1768421449443360300,3.6513603515625,0.34144866466522217,0.13933636248111725,0.09379324316978455
1768421449453360400,3.6613603515625,0.33581823110580444,0.1699584573507309,0.08706635981798172
1768421449463359200,3.671359130859375,0.34289291501045227,0.2100341022014618,0.08124689012765884
1768421449473359400,3.681359375,0.36730557680130005,0.255894273519516,0.06690630316734314
1768421449483359200,3.691359130859375,0.3894185721874237,0.3009618818759918,0.03514903783798218
1768421449493359400,3.701359375,0.42791616916656494,0.34986817836761475,-0.04173482581973076
1768421449503359200,3.711359130859375,0.4014642536640167,0.40599358081817627,-0.1385394185781479
1768421449513359400,3.721359375,0.31732967495918274,0.46228617429733276,-0.23863139748573303
1768421449523359200,3.731359130859375,0.2052733451128006,0.5179035663604736,-0.3414336144924164
1768421449533359400,3.741359375,0.07237016409635544,0.5957555174827576,-0.44399622082710266
1768421449543359200,3.751359130859375,-0.05330490320920944,0.6522130370140076,-0.5050231218338013
1768421449553359400,3.761359375,-0.15030521154403687,0.6558940410614014,-0.4933166205883026
1768421449563359200,3.771359130859375,-0.21083272993564606,0.5583173632621765,-0.3634009063243866
1768421449573359400,3.781359375,-0.2779073715209961,0.4994337856769562,-0.01142686977982521
1768421449583358200,3.791358154296875,-0.34099969267845154,0.36370205879211426,0.36209559440612793
1768421449593358300,3.8013583984375,-0.44340941309928894,0.035420604050159454,0.39107105135917664
1768421449603358200,3.811358154296875,-0.7021772265434265,-0.37551000714302063,0.2835063338279724
1768421449613358300,3.8213583984375,-0.9624063968658447,-0.7300311326980591,0.15596488118171692
1768421449623358200,3.831358154296875,-0.9284818768501282,-0.8882333040237427,-0.13332173228263855
1768421449633358300,3.8413583984375,-0.6736013889312744,-0.7904505133628845,-0.44247400760650635
1768421449643358200,3.851358154296875,-0.4019533097743988,-0.5358813405036926,-0.5537212491035461
1768421449653358300,3.8613583984375,-0.07715736329555511,-0.21248331665992737,-0.48552650213241577
1768421449663358200,3.871358154296875,0.22613175213336945,0.09071402251720428,-0.3911663889884949
1768421449673358000,3.881358154296875,0.4016657769680023,0.2511923909187317,-0.3601360321044922
1768421449683358200,3.891358154296875,0.4570528268814087,0.24214933812618256,-0.4014948010444641
1768421449693358000,3.901358154296875,0.4179437756538391,0.12761902809143066,-0.4565487504005432
1768421449703357200,3.911357177734375,0.3373181223869324,-0.03561295568943024,-0.4449695348739624
1768421449713357300,3.921357421875,0.2438608705997467,-0.2513447105884552,-0.3474605679512024
1768421449723357200,3.931357177734375,0.16288188099861145,-0.5085774064064026,-0.18498127162456512
1768421449733357300,3.941357421875,0.09879504144191742,-0.7937998175621033,-0.07249840348958969
1768421449743357200,3.951357177734375,0.07958254218101501,-1.0259722471237183,-0.055678412318229675
1768421449753357000,3.961357177734375,0.1314270943403244,-1.1465812921524048,-0.08155502378940582
1768421449763357200,3.971357177734375,0.21350400149822235,-1.1551390886306763,-0.11366849392652512
1768421449773357000,3.981357177734375,0.28979557752609253,-1.096746802330017,-0.1331559121608734
1768421449783357200,3.991357177734375,0.355511337518692,-1.0258506536483765,-0.14002902805805206
1768421449793357000,4.001357177734375,0.41419222950935364,-0.9705146551132202,-0.12223538011312485
1768421449803357200,4.011357177734375,0.44687941670417786,-0.9338716864585876,-0.08928555995225906
1768421449813357000,4.021357177734375,0.4517167806625366,-0.8851073384284973,-0.039294831454753876
1768421449823357400,4.031357421875,0.42834433913230896,-0.8227951526641846,0.0037296938244253397
1768421449833356000,4.04135595703125,0.38057228922843933,-0.7590987682342529,0.027439551427960396
1768421449843356200,4.051356201171875,0.3120976984500885,-0.6992661952972412,0.04121445119380951
1768421449853356000,4.06135595703125,0.2476087212562561,-0.6510611176490784,0.04941245913505554
1768421449863356200,4.071356201171875,0.1870601624250412,-0.5906059741973877,0.04664907604455948
1768421449873356300,4.081356201171875,0.1503615379333496,-0.5367715358734131,0.03839327394962311
1768421449883356400,4.0913564453125,0.12482656538486481,-0.4679292142391205,0.02174060046672821
1768421449893356300,4.101356201171875,0.10653943568468094,-0.4006628394126892,0.0023402709048241377
1768421449903356400,4.1113564453125,0.08499385416507721,-0.3595404624938965,-0.017823580652475357
1768421449913356300,4.121356201171875,0.056780856102705,-0.3520822823047638,-0.04298272728919983
1768421449923356400,4.1313564453125,0.02742055058479309,-0.3597251772880554,-0.05345461145043373
1768421449933356300,4.141356201171875,0.011394180357456207,-0.37247613072395325,-0.04148423299193382
1768421449943356200,4.151356201171875,0.00005907309241592884,-0.3844621479511261,-0.00925950612872839
1768421449953355300,4.161355224609375,-0.01299947127699852,-0.3828919529914856,0.025738157331943512
1768421449963355400,4.17135546875,-0.01824241876602173,-0.367885947227478,0.05188886821269989
1768421449973355300,4.181355224609375,-0.0052216919139027596,-0.32444366812705994,0.0689685195684433
1768421449983355400,4.19135546875,0.006146082654595375,-0.263925701379776,0.08864474296569824
1768421449993355300,4.201355224609375,0.001573701505549252,-0.22394448518753052,0.10218878090381622
1768421450003355400,4.21135546875,-0.031410060822963715,-0.20345370471477509,0.10619290918111801
1768421450013355300,4.221355224609375,-0.08099199831485748,-0.19625438749790192,0.10277687758207321
1768421450023355100,4.231355224609375,-0.13871818780899048,-0.17702145874500275,0.09098802506923676
1768421450033355300,4.241355224609375,-0.17518724501132965,-0.1497935801744461,0.08016946166753769
1768421450043355100,4.251355224609375,-0.17881955206394196,-0.130154088139534,0.06442636251449585
1768421450053355300,4.261355224609375,-0.1770445555448532,-0.11637035757303238,0.049955543130636215
1768421450063355100,4.271355224609375,-0.17791879177093506,-0.08492664992809296,0.050487369298934937
1768421450073354200,4.281354248046875,-0.19770048558712006,-0.011283056810498238,0.05309886485338211
1768421450083354000,4.29135400390625,-0.24600866436958313,0.0895330160856247,0.04567783698439598
1768421450093354200,4.301354248046875,-0.2929106652736664,0.07547019422054291,0.027483919635415077
1768421450103354000,4.31135400390625,-0.3178764283657074,-0.19567807018756866,-0.03316826373338699
1768421450113354200,4.321354248046875,-0.35577455163002014,-0.5155847072601318,-0.10665739327669144
1768421450123354000,4.33135400390625,-0.4238375723361969,-0.7243528962135315,-0.1633700579404831
1768421450133354200,4.341354248046875,-0.48789751529693604,-0.8124774098396301,-0.24166806042194366
1768421450143354000,4.35135400390625,-0.48471492528915405,-0.833838701248169,-0.3391885757446289
1768421450153354200,4.361354248046875,-0.4103453457355499,-0.8486160635948181,-0.40543895959854126
1768421450163354000,4.37135400390625,-0.30588364601135254,-0.8363387584686279,-0.3960864245891571
1768421450173354200,4.381354248046875,-0.1739698201417923,-0.7423632740974426,-0.25852617621421814
1768421450183354000,4.39135400390625,-0.002544216811656952,-0.5911707878112793,0.07430700957775116
1768421450193353200,4.401353271484375,0.23345285654067993,-0.3678516447544098,0.500893235206604
1768421450203353000,4.41135302734375,0.414706289768219,-0.3129705488681793,0.6101230382919312
1768421450213353200,4.421353271484375,0.2822140157222748,-0.22569744288921356,0.3851892352104187
1768421450223353000,4.43135302734375,0.1365414261817932,0.14402465522289276,0.16287842392921448
1768421450233353200,4.441353271484375,0.18428950011730194,0.3452877104282379,0.04586578160524368
1768421450243353000,4.45135302734375,0.1950630396604538,0.18792004883289337,-0.06625113636255264
1768421450253353200,4.461353271484375,0.09618200361728668,-0.12691538035869598,-0.11524105072021484
1768421450263353000,4.47135302734375,0.002575444057583809,-0.5066303014755249,-0.09817661345005035
1768421450273353200,4.481353271484375,-0.06934428215026855,-0.83073490858078,-0.11788134276866913
1768421450283353300,4.491353271484375,-0.1226503849029541,-0.9972721934318542,-0.115715391933918
1768421450293353200,4.501353271484375,-0.13241221010684967,-1.0629481077194214,-0.05530824512243271
1768421450303353300,4.511353271484375,-0.10888779908418655,-1.1069692373275757,-0.01935293897986412
1768421450313352400,4.5213525390625,-0.08674361556768417,-1.0912656784057617,-0.02933286875486374
1768421450323352300,4.531352294921875,-0.059849318116903305,-1.0293464660644531,-0.003286230843514204
1768421450333352400,4.5413525390625,-0.030379842966794968,-0.942369818687439,0.06600256264209747
1768421450343352300,4.551352294921875,-0.004543239250779152,-0.8171249628067017,0.11667885631322861
1768421450353352200,4.561352294921875,0.015305832959711552,-0.6784078478813171,0.09685055911540985
1768421450363352300,4.571352294921875,0.031094474717974663,-0.5286040306091309,0.04066874831914902
1768421450373352200,4.581352294921875,0.04864364117383957,-0.386149138212204,0.0004904391244053841
1768421450383352300,4.591352294921875,0.05891774967312813,-0.29883521795272827,-0.023270022124052048
1768421450393352200,4.601352294921875,0.05485110357403755,-0.23496145009994507,-0.0460970401763916
1768421450403352300,4.611352294921875,0.03472098335623741,-0.19253236055374146,-0.07591843605041504
1768421450413352200,4.621352294921875,-0.0017675182316452265,-0.16743765771389008,-0.08396970480680466
1768421450423352300,4.631352294921875,-0.05585358291864395,-0.1811656951904297,-0.0548066720366478
1768421450433352400,4.6413525390625,-0.11147130280733109,-0.2189365029335022,-0.016782324761152267
1768421450443351300,4.651351318359375,-0.15375305712223053,-0.24721239507198334,-0.0018119830638170242
1768421450453351200,4.66135107421875,-0.16972190141677856,-0.2702079713344574,-0.0217681135982275
1768421450463351300,4.671351318359375,-0.16015879809856415,-0.2834117114543915,-0.05527719855308533
1768421450473351200,4.68135107421875,-0.1508939266204834,-0.28385430574417114,-0.07612708956003189
1768421450483351600,4.6913515625,-0.14298035204410553,-0.2586565613746643,-0.07232865691184998
1768421450493351400,4.701351318359375,-0.13657225668430328,-0.22426238656044006,-0.05192245543003082
1768421450503351600,4.7113515625,-0.11833851039409637,-0.1957745999097824,-0.021184198558330536
1768421450513351400,4.721351318359375,-0.08233204483985901,-0.16697730123996735,0.013403871096670628
1768421450523351600,4.7313515625,-0.047088779509067535,-0.14491736888885498,0.05119503289461136
1768421450533351400,4.741351318359375,-0.008767757564783096,-0.13398350775241852,0.08924467861652374
1768421450543351300,4.751351318359375,0.028884509578347206,-0.12672655284404755,0.11357583850622177
1768421450553351400,4.761351318359375,0.04720013588666916,-0.11300273984670639,0.11231909692287445
1768421450563350500,4.7713505859375,0.05161089822649956,-0.0978180393576622,0.09537447243928909
1768421450573350400,4.781350341796875,0.046122655272483826,-0.0726327896118164,0.07724447548389435
1768421450583350500,4.7913505859375,0.04444875195622444,-0.0294004175812006,0.065621517598629
1768421450593350400,4.801350341796875,0.04261409863829613,0.034231022000312805,0.06485079973936081
1768421450603350500,4.8113505859375,0.055550701916217804,0.11213862150907516,0.06934314966201782
1768421450613350400,4.821350341796875,0.07412279397249222,0.18429456651210785,0.08129408210515976
1768421450623350300,4.831350341796875,0.08935396373271942,0.24464432895183563,0.08791165798902512
1768421450633350400,4.841350341796875,0.09244295954704285,0.2830905318260193,0.08562320470809937
1768421450643350300,4.851350341796875,0.07780423760414124,0.3211442232131958,0.07979779690504074
1768421450653350400,4.861350341796875,0.05375855416059494,0.35779041051864624,0.07730667293071747
1768421450663350300,4.871350341796875,0.031271036714315414,0.4110201895236969,0.061161063611507416
1768421450673350400,4.881350341796875,0.011673900298774242,0.4687817394733429,0.027087783440947533
1768421450683349200,4.891349365234375,0.0028578676283359528,0.522186279296875,-0.0051336511969566345
1768421450693349400,4.901349365234375,0.003982787020504475,0.5593611001968384,-0.01817062497138977
1768421450703349200,4.911349365234375,0.003748989664018154,0.5793697237968445,-0.035895250737667084
1768421450713349400,4.921349365234375,0.002746309619396925,0.5812957286834717,-0.06736822426319122
1768421450723349200,4.931349365234375,-0.013297601602971554,0.5585776567459106,-0.09353072196245193
1768421450733349400,4.941349365234375,-0.03081001713871956,0.5137646198272705,-0.09402979910373688
1768421450743349200,4.951349365234375,-0.04439185559749603,0.4347422122955322,-0.0690813884139061
1768421450753349400,4.961349365234375,-0.050614599138498306,0.32584822177886963,-0.05120864883065224
1768421450763349200,4.971349365234375,-0.06173926219344139,0.2270682156085968,-0.045837562531232834
1768421450773349400,4.981349365234375,-0.11703100800514221,0.18895651400089264,-0.060591477900743484
1768421450783349200,4.991349365234375,-0.18720071017742157,0.18193593621253967,-0.15443168580532074
1768421450793349400,5.001349365234375,-0.21635699272155762,0.2636587619781494,-0.3260447382926941
1768421450803348200,5.01134814453125,-0.24024613201618195,0.42006948590278625,-0.48700228333473206
1768421450813348400,5.021348388671875,-0.2494683861732483,0.6359690427780151,-0.5489423274993896
1768421450823348200,5.03134814453125,-0.20860926806926727,0.8072018027305603,-0.48620888590812683
1768421450833348400,5.041348388671875,-0.17410162091255188,0.7896201610565186,-0.36153167486190796
1768421450843348200,5.05134814453125,-0.24993251264095306,0.6303993463516235,-0.3615591526031494
1768421450853348400,5.061348388671875,-0.44449853897094727,0.41412827372550964,-0.6000266075134277
1768421450863348200,5.07134814453125,-0.66013503074646,0.24713274836540222,-0.7332984805107117
1768421450873348400,5.081348388671875,-0.8960314393043518,0.08951569348573685,-0.5368775725364685
1768421450883348500,5.091348388671875,-1.044321060180664,-0.029610861092805862,-0.32356852293014526
1768421450893348400,5.101348388671875,-0.880382239818573,0.06870771944522858,-0.32444924116134644
1768421450903348500,5.111348388671875,-0.5587772130966187,0.3660805821418762,-0.4099833071231842
1768421450913348400,5.121348388671875,-0.23235704004764557,0.6904440522193909,-0.438801109790802
1768421450923347200,5.13134716796875,0.0434119813144207,1.072243571281433,-0.329476535320282
1768421450933347600,5.14134765625,0.25133800506591797,1.437696933746338,-0.19332829117774963
1768421450943347500,5.151347412109375,0.3964328467845917,1.7062398195266724,-0.1283821165561676
1768421450953347300,5.161347412109375,0.46102195978164673,1.8079744577407837,-0.1952572762966156
1768421450963347500,5.171347412109375,0.4350380003452301,1.718109369277954,-0.3525387942790985
1768421450973347300,5.181347412109375,0.3344235122203827,1.5167250633239746,-0.40791818499565125
1768421450983347500,5.191347412109375,0.23225386440753937,1.259427785873413,-0.2656984329223633
1768421450993347300,5.201347412109375,0.1390054076910019,0.9612621068954468,-0.006324383895844221
1768421451003347500,5.211347412109375,0.0690402016043663,0.6528670191764832,0.2171880304813385
1768421451013347300,5.221347412109375,0.03858988359570503,0.39316514134407043,0.2985270619392395
1768421451023347500,5.231347412109375,0.06284316629171371,0.24817100167274475,0.23632869124412537
1768421451033347300,5.241347412109375,0.1437651664018631,0.2105434536933899,0.11453699320554733
1768421451043346400,5.251346435546875,0.2176319658756256,0.23895205557346344,-0.0015156827867031097
1768421451053346300,5.26134619140625,0.23874257504940033,0.2922784090042114,-0.07954709976911545
1768421451063346400,5.271346435546875,0.22256729006767273,0.3353068232536316,-0.0990975871682167
1768421451073346300,5.28134619140625,0.19472260773181915,0.39323800802230835,-0.07032772153615952
1768421451083346400,5.291346435546875,0.17221218347549438,0.4536595344543457,-0.023775219917297363
1768421451093346300,5.30134619140625,0.15728703141212463,0.5279934406280518,0.0319700688123703
1768421451103346400,5.311346435546875,0.1391439288854599,0.6061456799507141,0.10155043751001358
1768421451113346300,5.32134619140625,0.11961311101913452,0.7049031853675842,0.1790662705898285
1768421451123346400,5.331346435546875,0.10017937421798706,0.7996704578399658,0.2613289952278137
1768421451133346300,5.34134619140625,0.0878199115395546,0.8821182250976562,0.3364173471927643
1768421451143346400,5.351346435546875,0.07987640053033829,0.9482786655426025,0.3992427587509155
1768421451153346300,5.36134619140625,0.05417077988386154,0.9790789484977722,0.43713662028312683
1768421451163345400,5.371345458984375,0.02036524936556816,0.9945546984672546,0.44332271814346313
1768421451173345300,5.38134521484375,-0.0026708266232162714,1.001052975654602,0.4191476106643677
1768421451183345400,5.391345458984375,-0.02491120435297489,1.0183416604995728,0.371014803647995
1768421451193345300,5.40134521484375,-0.04054875299334526,1.0337245464324951,0.30956289172172546
1768421451203345400,5.411345458984375,-0.0529305636882782,1.0384669303894043,0.25218257308006287
1768421451213345300,5.42134521484375,-0.058919742703437805,1.0362218618392944,0.22154662013053894
1768421451223345200,5.43134521484375,-0.0621931329369545,1.0367861986160278,0.21662898361682892
1768421451233345300,5.44134521484375,-0.0687413141131401,1.0251843929290771,0.23110538721084595
1768421451243345200,5.45134521484375,-0.08725601434707642,1.0009169578552246,0.25171229243278503
1768421451253345300,5.46134521484375,-0.1133323609828949,0.9735990762710571,0.2666102647781372
1768421451263345200,5.47134521484375,-0.14019587635993958,0.9446042776107788,0.25113219022750854
1768421451273345500,5.481345458984375,-0.16730950772762299,0.9284541010856628,0.20979805290699005
1768421451283344400,5.491344482421875,-0.1873674988746643,0.9265055060386658,0.15710075199604034
1768421451293344300,5.50134423828125,-0.20878437161445618,0.9165580868721008,0.11433597654104233
1768421451303344000,5.51134423828125,-0.2354460507631302,0.8894055485725403,0.08775314688682556
1768421451313344300,5.52134423828125,-0.2680378258228302,0.8560351133346558,0.0664965957403183
1768421451323344400,5.531344482421875,-0.3063787817955017,0.8255583047866821,0.055506326258182526
1768421451333344000,5.541343994140625,-0.35204505920410156,0.7820582389831543,0.050684940069913864
1768421451343343900,5.55134375,-0.4303492307662964,0.6866375207901001,0.055031418800354004
1768421451353344000,5.561343994140625,-0.534460186958313,0.5536597967147827,0.06605717539787292
1768421451363344000,5.57134375,-0.6179946064949036,0.5163054466247559,0.11815811693668365
1768421451373344000,5.581343994140625,-0.6173378825187683,0.6034379601478577,0.14577323198318481
1768421451383344000,5.59134423828125,-0.5235267281532288,0.7000902891159058,0.08145128935575485
1768421451393344300,5.60134423828125,-0.3925934433937073,0.7528352737426758,-0.015951691195368767
1768421451403342800,5.6113427734375,-0.30798277258872986,0.7726210355758667,-0.07949380576610565
1768421451413343000,5.621343017578125,-0.27943742275238037,0.7831879258155823,-0.09234674274921417
1768421451423342800,5.6313427734375,-0.2776908278465271,0.7950331568717957,-0.054743535816669464
1768421451433343200,5.64134326171875,-0.23829708993434906,0.8371308445930481,0.03168216720223427
1768421451443343000,5.651343017578125,-0.1355784684419632,0.9364429116249084,0.1595035344362259
1768421451453343200,5.66134326171875,0.0174182690680027,1.1110913753509521,0.38856521248817444
1768421451463343000,5.671343017578125,0.15863001346588135,1.1811624765396118,0.6741735935211182
1768421451473343200,5.68134326171875,0.1991734355688095,1.2200385332107544,0.8203569054603577
1768421451483343000,5.691343017578125,0.1585458219051361,1.2981855869293213,0.6980715990066528
1768421451493343200,5.70134326171875,0.09631865471601486,1.3829060792922974,0.4441559910774231
1768421451503343000,5.711343017578125,0.06731784343719482,1.4903100728988647,0.21020425856113434
1768421451513343000,5.721343017578125,0.04017677530646324,1.615917444229126,-0.02702772617340088
1768421451523342000,5.731342041015625,-0.006651737727224827,1.6824567317962646,-0.1869862973690033
1768421451533342200,5.74134228515625,-0.008917022496461868,1.7743618488311768,-0.12791286408901215
1768421451543342000,5.751342041015625,0.04933870583772659,1.8319664001464844,0.06070204824209213
1768421451553342200,5.76134228515625,0.0980316773056984,1.7582011222839355,0.20651358366012573
1768421451563342000,5.771342041015625,0.11369255185127258,1.6424942016601562,0.2747465670108795
1768421451573342200,5.78134228515625,0.09599132090806961,1.5775480270385742,0.3048032522201538
1768421451583342000,5.791342041015625,0.06482718139886856,1.537081003189087,0.3067217469215393
1768421451593342000,5.801342041015625,0.02795252576470375,1.4825382232666016,0.26383286714553833
1768421451603342000,5.811342041015625,-0.009107347577810287,1.4066071510314941,0.1781385838985443
1768421451613342000,5.821342041015625,-0.030822498723864555,1.3333419561386108,0.07891000807285309
1768421451623342000,5.831342041015625,-0.04594499245285988,1.2910960912704468,-0.013001928105950356
1768421451633342000,5.841342041015625,-0.044902361929416656,1.3045130968093872,-0.037002868950366974
1768421451643341000,5.851341064453125,-0.03250424936413765,1.337262511253357,0.012800327502191067
1768421451653341000,5.8613408203125,-0.025750471279025078,1.3796124458312988,0.08784394711256027
1768421451663341000,5.871341064453125,-0.03695787116885185,1.430632472038269,0.1319439709186554
1768421451673341000,5.8813408203125,-0.06433489918708801,1.4907786846160889,0.1524263322353363
1768421451683341000,5.891341064453125,-0.10343408584594727,1.5456900596618652,0.17127598822116852
1768421451693341000,5.9013408203125,-0.14719834923744202,1.5941492319107056,0.17310291528701782
1768421451703341000,5.911341064453125,-0.19361895322799683,1.650671124458313,0.14961248636245728
1768421451713341000,5.9213408203125,-0.23033276200294495,1.7090648412704468,0.11369044333696365
1768421451723341000,5.931341064453125,-0.2639768719673157,1.7616722583770752,0.08588898181915283
1768421451733341000,5.9413408203125,-0.2948967218399048,1.8005783557891846,0.06518210470676422
1768421451743341000,5.951341064453125,-0.33063554763793945,1.817950963973999,0.04891006276011467
1768421451753341000,5.9613408203125,-0.3594765365123749,1.8435678482055664,0.0507870577275753
1768421451763340000,5.971340087890625,-0.3700212836265564,1.8892765045166016,0.06571351736783981
1768421451773340000,5.98133984375,-0.36057719588279724,1.9319541454315186,0.09588819742202759
1768421451783340000,5.991340087890625,-0.33921191096305847,1.9664465188980103,0.13536888360977173
1768421451793340000,6.00133984375,-0.3138982951641083,2.0029520988464355,0.18059974908828735
1768421451803340000,6.011340087890625,-0.2877984046936035,2.0264828205108643,0.21273425221443176
1768421451813340000,6.02133984375,-0.26612985134124756,2.022578239440918,0.23119580745697021
1768421451823340300,6.03134033203125,-0.2600918412208557,1.9904496669769287,0.24163097143173218
1768421451833340200,6.041340087890625,-0.252939373254776,1.9403414726257324,0.24534448981285095
1768421451843340000,6.051340087890625,-0.24059028923511505,1.862496018409729,0.24653524160385132
1768421451853340200,6.061340087890625,-0.22131778299808502,1.771168828010559,0.2353598177433014
1768421451863340000,6.071340087890625,-0.18986345827579498,1.667028546333313,0.20332057774066925
1768421451873340200,6.081340087890625,-0.15044334530830383,1.5647709369659424,0.15535226464271545
1768421451883340000,6.091340087890625,-0.11214620620012283,1.4508610963821411,0.10253739356994629
1768421451893339100,6.101339111328125,-0.07635439187288284,1.316606044769287,0.05969352275133133
1768421451903339300,6.11133935546875,-0.04493112489581108,1.178331971168518,0.03057919442653656
1768421451913339100,6.121339111328125,-0.014907978475093842,1.0438615083694458,0.007215815130621195
1768421451923339000,6.131339111328125,0.01685577630996704,0.9283825755119324,-0.005242316052317619
1768421451933339100,6.141339111328125,0.06413966417312622,0.836347758769989,-0.010920974425971508
1768421451943339000,6.151339111328125,0.10973233729600906,0.7537477612495422,-0.023801187053322792
1768421451953339100,6.161339111328125,0.14194858074188232,0.6825990080833435,-0.03722564876079559
1768421451963339000,6.171339111328125,0.16435123980045319,0.619563639163971,-0.062090709805488586
1768421451973339100,6.181339111328125,0.1853521317243576,0.5633981227874756,-0.09346620738506317
1768421451983339000,6.191339111328125,0.206831693649292,0.5144662857055664,-0.12407273054122925
1768421451993339100,6.201339111328125,0.2233523577451706,0.5059502720832825,-0.13178017735481262
1768421452003339000,6.211339111328125,0.24060016870498657,0.5277407169342041,-0.14373882114887238
1768421452013338000,6.221338134765625,0.2535415589809418,0.5655613541603088,-0.17252440750598907
1768421452023338000,6.231337890625,0.262008935213089,0.6033813953399658,-0.19284364581108093
1768421452033338000,6.241338134765625,0.26550835371017456,0.6083234548568726,-0.22159886360168457
1768421452043338000,6.251337890625,0.26928719878196716,0.5231696367263794,-0.2511548101902008
1768421452053338000,6.261338134765625,0.28472578525543213,0.3719252943992615,-0.23165859282016754
1768421452063338000,6.271337890625,0.3128396272659302,0.3393828868865967,-0.16056522727012634
1768421452073338000,6.281338134765625,0.33511751890182495,0.44811496138572693,-0.18524180352687836
1768421452083338000,6.291337890625,0.3329619765281677,0.6160097122192383,-0.2985069155693054
1768421452093338000,6.301338134765625,0.28341707587242126,0.7917690277099609,-0.42591333389282227
1768421452103338000,6.311337890625,0.19555756449699402,0.93443763256073,-0.5366188883781433
1768421452113338000,6.321338134765625,0.09398885071277618,1.0265613794326782,-0.6174197196960449
1768421452123338000,6.331337890625,0.007122984621673822,1.0949475765228271,-0.6081088781356812
1768421452133337000,6.341337158203125,-0.05248788371682167,1.0553327798843384,-0.46505871415138245
1768421452143337000,6.3513369140625,-0.1623692363500595,0.8593165278434753,-0.31126776337623596
1768421452153337000,6.361337158203125,-0.3538779318332672,0.5760365724563599,-0.28029200434684753
1768421452163337000,6.3713369140625,-0.5794805288314819,0.2953926622867584,-0.30998486280441284
1768421452173337000,6.381337158203125,-0.6680348515510559,0.10861371457576752,-0.2940245270729065
1768421452183337000,6.3913369140625,-0.5479480028152466,0.0755799189209938,-0.31225499510765076
1768421452193337000,6.401337158203125,-0.40725401043891907,0.21558095514774323,-0.42157670855522156
1768421452203337000,6.4113369140625,-0.22479009628295898,0.4657960534095764,-0.590523362159729
1768421452213336800,6.4213369140625,-0.00410087127238512,0.7826008796691895,-0.7234270572662354
1768421452223337200,6.431337158203125,0.16392484307289124,1.0934264659881592,-0.7336430549621582
1768421452233337000,6.441337158203125,0.24674250185489655,1.275303602218628,-0.6774479746818542
1768421452243337200,6.451337158203125,0.2146022766828537,1.3085116147994995,-0.6097082495689392
1768421452253336000,6.461336181640625,0.09489452093839645,1.1953860521316528,-0.5469542741775513
1768421452263336000,6.4713359375,-0.039137810468673706,0.9916452765464783,-0.45410066843032837
1768421452273336000,6.481336181640625,-0.14559102058410645,0.7526904940605164,-0.29128673672676086
1768421452283336200,6.491336181640625,-0.20917384326457977,0.4808630347251892,-0.07803083956241608
1768421452293336000,6.501336181640625,-0.2150871306657791,0.1566590964794159,0.0836840271949768
1768421452303336200,6.511336181640625,-0.18959611654281616,-0.17613665759563446,0.1311720311641693
1768421452313336000,6.521336181640625,-0.14164617657661438,-0.45339810848236084,0.05909838154911995
1768421452323336200,6.531336181640625,-0.060003817081451416,-0.6553599238395691,-0.08220097422599792
1768421452333336000,6.541336181640625,0.03780902922153473,-0.7377163171768188,-0.23524990677833557
1768421452343336200,6.551336181640625,0.10612671077251434,-0.7347390055656433,-0.3562193810939789
1768421452353336000,6.561336181640625,0.1404639035463333,-0.6694478988647461,-0.43267500400543213
1768421452363336200,6.571336181640625,0.1571498066186905,-0.5745536088943481,-0.4700239598751068
1768421452373336000,6.581336181640625,0.17336951196193695,-0.48799315094947815,-0.46424463391304016
1768421452383335200,6.591335205078125,0.18166415393352509,-0.43143558502197266,-0.41250699758529663
1768421452393335000,6.6013349609375,0.1986016035079956,-0.43293121457099915,-0.3249041736125946
1768421452403335200,6.611335205078125,0.22675149142742157,-0.42673259973526,-0.2075021117925644
1768421452413335000,6.6213349609375,0.24743333458900452,-0.4287233054637909,-0.0801960900425911
1768421452423335200,6.631335205078125,0.2616064250469208,-0.4267372488975525,0.03988208249211311
1768421452433335000,6.6413349609375,0.25360894203186035,-0.4317522346973419,0.13664750754833221
1768421452443335200,6.651335205078125,0.23933139443397522,-0.4380475878715515,0.18543371558189392
1768421452453335000,6.6613349609375,0.22338491678237915,-0.43546780943870544,0.18105760216712952
1768421452463335000,6.6713349609375,0.20921690762043,-0.45586612820625305,0.14092588424682617
1768421452473335000,6.6813349609375,0.19404807686805725,-0.48406341671943665,0.09037882089614868
1768421452483335000,6.6913349609375,0.18397164344787598,-0.5153018236160278,0.05453769862651825
1768421452493335000,6.7013349609375,0.17093892395496368,-0.5669559240341187,0.0231840331107378
1768421452503334100,6.711334228515625,0.14698275923728943,-0.6111337542533875,-0.009376974776387215
1768421452513334000,6.721333984375,0.11352574080228806,-0.648685097694397,-0.028218308463692665
1768421452523334100,6.731334228515625,0.07726248353719711,-0.6741660237312317,-0.029417872428894043
1768421452533334000,6.741333984375,0.04691922664642334,-0.6927953958511353,-0.014021605253219604
1768421452543334000,6.751333984375,0.01356266625225544,-0.7155274152755737,-0.000475205946713686
1768421452553334000,6.761333984375,-0.03710557147860527,-0.7572559714317322,-0.007085438352078199
1768421452563334000,6.771333984375,-0.09101124852895737,-0.8070917129516602,-0.015379266813397408
1768421452573334000,6.781333984375,-0.14004430174827576,-0.8303906321525574,-0.002191559411585331
1768421452583334000,6.791333984375,-0.16965103149414062,-0.8110932111740112,0.045219507068395615
1768421452593334000,6.801333984375,-0.16602382063865662,-0.7688347101211548,0.10913723707199097
1768421452603334000,6.811333984375,-0.1511380821466446,-0.7284317016601562,0.17186890542507172
1768421452613334300,6.821334228515625,-0.1420535147190094,-0.6938268542289734,0.23255355656147003
1768421452623332900,6.831332763671875,-0.17525677382946014,-0.6094540953636169,0.2896411120891571
1768421452633333000,6.8413330078125,-0.23965919017791748,-0.4069127142429352,0.3281285762786865
1768421452643332900,6.851332763671875,-0.2469390332698822,-0.4318200945854187,0.27596133947372437
1768421452653333000,6.8613330078125,-0.19052821397781372,-0.7543238997459412,0.20017819106578827
1768421452663333000,6.8713330078125,-0.12131227552890778,-0.9406948685646057,0.18151023983955383
1768421452673333200,6.881333251953125,-0.07497113943099976,-0.9812284708023071,0.12090174853801727
1768421452683333000,6.8913330078125,-0.05053750053048134,-1.0080971717834473,-0.028346939012408257
1768421452693333200,6.901333251953125,0.012537872418761253,-1.0925960540771484,-0.17359627783298492
1768421452703333000,6.9113330078125,0.09839461743831635,-1.183627963066101,-0.2761017382144928
1768421452713333200,6.921333251953125,0.12839245796203613,-1.2460477352142334,-0.3813256323337555
1768421452723333000,6.9313330078125,0.09758993238210678,-1.3282889127731323,-0.4598087966442108
1768421452733333000,6.9413330078125,0.06920942664146423,-1.404152512550354,-0.470064640045166
1768421452743333000,6.9513330078125,0.06678705662488937,-1.3864837884902954,-0.3946055471897125
1768421452753332200,6.961332275390625,0.11019711196422577,-1.322862982749939,-0.22254136204719543
1768421452763332000,6.97133203125,0.17394784092903137,-1.2420225143432617,0.09928678721189499
1768421452773332200,6.981332275390625,0.2298755645751953,-1.1910737752914429,0.45775917172431946
1768421452783332000,6.99133203125,0.17352409660816193,-1.0813250541687012,0.4249439835548401
1768421452793332200,7.001332275390625,0.10481029003858566,-0.8667814135551453,0.08613105863332748
1768421452803332000,7.01133203125,0.15601789951324463,-0.5898175239562988,-0.20054778456687927
1768421452813332000,7.02133203125,0.3206758499145508,-0.5124928951263428,-0.31351855397224426
1768421452823332000,7.03133203125,0.35581186413764954,-0.6355399489402771,-0.3694763481616974
1768421452833332000,7.04133203125,0.29041582345962524,-0.8327991962432861,-0.28366371989250183
1768421452843332000,7.05133203125,0.2336188107728958,-1.206497311592102,-0.1442137062549591
1768421452853332000,7.06133203125,0.18949688971042633,-1.5491482019424438,-0.001270391047000885
1768421452863332000,7.07133203125,0.1366821825504303,-1.7103674411773682,0.17751967906951904
1768421452873331000,7.0813310546875,0.17492491006851196,-1.8299055099487305,0.3069327771663666
1768421452883331000,7.0913310546875,0.225265771150589,-1.8799328804016113,0.29340991377830505
1768421452893331000,7.1013310546875,0.2198086977005005,-1.7907356023788452,0.1464172750711441
1768421452903331000,7.1113310546875,0.191806823015213,-1.621488332748413,0.0757245272397995
1768421452913331000,7.1213310546875,0.17863403260707855,-1.4408423900604248,0.1872854083776474
1768421452923331000,7.1313310546875,0.18574674427509308,-1.2450124025344849,0.3147098422050476
1768421452933331000,7.1413310546875,0.1820412129163742,-1.0489816665649414,0.2958349585533142
1768421452943331000,7.1513310546875,0.14179444313049316,-0.8556874394416809,0.2053227424621582
1768421452953331000,7.1613310546875,0.09552761912345886,-0.6927749514579773,0.15104325115680695
1768421452963331000,7.1713310546875,0.037350356578826904,-0.5739434957504272,0.1459292620420456
1768421452973331000,7.1813310546875,-0.03787782043218613,-0.479520320892334,0.1778496354818344
1768421452983331000,7.1913310546875,-0.0993938148021698,-0.4062003791332245,0.21610255539417267
1768421452993331000,7.2013310546875,-0.11603883653879166,-0.33784422278404236,0.2632788419723511
1768421453003330000,7.211330078125,-0.10874038189649582,-0.2612541913986206,0.3477713167667389
1768421453013330000,7.221329833984375,-0.06925422698259354,-0.17456857860088348,0.4466691315174103
1768421453023330000,7.231330078125,-0.03060084395110607,-0.11896632611751556,0.5128076076507568
1768421453033330000,7.241329833984375,0.00590550247579813,-0.07084034383296967,0.5363033413887024
1768421453043330000,7.251330078125,0.031507458537817,-0.020960291847586632,0.5285417437553406
1768421453053330000,7.261329833984375,0.03618130460381508,0.011265022680163383,0.4988967776298523
1768421453063330000,7.271330078125,0.019089458510279655,0.0277584046125412,0.4671638011932373
1768421453073330200,7.281330078125,0.0030329939909279346,0.027333363890647888,0.447672963142395
1768421453083330000,7.291330078125,-0.0010942979715764523,0.016318034380674362,0.4322902262210846
1768421453093330200,7.301330078125,-0.005654429085552692,-0.017554447054862976,0.41094473004341125
1768421453103330000,7.311330078125,-0.01737639494240284,-0.06610323488712311,0.39350733160972595
1768421453113330200,7.321330078125,-0.033662956207990646,-0.09677193313837051,0.3958706259727478
1768421453123330000,7.331330078125,-0.03356635197997093,-0.09141022711992264,0.4091455936431885
1768421453133329200,7.3413291015625,-0.029180658981204033,-0.038018904626369476,0.4029691815376282
1768421453143329000,7.3513291015625,-0.008647209033370018,0.057145003229379654,0.3625722825527191
1768421453153329200,7.3613291015625,0.023248672485351562,0.16170284152030945,0.27818337082862854
1768421453163329000,7.3713291015625,0.0582953579723835,0.24102948606014252,0.1610213965177536
1768421453173329200,7.3813291015625,0.08295729756355286,0.2902388572692871,0.03556254506111145
1768421453183329000,7.3913291015625,0.09997432678937912,0.312828004360199,-0.07517581433057785
1768421453193329200,7.4013291015625,0.1220969408750534,0.33592480421066284,-0.13523516058921814
1768421453203329000,7.4113291015625,0.14278128743171692,0.3600696325302124,-0.13615648448467255
1768421453213329200,7.4213291015625,0.15037421882152557,0.36649850010871887,-0.08970057219266891
1768421453223329000,7.4313291015625,0.16134214401245117,0.3480280041694641,-0.018044689670205116
1768421453233329200,7.4413291015625,0.1590920388698578,0.3147760331630707,0.05950789153575897
1768421453243329000,7.4513291015625,0.1500520557165146,0.24927711486816406,0.13578501343727112
1768421453253328100,7.461328125,0.11260774731636047,0.17291095852851868,0.2403540313243866
1768421453263328000,7.471327880859375,0.028278600424528122,0.13139578700065613,0.35588526725769043
1768421453273328000,7.481328125,-0.061596691608428955,0.11913806945085526,0.35324183106422424
1768421453283328000,7.491327880859375,-0.12817516922950745,0.18250998854637146,0.2330920547246933
1768421453293328100,7.501328125,-0.1634064018726349,0.30077189207077026,0.11292675882577896
1768421453303328000,7.511327880859375,-0.1562519371509552,0.429352730512619,0.07846328616142273
1768421453313328000,7.521328125,-0.13155218958854675,0.48995137214660645,0.11920725554227829
1768421453323328000,7.531327880859375,-0.11732367426156998,0.486884206533432,0.24290798604488373
1768421453333328100,7.541328125,-0.14103087782859802,0.4645810127258301,0.4394354224205017
1768421453343328300,7.551328369140625,-0.19783887267112732,0.4585747718811035,0.692520797252655
1768421453353328000,7.561328125,-0.1724562644958496,0.4899041950702667,0.9355632662773132
1768421453363328300,7.571328369140625,-0.0657086968421936,0.5234019160270691,1.077153205871582
1768421453373328100,7.581328125,0.056130118668079376,0.5310598015785217,1.0845131874084473
1768421453383327200,7.5913271484375,0.15627610683441162,0.5107125639915466,1.0007365942001343
1768421453393327400,7.601327392578125,0.21580521762371063,0.6106109023094177,0.8742641806602478
1768421453403327200,7.6113271484375,0.26636746525764465,0.5114282965660095,0.7269676327705383
1768421453413327000,7.6213271484375,0.3001030683517456,0.5567558407783508,0.6230154037475586
1768421453423327200,7.6313271484375,0.3194393515586853,0.5785618424415588,0.5708349347114563
1768421453433327000,7.6413271484375,0.33558371663093567,0.6244851350784302,0.6047276258468628
1768421453443327200,7.6513271484375,0.33846965432167053,0.6457511186599731,0.7309001088142395
1768421453453327000,7.6613271484375,0.3255397379398346,0.6437526345252991,0.901671826839447
1768421453463327200,7.6713271484375,0.32134076952934265,0.6469724774360657,1.0592604875564575
1768421453473327000,7.6813271484375,0.33233457803726196,0.6407744884490967,1.1711516380310059
1768421453483327200,7.6913271484375,0.34844091534614563,0.6050184965133667,1.2469011545181274
1768421453493327000,7.7013271484375,0.35395339131355286,0.5528543591499329,1.2872581481933594
1768421453503327200,7.7113271484375,0.36203381419181824,0.4912000894546509,1.296882152557373
1768421453513326000,7.721326171875,0.3706129193305969,0.425955593585968,1.290300965309143
1768421453523326200,7.731326171875,0.382413387298584,0.392366886138916,1.3034006357192993
1768421453533326000,7.741326171875,0.396603524684906,0.37896105647087097,1.3375228643417358
1768421453543326200,7.751326171875,0.4036996364593506,0.3557487726211548,1.3583494424819946
1768421453553326000,7.761326171875,0.3900749087333679,0.3202626705169678,1.3515937328338623
1768421453563326200,7.771326171875,0.3729369342327118,0.2906499207019806,1.3420394659042358
1768421453573326000,7.781326171875,0.3535501956939697,0.2594560384750366,1.3595504760742188
1768421453583326500,7.791326416015625,0.3366019129753113,0.21665802597999573,1.400475263595581
1768421453593326300,7.801326416015625,0.3272757828235626,0.19422487914562225,1.453136920928955
1768421453603326200,7.811326171875,0.30825167894363403,0.15980881452560425,1.5244853496551514
1768421453613326300,7.821326416015625,0.3435436487197876,0.19406560063362122,1.5441230535507202
1768421453623326200,7.831326171875,0.36017975211143494,0.18869805335998535,1.5662109851837158
1768421453633325300,7.8413251953125,0.3860670030117035,0.18494673073291779,1.5793358087539673
1768421453643325400,7.851325439453125,0.3916477859020233,0.16308118402957916,1.5876678228378296
1768421453653325300,7.8613251953125,0.38072988390922546,0.14184993505477905,1.6205350160598755
1768421453663325200,7.8713251953125,0.3582274913787842,0.11327150464057922,1.649886965751648
1768421453673325300,7.8813251953125,0.33637145161628723,0.04924165457487106,1.6596463918685913
1768421453683325200,7.8913251953125,0.31282833218574524,-0.05474834889173508,1.688511610031128
1768421453693325300,7.9013251953125,0.27936145663261414,-0.1756257712841034,1.7646710872650146
1768421453703325200,7.9113251953125,0.25733640789985657,-0.26253625750541687,1.8306212425231934
1768421453713325300,7.9213251953125,0.24954241514205933,-0.3426329493522644,1.8572883605957031
1768421453723325200,7.9313251953125,0.31635913252830505,-0.39442670345306396,1.8593217134475708
1768421453733325300,7.9413251953125,0.37880733609199524,-0.4055584669113159,1.910839557647705
1768421453743325200,7.9513251953125,0.43164682388305664,-0.4448186457157135,2.028473377227783
1768421453753325300,7.9613251953125,0.5066369771957397,-0.43767285346984863,2.1307735443115234
1768421453763324200,7.97132421875,0.5607587695121765,-0.413705438375473,2.173013210296631
1768421453773324300,7.98132421875,0.5783239006996155,-0.3678585886955261,2.165132522583008
1768421453783324200,7.99132421875,0.5635751485824585,-0.26241016387939453,2.167296886444092
1768421453793324300,8.00132421875,0.5109114050865173,-0.17203126847743988,2.2170321941375732
1768421453803324200,8.01132421875,0.41460826992988586,-0.0499124675989151,2.327280282974243
1768421453813324300,8.02132421875,0.35358670353889465,0.03884536400437355,2.4688613414764404
1768421453823324200,8.03132421875,0.3219481110572815,0.1526111364364624,2.633065700531006
1768421453833324300,8.04132421875,0.31822076439857483,0.24864578247070312,2.73195481300354
1768421453843324200,8.05132421875,0.3474581837654114,0.35950741171836853,2.7427492141723633
1768421453853324300,8.06132421875,0.40129637718200684,0.543522834777832,2.7531707286834717
1768421453863324200,8.07132421875,0.4853103458881378,0.7416521310806274,2.7779078483581543
1768421453873324000,8.081323974609376,0.5785545706748962,0.877533495426178,2.8016247749328613
1768421453883324200,8.09132421875,0.6273167133331299,0.9229639768600464,2.8136818408966064
1768421453893324000,8.101323974609375,0.6597234010696411,0.9102367162704468,2.822878122329712
1768421453903323100,8.1113232421875,0.7329935431480408,0.8100188970565796,2.8496811389923096
1768421453913323300,8.1213232421875,0.8059420585632324,0.587110161781311,2.8933823108673096
1768421453923323100,8.1313232421875,0.9184193015098572,0.2925786077976227,2.9169468879699707
1768421453933323300,8.1413232421875,1.0578371286392212,0.05483771115541458,2.947234630584717
1768421453943323100,8.1513232421875,1.1625823974609375,-0.2998882830142975,2.941781520843506
1768421453953323000,8.161322998046876,1.1786972284317017,-0.6316326260566711,2.8405325412750244
1768421453963323100,8.1713232421875,1.1091340780258179,-0.7516301870346069,2.744175672531128
1768421453973323300,8.1813232421875,0.9463759064674377,-0.6835097074508667,2.7578039169311523
1768421453983323400,8.191323486328125,0.7082758545875549,-0.7397984266281128,2.8340189456939697
1768421453993323300,8.2013232421875,0.5165138840675354,-1.0905479192733765,2.8932881355285645
1768421454003323400,8.211323486328125,0.3200310170650482,-1.2905776500701904,2.894878387451172
1768421454013323300,8.2213232421875,0.15290912985801697,-1.0545510053634644,2.9794211387634277
1768421454023323400,8.231323486328124,0.10557198524475098,-0.42586496472358704,3.0962424278259277
1768421454033322200,8.241322265625,0.15600240230560303,0.2857431471347809,3.1229851245880127
1768421454043322400,8.251322265625,0.15946312248706818,0.8723748922348022,2.9487340450286865
1768421454053322200,8.261322265625,0.05145782232284546,1.3063156604766846,2.78193998336792
1768421454063322400,8.271322265625,-0.13486234843730927,1.904130220413208,2.5778799057006836
1768421454073322200,8.281322265625,-0.26417267322540283,3.2351720333099365,2.1498398780822754
1768421454083322400,8.291322265625,-0.12964005768299103,4.096040725708008,1.4759912490844727
1768421454093322200,8.301322265625,0.12152798473834991,4.515965938568115,1.1836440563201904
1768421454103322400,8.311322265625,0.4532216191291809,5.4501752853393555,1.0522303581237793
1768421454113322200,8.321322265625,0.5110718607902527,6.353470802307129,1.0706709623336792
1768421454123322400,8.331322265625,0.3409857749938965,6.454133033752441,1.572246789932251
1768421454133322200,8.341322265625,0.12183533608913422,6.1151862144470215,1.9682385921478271
1768421454143322000,8.351322021484375,-0.12044426053762436,5.253860950469971,1.5743803977966309
1768421454153321200,8.3613212890625,-0.22010239958763123,4.182849884033203,0.745893120765686
1768421454163321300,8.3713212890625,-0.34674519300460815,3.307971715927124,-0.25268542766571045
1768421454173321200,8.3813212890625,-0.47807472944259644,3.410576343536377,-0.15122562646865845
1768421454183321300,8.3913212890625,-0.5655778050422668,1.6511256694793701,-0.646961510181427
1768421454193321200,8.4013212890625,-0.45786863565444946,0.4870704114437103,-0.6126282811164856
1768421454203321300,8.4113212890625,0.1369447559118271,0.32812678813934326,-0.08044634014368057
1768421454213321200,8.4213212890625,1.484124779701233,2.0024895668029785,0.2507915198802948
1768421454223321000,8.431321044921875,2.6673994064331055,0.38424137234687805,0.6375666260719299
1768421454233321200,8.4413212890625,1.343987226486206,-0.8928316831588745,0.003744677407667041
1768421454243321000,8.451321044921874,0.43061506748199463,-1.6205005645751953,0.6346758604049683
1768421454253321200,8.4613212890625,0.3042038679122925,-0.054925091564655304,1.1110942363739014
1768421454263321000,8.471321044921876,0.11776243150234222,0.30465176701545715,0.15319442749023438
1768421454273321200,8.4813212890625,0.360629141330719,0.04110027477145195,0.6306509971618652
1768421454283320000,8.491320068359375,0.5397193431854248,-0.3342503011226654,0.49347275495529175
1768421454293320200,8.5013203125,0.8558490872383118,-0.03083447925746441,0.1010218933224678
1768421454303320000,8.511320068359375,0.8062224984169006,0.04956308752298355,-0.5520312786102295
1768421454313320200,8.5213203125,0.4515243470668793,-0.8252376317977905,-0.6146501898765564
1768421454323320000,8.531320068359374,-0.14337240159511566,-1.6776994466781616,-0.05100018531084061
1768421454333320200,8.5413203125,-0.40354326367378235,-1.8329558372497559,0.3971429765224457
1768421454343320600,8.551320556640626,-0.4160213768482208,-1.448207139968872,0.47027429938316345
1768421454353320700,8.56132080078125,-0.12869881093502045,-0.8190677762031555,0.2854735851287842
1768421454363320600,8.571320556640625,0.15243332087993622,-0.5634132027626038,0.12385610491037369
1768421454373320700,8.58132080078125,0.10523678362369537,-0.41869065165519714,-0.00892750732600689
1768421454383320600,8.591320556640625,-0.19022081792354584,-0.4967990815639496,-0.12166664749383926
1768421454393320700,8.60132080078125,-0.3939974009990692,-0.38194653391838074,-0.2089751809835434
1768421454403320800,8.61132080078125,-0.3451310992240906,-0.4873271584510803,-0.17848969995975494
1768421454413319700,8.621319580078126,-0.1840929239988327,-0.7020016312599182,-0.046952180564403534
1768421454423319600,8.631319580078125,-0.08053990453481674,-0.9556806683540344,0.036064263433218
1768421454433319700,8.641319580078125,-0.06925822049379349,-1.1610691547393799,0.09590496122837067
1768421454443319800,8.65131982421875,-0.09411672502756119,-1.153894305229187,0.20435306429862976
1768421454453319700,8.661319580078125,-0.09123784303665161,-1.1168055534362793,0.2377951741218567
1768421454463319800,8.67131982421875,-0.08186614513397217,-1.1226123571395874,0.20285825431346893
1768421454473319700,8.681319580078124,-0.045573651790618896,-1.2865568399429321,0.22586823999881744
1768421454483319800,8.69131982421875,-0.06156286969780922,-1.5240145921707153,0.2289125621318817
1768421454493319700,8.701319580078126,-0.283203661441803,-1.7743881940841675,0.21105234324932098
1768421454503319800,8.71131982421875,-0.7126781940460205,-2.125515937805176,0.11165376752614975
1768421454513319700,8.721319580078125,-0.8532534241676331,-2.388190269470215,0.010196647606790066
1768421454523319800,8.73131982421875,-0.5829759836196899,-2.74958872795105,-0.14268775284290314
1768421454533319700,8.741319580078125,-0.09512665122747421,-3.124462842941284,-0.2400081753730774
1768421454543318800,8.75131884765625,-0.05755425989627838,-3.293911933898926,-0.3034713566303253
1768421454553318700,8.761318603515624,-0.2367977797985077,-3.658320665359497,-0.5197637677192688
1768421454563318800,8.77131884765625,-0.08362440019845963,-3.531008720397949,-0.5333045721054077
1768421454573318700,8.781318603515626,0.17101293802261353,-2.7795984745025635,-0.3842506408691406
1768421454583318800,8.79131884765625,0.3271327018737793,-1.975576639175415,-0.18851777911186218
1768421454593318700,8.801318603515625,0.3565196096897125,-1.421094298362732,0.08975672721862793
1768421454603318800,8.81131884765625,0.3426651954650879,-1.0659435987472534,0.3259177803993225
1768421454613318700,8.821318603515625,0.3336520195007324,-0.6172723770141602,0.4717452824115753
1768421454623318800,8.83131884765625,0.2962084710597992,-0.21706131100654602,0.5627118349075317
1768421454633318700,8.841318603515624,0.3031840920448303,0.11576485633850098,0.676716685295105
1768421454643318500,8.851318603515624,0.38399365544319153,0.49153950810432434,0.7357009649276733
1768421454653318700,8.861318603515626,0.4758492708206177,0.8445979356765747,0.7220253348350525
1768421454663318500,8.871318603515626,0.5234106779098511,1.049420952796936,0.7213448882102966
1768421454673317600,8.881317626953125,0.467082679271698,1.170549750328064,0.7419474124908447
1768421454683317800,8.89131787109375,0.346061110496521,1.083093523979187,0.7822812795639038
1768421454693317600,8.901317626953125,0.2165537327528,0.8395708203315735,0.8011074066162109
1768421454703317800,8.91131787109375,0.09766046702861786,0.6846979260444641,0.8009355068206787
1768421454713317600,8.921317626953124,0.01159722451120615,0.6307321786880493,0.8097487092018127
1768421454723317500,8.9313173828125,-0.01193958055227995,0.5886480212211609,0.742874026298523
1768421454733317600,8.941317626953126,-0.023978134617209435,0.5115620493888855,0.5982158780097961
1768421454743317500,8.9513173828125,-0.07585570961236954,0.37427958846092224,0.4322966933250427
1768421454753317600,8.961317626953125,-0.09254014492034912,0.19665205478668213,0.24907387793064117
1768421454763317500,8.9713173828125,-0.136352077126503,-0.004443227779120207,0.09498417377471924
1768421454773317600,8.981317626953125,-0.13510572910308838,-0.1533277928829193,-0.04582460969686508
1768421454783317800,8.99131787109375,-0.1398734599351883,-0.28365787863731384,-0.17561854422092438
1768421454793318000,9.00131787109375,-0.17543332278728485,-0.38699251413345337,-0.28324034810066223
1768421454803316500,9.01131640625,-0.22240988910198212,-0.48224979639053345,-0.36092716455459595
1768421454813316600,9.021316650390625,-0.24633438885211945,-0.5784000754356384,-0.42856159806251526
1768421454823316500,9.03131640625,-0.24783524870872498,-0.6717062592506409,-0.47624102234840393
1768421454833316900,9.04131689453125,-0.23856930434703827,-0.7622033953666687,-0.514971137046814
1768421454843316700,9.051316650390625,-0.23179322481155396,-0.8577297925949097,-0.5457087159156799
1768421454853316900,9.06131689453125,-0.23141105473041534,-0.9462996125221252,-0.5599278807640076
1768421454863316700,9.071316650390624,-0.22941826283931732,-0.9852101802825928,-0.5583158731460571
1768421454873316900,9.08131689453125,-0.22939802706241608,-0.9539957642555237,-0.5664947032928467
1768421454883316700,9.091316650390626,-0.2162005752325058,-0.8426700234413147,-0.5534843802452087
1768421454893316900,9.10131689453125,-0.2079130858182907,-0.6778216361999512,-0.5138046145439148
1768421454903316700,9.111316650390625,-0.17915254831314087,-0.49597620964050293,-0.4542027711868286
1768421454913316600,9.121316650390625,-0.14862686395645142,-0.34730204939842224,-0.39139479398727417
1768421454923316700,9.131316650390625,-0.1105397492647171,-0.2687348425388336,-0.31777215003967285
1768421454933316600,9.141316650390625,-0.0732744038105011,-0.20948296785354614,-0.22815731167793274
1768421454943315700,9.151315673828124,-0.03361042961478233,-0.15712618827819824,-0.12927187979221344
1768421454953315800,9.16131591796875,0.0009142581257037818,-0.11481974273920059,-0.04046984761953354
1768421454963315700,9.171315673828126,0.028081944212317467,-0.07453317940235138,0.027496887370944023
1768421454973315800,9.18131591796875,0.04384812340140343,-0.037338946014642715,0.06596225500106812
1768421454983315700,9.191315673828125,0.057192523032426834,-0.010217669419944286,0.08475517481565475
1768421454993315600,9.201315673828125,0.06479530781507492,0.004823064897209406,0.09539956599473953
1768421455003315700,9.211315673828125,0.07010586559772491,0.007957713678479195,0.10021063685417175
1768421455013315600,9.221315673828125,0.07501194626092911,0.002280652988702059,0.10512097179889679
1768421455023315700,9.231315673828124,0.07735034823417664,-0.021292634308338165,0.10344038903713226
1768421455033315600,9.241315673828124,0.07962203025817871,-0.053598109632730484,0.10065446048974991
1768421455043315700,9.251315673828126,0.07696428149938583,-0.09490835666656494,0.09581528604030609
1768421455053315600,9.261315673828125,0.07815258949995041,-0.13494151830673218,0.08528994768857956
1768421455063315700,9.271315673828125,0.07359543442726135,-0.17297372221946716,0.07067263871431351
1768421455073314600,9.281314453125,0.06917218863964081,-0.20599240064620972,0.0510195754468441
1768421455083314700,9.291314697265625,0.06341828405857086,-0.23558363318443298,0.026663590222597122
1768421455093314600,9.301314453125,0.05642935633659363,-0.25690674781799316,-0.000613038893789053
1768421455103314700,9.311314697265624,0.05047566816210747,-0.2688773572444916,-0.020347068086266518
1768421455113314600,9.321314453125,0.044496070593595505,-0.2751365900039673,-0.03279814124107361
1768421455123314700,9.331314697265626,0.03987367823719978,-0.2711470425128937,-0.04305138438940048
1768421455133314600,9.341314453125,0.03684699535369873,-0.25683414936065674,-0.05327313020825386
1768421455143314700,9.351314697265625,0.0333566777408123,-0.23898334801197052,-0.05629948154091835
1768421455153314600,9.361314453125,0.03142881393432617,-0.21682052314281464,-0.05588722229003906
1768421455163314700,9.371314697265625,0.030667593702673912,-0.20436976850032806,-0.04976775497198105
1768421455173314600,9.381314453125,0.02860630676150322,-0.18715615570545197,-0.04271756857633591
1768421455183314700,9.391314697265624,0.027535736560821533,-0.16656287014484406,-0.035554662346839905
1768421455193314800,9.401314697265626,0.025629712268710136,-0.14435343444347382,-0.032611869275569916
1768421455203314700,9.411314697265626,0.022815624251961708,-0.12868359684944153,-0.033187881112098694
1768421455213313500,9.4213134765625,0.01904192566871643,-0.11592252552509308,-0.03305233269929886
1768421455223313700,9.431313720703125,0.015341022051870823,-0.10483986884355545,-0.03283895179629326
1768421455233313800,9.441313720703125,0.010702594183385372,-0.09402850270271301,-0.031388059258461
1768421455243313700,9.451313720703125,0.010160842910408974,-0.08666811883449554,-0.031858667731285095
1768421455253313800,9.461313720703124,0.005366886965930462,-0.07577551901340485,-0.025467080995440483
1768421455263313700,9.471313720703124,0.002341620856896043,-0.06321652978658676,-0.025609884411096573
1768421455273313800,9.481313720703126,-0.0023149163462221622,-0.05453116074204445,-0.02927066572010517
1768421455283313700,9.491313720703126,-0.004912414588034153,-0.04769061505794525,-0.03359257057309151
1768421455293313800,9.501313720703125,-0.006453318987041712,-0.03963002562522888,-0.03320188447833061
1768421455303313700,9.511313720703125,-0.007857346907258034,-0.03511758893728256,-0.03225906938314438
1768421455313313800,9.521313720703125,-0.011844364926218987,-0.03149436041712761,-0.03209102526307106
1768421455323313700,9.531313720703125,-0.014367870055139065,-0.02787306159734726,-0.03590572997927666
1768421455333313800,9.541313720703124,-0.01719401776790619,-0.022291874513030052,-0.04109569638967514
1768421455343312400,9.5513125,-0.01746119000017643,-0.011521411128342152,-0.036206599324941635
1768421455353312500,9.5613125,-0.01734481006860733,-0.0023103361018002033,-0.029936451464891434
1768421455363312600,9.571312744140625,-0.01824694685637951,0.00019937381148338318,-0.03197913616895676
1768421455373312800,9.581312744140625,-0.016614694148302078,0.005045528057962656,-0.026363328099250793
1768421455383312600,9.591312744140625,-0.014823103323578835,0.011233419179916382,-0.018050361424684525
1768421455393312800,9.601312744140625,-0.012340236455202103,0.013597773388028145,-0.011419624090194702
1768421455403312600,9.611312744140625,-0.010857141576707363,0.017925534397363663,-0.004371367394924164
1768421455413312800,9.621312744140624,-0.009864581748843193,0.02055034600198269,0.0003365690354257822
1768421455423312600,9.631312744140626,-0.006458736024796963,0.024712419137358665,0.004970325622707605
1768421455433312800,9.641312744140626,-0.005153520032763481,0.026706060394644737,0.009820740669965744
1768421455443312600,9.651312744140625,-0.0016136332415044308,0.02322266809642315,0.015479639172554016
1768421455453312500,9.6613125,0.0007797496509738266,0.020194653421640396,0.017034659162163734
1768421455463312600,9.671312744140625,0.002919221529737115,0.015367090702056885,0.015962611883878708
1768421455473312500,9.6813125,0.004402069374918938,0.012852532789111137,0.018460657447576523
1768421455483311600,9.6913115234375,0.005273016169667244,0.0054906681180000305,0.017956312745809555
1768421455493311700,9.701311767578124,0.006949742324650288,-0.0022040032781660557,0.017660435289144516
1768421455503311600,9.7113115234375,0.007766667753458023,-0.009979440830647945,0.016346625983715057
1768421455513311700,9.721311767578126,0.007755482569336891,-0.01582055166363716,0.015068573877215385
1768421455523311600,9.7313115234375,0.005893251858651638,-0.02128131315112114,0.009917082265019417
1768421455533311500,9.7413115234375,0.0063238851726055145,-0.027712848037481308,0.005070128943771124
1768421455543311600,9.7513115234375,0.005681551061570644,-0.031242193654179573,0.0011462925467640162
1768421455553311500,9.7613115234375,0.005997668020427227,-0.03301692381501198,-0.002864161506295204
1768421455563311600,9.7713115234375,0.006073562428355217,-0.03380800038576126,-0.004132210277020931
1768421455573311500,9.7813115234375,0.007258934900164604,-0.033536091446876526,-0.0032517695799469948
1768421455583311600,9.7913115234375,0.008262420073151588,-0.030486388131976128,-0.0038340850733220577
1768421455593311500,9.8013115234375,0.00719049759209156,-0.03278682753443718,-0.0009099342860281467
1768421455603311600,9.8113115234375,0.005341022275388241,-0.03500997647643089,-0.005920461844652891
1768421455613310500,9.821310546875,0.0034464490599930286,-0.037249162793159485,-0.008493874222040176
1768421455623310600,9.831310546875,0.00444081611931324,-0.03767809271812439,-0.0118557782843709
1768421455633310500,9.841310546875,0.003934549167752266,-0.038969989866018295,-0.012538346461951733
1768421455643310600,9.851310546875,0.0014622060116380453,-0.038486022502183914,-0.012891672551631927
1768421455653310500,9.861310546875,0.0020851194858551025,-0.04031987488269806,-0.010520661249756813
1768421455663310600,9.871310546875,0.003336365334689617,-0.037748947739601135,-0.005329834297299385
1768421455673310500,9.881310546875,0.002434885362163186,-0.03611163794994354,-0.004283212125301361
1768421455683310600,9.891310546875,0.0009070578962564468,-0.03292359784245491,-0.005250497255474329
1768421455693310500,9.901310546875,0.0014364942908287048,-0.030192527920007706,-0.0059088305570185184
1768421455703310600,9.911310546875,0.00030753365717828274,-0.02712574042379856,-0.00639276672154665
1768421455713310700,9.921310791015625,0.0005192550597712398,-0.025412261486053467,-0.006852961145341396
1768421455723310600,9.931310546875,0.0004967706045135856,-0.021694419905543327,-0.007713704369962215
1768421455733310700,9.941310791015624,-0.0005815431941300631,-0.01853138394653797,-0.006878270767629147
1768421455743310600,9.951310546875,-0.0007769220974296331,-0.016008421778678894,-0.006144985090941191
1768421455753309400,9.961309326171875,-0.002921032952144742,-0.012125266715884209,-0.005516212899237871
1768421455763309800,9.971309814453125,-0.0015848898328840733,-0.008490394800901413,-0.005724514834582806
1768421455773309700,9.981309814453125,-0.0030192683916538954,-0.0024665910750627518,-0.003179864026606083
1768421455783309800,9.991309814453125,-0.001372283324599266,0.0010180422104895115,-0.0006787749007344246
1768421455793309700,10.001309814453125,-0.001997060840949416,0.00347640598192811,0.0022147495765239
1768421455803309600,10.0113095703125,-0.0022662002593278885,0.006627923808991909,0.0015558907762169838
1768421455813309700,10.021309814453126,-0.001066179946064949,0.008540073409676552,0.00386591674759984
1768421455823309600,10.0313095703125,-0.00134288240224123,0.00954887829720974,0.0027844072319567204
1768421455833309700,10.041309814453125,-0.001339153852313757,0.010818940587341785,0.004606275819242001
1768421455843309600,10.0513095703125,-0.0017870382871478796,0.013031652197241783,0.004845624323934317
1768421455853309700,10.061309814453125,-0.002797175431624055,0.014409571886062622,0.006366821937263012
1768421455863309600,10.0713095703125,-0.0014560858253389597,0.016192669048905373,0.004884926602244377
1768421455873309700,10.081309814453125,0.0011394309112802148,0.015666961669921875,0.00514485128223896
1768421455883309600,10.0913095703125,0.0000048782676458358765,0.014252904802560806,0.006013081409037113
1768421455893308700,10.10130859375,-0.00016689556650817394,0.013077916577458382,0.004215980414301157
1768421455903308500,10.11130859375,-0.0010612171608954668,0.012231571599841118,0.004076777957379818
1768421455913308700,10.12130859375,-0.000488104997202754,0.007901271805167198,0.0012485010083764791
1768421455923308500,10.13130859375,-0.0005370492581278086,0.0053245555609464645,-0.0023939739912748337
1768421455933308700,10.14130859375,-0.0011612940579652786,-0.0003058994188904762,-0.0041242302395403385
1768421455943308500,10.15130859375,-0.0007258278783410788,-0.005735535174608231,-0.008591817691922188
1768421455953308700,10.16130859375,-0.002265135059133172,-0.013384399935603142,-0.008599807508289814
1768421455963308500,10.17130859375,-0.0021386349108070135,-0.024539582431316376,-0.011319960467517376
1768421455973308700,10.18130859375,-0.0028201378881931305,-0.03311575949192047,-0.01501909177750349
1768421455983308500,10.19130859375,-0.004781682044267654,-0.041874706745147705,-0.015603994950652122
1768421455993308700,10.20130859375,-0.005924711003899574,-0.04815257340669632,-0.01728125289082527
1768421456003308500,10.21130859375,-0.006035291589796543,-0.05086598917841911,-0.018359176814556122
1768421456013308400,10.221308349609375,-0.007304021622985601,-0.05330144986510277,-0.01882363110780716
1768421456023307500,10.2313076171875,-0.007902097888290882,-0.04863937944173813,-0.01813191920518875
1768421456033307600,10.2413076171875,-0.00632817018777132,-0.04634852707386017,-0.01376620028167963
1768421456043307500,10.2513076171875,-0.0073740314692258835,-0.0415085144340992,-0.014739449135959148
1768421456053307600,10.2613076171875,-0.007841949351131916,-0.038797684013843536,-0.020119301974773407
1768421456063307500,10.2713076171875,-0.008603421971201897,-0.037073321640491486,-0.02077816240489483
1768421456073307400,10.281307373046875,-0.008795170113444328,-0.03565731644630432,-0.020078551024198532
1768421456083307500,10.2913076171875,-0.007061870768666267,-0.037246908992528915,-0.016843751072883606
1768421456093307400,10.301307373046875,-0.007693040184676647,-0.03827968239784241,-0.018539119511842728
1768421456103307500,10.3113076171875,-0.006369352340698242,-0.038487501442432404,-0.01960565336048603
1768421456113307600,10.3213076171875,-0.005101155024021864,-0.03671303391456604,-0.020212586969137192
1768421456123307800,10.331307861328124,-0.005617748945951462,-0.03326461464166641,-0.018618488684296608
1768421456133307600,10.3413076171875,-0.004960480611771345,-0.03017774410545826,-0.02331550605595112
1768421456143307800,10.351307861328126,-0.007519245613366365,-0.03380070626735687,-0.021667541936039925
1768421456153307600,10.3613076171875,-0.006320290733128786,-0.033152759075164795,-0.018169213086366653
1768421456163306800,10.371306640625,-0.007012887857854366,-0.03430398926138878,-0.016222232952713966
1768421456173306600,10.381306640625,-0.0077969226986169815,-0.031757742166519165,-0.01588534377515316
1768421456183306800,10.391306640625,-0.007019830867648125,-0.02732611820101738,-0.01646757498383522
1768421456193306600,10.401306640625,-0.006438995711505413,-0.023845098912715912,-0.013991368003189564
1768421456203306800,10.411306640625,-0.008870670571923256,-0.022729607298970222,-0.013948028907179832
1768421456213306600,10.421306640625,-0.011769521981477737,-0.02481912449002266,-0.017462335526943207
1768421456223306800,10.431306640625,-0.014283220283687115,-0.02232305146753788,-0.01801181584596634
1768421456233306600,10.441306640625,-0.0075632669031620026,-0.02183649130165577,-0.02127738483250141
1768421456243306800,10.451306640625,-0.004856696352362633,-0.015297631733119488,-0.014039445668458939
1768421456253306600,10.461306640625,-0.0032385599333792925,-0.00944054126739502,-0.00893043726682663
1768421456263306500,10.471306396484374,-0.003957820124924183,-0.006924760993570089,-0.0034979241900146008
1768421456273306600,10.481306640625,-0.003545829327777028,-0.004286633804440498,-0.0011223843321204185
1768421456283306500,10.491306396484376,-0.0033167777583003044,-0.003950667567551136,-0.002580400090664625
1768421456293306600,10.501306640625,-0.002309836447238922,-0.004146409686654806,-0.0051940265111625195
1768421456303305700,10.5113056640625,-0.0013428626116365194,-0.006253644358366728,-0.007827691733837128
1768421456313305600,10.5213056640625,-0.003013996174558997,-0.009791653603315353,-0.007956055924296379
1768421456323305700,10.5313056640625,-0.0018909410573542118,-0.011149067431688309,-0.005815939512103796
1768421456333305600,10.5413056640625,-0.0024496724363416433,-0.009935997426509857,-0.007154444698244333
1768421456343305700,10.5513056640625,-0.003835581475868821,-0.007898412644863129,-0.0077986628748476505
1768421456353305900,10.561305908203124,-0.003300286130979657,-0.00524217588827014,-0.007707849610596895
1768421456363305700,10.5713056640625,-0.004900519736111164,-0.003578341333195567,-0.009502090513706207
1768421456373305900,10.581305908203126,-0.004762833938002586,-0.006134709343314171,-0.011419299989938736
1768421456383305700,10.5913056640625,-0.004037851467728615,-0.007693808525800705,-0.015229607932269573
1768421456393305900,10.601305908203125,-0.004067945294082165,-0.009840848855674267,-0.014148897491395473
1768421456403305700,10.6113056640625,-0.0055997236631810665,-0.008749475702643394,-0.014338996261358261
1768421456413305900,10.621305908203125,-0.004916889127343893,-0.011183604598045349,-0.014265760779380798
1768421456423305700,10.6313056640625,-0.005850854329764843,-0.013211045414209366,-0.01416834257543087
1768421456433305900,10.641305908203124,-0.004432721063494682,-0.015352226793766022,-0.015531880781054497
1768421456443304700,10.6513046875,-0.004581484943628311,-0.017011180520057678,-0.01584923267364502
1768421456453304800,10.661304931640625,-0.00436497014015913,-0.016205575317144394,-0.017249789088964462
1768421456463304700,10.6713046875,-0.0031695892103016376,-0.016450272873044014,-0.01704396866261959
1768421456473304800,10.681304931640625,-0.004452966619282961,-0.014898449182510376,-0.01686820015311241
1768421456483304700,10.6913046875,-0.003763535525649786,-0.016649901866912842,-0.016842830926179886
1768421456493304800,10.701304931640625,-0.0037206588312983513,-0.01645708829164505,-0.01608436182141304
1768421456503304700,10.7113046875,-0.0030003602150827646,-0.01882212981581688,-0.014550229534506798
1768421456513304800,10.721304931640624,-0.0032568222377449274,-0.020247185602784157,-0.015385929495096207
1768421456523304700,10.7313046875,-0.003936099819839001,-0.02270723693072796,-0.015330208465456963
1768421456533304800,10.741304931640625,-0.013179399073123932,-0.020514922216534615,-0.0181499645113945
1768421456543305000,10.751304931640625,-0.010339966043829918,-0.03497445583343506,-0.021618211641907692
1768421456553304800,10.761304931640625,-0.008771896362304688,-0.029035871848464012,-0.020746825262904167
1768421456563305000,10.771304931640625,-0.005283543840050697,-0.024925891309976578,-0.01913595199584961
1768421456573304800,10.781304931640625,-0.0036377108190208673,-0.021312514320015907,-0.018021948635578156
1768421456583304000,10.791303955078124,-0.0076355463825166225,-0.017861921340227127,-0.016579842194914818
1768421456593303800,10.8013037109375,-0.006367614958435297,-0.017618510872125626,-0.018963903188705444
1768421456603304000,10.811303955078126,-0.0066911205649375916,-0.016573570668697357,-0.020235685631632805
1768421456613303800,10.8213037109375,-0.0062524983659386635,-0.016966652125120163,-0.020534226670861244
1768421456623304000,10.831303955078125,-0.004090447910130024,-0.018658941611647606,-0.018384408205747604
1768421456633303800,10.8413037109375,-0.005775163881480694,-0.01801898330450058,-0.0179886594414711
1768421456643304000,10.851303955078125,-0.005904383957386017,-0.017602065578103065,-0.015395527705550194
1768421456653303800,10.8613037109375,-0.00457093957811594,-0.016514163464307785,-0.01525065116584301
1768421456663304000,10.871303955078124,-0.003835338167846203,-0.017322974279522896,-0.013933265581727028
1768421456673303800,10.8813037109375,-0.005124041810631752,-0.01614532433450222,-0.015705598518252373
1768421456683304000,10.891303955078126,-0.004145575687289238,-0.015769677236676216,-0.01537423487752676
1768421456693303800,10.9013037109375,-0.0033335776533931494,-0.014719592407345772,-0.016291160136461258
1768421456703304000,10.911303955078125,-0.005690817721188068,-0.01349614467471838,-0.016334356740117073
1768421456713303800,10.9213037109375,-0.006030104588717222,-0.01099836640059948,-0.016300534829497337
1768421456723303000,10.931302978515625,-0.004931380040943623,-0.012064339593052864,-0.015719491988420486
1768421456733302800,10.941302734375,-0.005444571375846863,-0.011332768946886063,-0.015599650330841541
1768421456743303000,10.951302978515624,-0.0033241722267121077,-0.010459035634994507,-0.015685295686125755
1768421456753302800,10.961302734375,-0.0040344372391700745,-0.010333068668842316,-0.017046170309185982
1768421456763303000,10.971302978515626,-0.00480868062004447,-0.009412811137735844,-0.016064517199993134
1768421456773302800,10.981302734375,-0.004884047899395227,-0.008809339255094528,-0.015838414430618286
1768421456783302700,10.991302734375,-0.0018937522545456886,-0.00917026586830616,-0.01581461727619171
1768421456793302800,11.001302734375,-0.003663156181573868,-0.006203237920999527,-0.013255320489406586
1768421456803302700,11.011302734375,-0.0036843728739768267,-0.003175988094881177,-0.01278376579284668
1768421456813302800,11.021302734375,-0.0020776877645403147,0.0006842636503279209,-0.011148583143949509
1768421456823302700,11.031302734375,-0.0023099551908671856,0.001970767043530941,-0.010750459507107735
1768421456833302800,11.041302734375,-0.002736327238380909,0.005662440788000822,-0.01005936972796917
1768421456843302700,11.051302734375,-0.0020600121933966875,0.007832895964384079,-0.005713277030736208
1768421456853302800,11.061302734375,0.00044016330502927303,0.009358088485896587,-0.0015717949718236923
1768421456863301600,11.071301513671875,-0.00010567507706582546,0.01139933429658413,-0.0026173433288931847
1768421456873301800,11.0813017578125,-0.0020266131032258272,0.010877886787056923,-0.006129254121333361
1768421456883301600,11.091301513671874,-0.0022662002593278885,0.011566223576664925,-0.0050655268132686615
1768421456893301800,11.1013017578125,-0.0021293137688189745,0.014104215428233147,-0.0025797318667173386
1768421456903301600,11.111301513671876,-0.0034316028468310833,0.014156388118863106,-0.00206062663346529
1768421456913301800,11.1213017578125,-0.00383240869268775,0.015481576323509216,-0.007389877922832966
1768421456923301600,11.131301513671875,-0.00558664882555604,0.01569838635623455,-0.011581663973629475
1768421456933302000,11.141302001953125,-0.004999954253435135,0.018133848905563354,-0.010095620527863503
1768421456943302000,11.151302001953125,-0.004316202364861965,0.021166827529668808,-0.0059533631429076195
1768421456953302000,11.161302001953125,-0.0046903761103749275,0.022400936111807823,-0.006202900782227516
1768421456963302000,11.171302001953125,-0.005206751637160778,0.01624586060643196,-0.010620605200529099
1768421456973301800,11.1813017578125,-0.007556724362075329,0.013319847173988819,-0.009089287370443344
1768421456983302000,11.191302001953124,-0.004772806540131569,0.011308412067592144,-0.005561004858464003
1768421456993301800,11.2013017578125,-0.005056433379650116,0.006988498382270336,-0.000026956666260957718
1768421457003300900,11.21130078125,-0.0041849082335829735,0.004788652993738651,-0.0017096158117055893
1768421457013301000,11.221301025390625,-0.004962285049259663,0.0024493327364325523,-0.0015990943647921085
1768421457023300900,11.23130078125,-0.00448012538254261,-0.00018419278785586357,-0.003659774549305439
1768421457033301000,11.241301025390625,-0.005059096962213516,-0.0032079461961984634,-0.004946880508214235
1768421457043300900,11.25130078125,-0.004357620142400265,-0.004650580231100321,-0.003956983331590891
1768421457053300700,11.26130078125,-0.005128605291247368,-0.006056463345885277,-0.005894965957850218
1768421457063300900,11.27130078125,-0.003710681339725852,-0.006835837382823229,-0.006798590533435345
1768421457073300700,11.28130078125,-0.004112286493182182,-0.005653393920511007,-0.007979702204465866
1768421457083300900,11.29130078125,-0.001344586256891489,-0.005567688960582018,-0.005082045681774616
1768421457093300700,11.30130078125,-0.00010861328337341547,-0.006643872708082199,-0.004210126586258411
1768421457103300900,11.31130078125,-0.0007294164970517159,-0.008678669109940529,-0.004994227085262537
1768421457113300700,11.32130078125,0.0006972389528527856,-0.008711425587534904,-0.004322311375290155
1768421457123300900,11.33130078125,0.0015026465989649296,-0.010717935860157013,-0.0034348033368587494
1768421457133300700,11.34130078125,0.003498419653624296,-0.00883161835372448,-0.00331709161400795
1768421457143299800,11.3512998046875,0.0032450444996356964,-0.010510673746466637,-0.00021025585010647774
1768421457153299700,11.3612998046875,0.0038114991039037704,-0.010490434244275093,0.0001383516937494278
1768421457163299800,11.3712998046875,0.0030781866516917944,-0.0125719103962183,0.0000990650150924921
1768421457173299700,11.3812998046875,0.0023258435539901257,-0.013588173314929008,-0.00156088313087821
1768421457183299800,11.3912998046875,0.003135489299893379,-0.0169311985373497,0.00026052934117615223
1768421457193299700,11.4012998046875,0.002917109988629818,-0.01601773500442505,0.0017364532686769962
1768421457203299800,11.4112998046875,0.0025554923340678215,-0.017386848106980324,0.003588013583794236
1768421457213299700,11.4212998046875,0.0034124976955354214,-0.016490427777171135,0.0044282409362494946
1768421457223299800,11.4312998046875,0.003804741660133004,-0.01711282506585121,0.002639531157910824
1768421457233299700,11.4412998046875,0.0024364094715565443,-0.016400963068008423,0.0011822492815554142
1768421457243299800,11.4512998046875,0.0025301924906671047,-0.016006264835596085,0.0007805093191564083
1768421457253299700,11.4612998046875,0.00009047053754329681,-0.013338310644030571,-0.0014232564717531204
1768421457263299600,11.471299560546875,0.0006278963992372155,-0.009759021922945976,-0.0013910322450101376
1768421457273299700,11.4812998046875,-0.0017460454255342484,-0.008504406549036503,-0.0027665551751852036
1768421457283298800,11.491298828125,-0.00240140943787992,-0.008334480226039886,-0.003138200845569372
1768421457293298700,11.501298583984376,-0.001074356259778142,-0.006628725677728653,-0.005003745201975107
1768421457303298800,11.511298828125,-0.0010493281297385693,-0.005858925636857748,-0.004252319224178791
1768421457313298700,11.521298583984375,-0.0014488024171441793,-0.0035358502063900232,-0.004839279688894749
1768421457323298800,11.531298828125,-0.00023892265744507313,-0.00158709567040205,-0.004561127629131079
1768421457333299000,11.541298828125,0.00011847354471683502,-0.0032635556999593973,-0.0031363368034362793
1768421457343298600,11.551298583984375,0.00036012346390634775,-0.0017072958871722221,-0.004448413383215666
1768421457353298700,11.561298583984374,-0.00008089595939964056,-0.0019797373097389936,-0.007790414150804281
1768421457363298600,11.571298583984374,-0.0007371299434453249,-0.005972607526928186,-0.011794396676123142
1768421457373298700,11.581298583984376,-0.0021744379773736,-0.008984110318124294,-0.01376513484865427
1768421457383298600,11.591298583984376,-0.002212281571701169,-0.009455949068069458,-0.017036251723766327
1768421457393298700,11.601298583984375,-0.004244805779308081,-0.009223987348377705,-0.018883951008319855
1768421457403298600,11.611298583984375,-0.00602556299418211,-0.01089118979871273,-0.018883414566516876
1768421457413298700,11.621298583984375,-0.004622077103704214,-0.009854421019554138,-0.018037328496575356
1768421457423297500,11.631297607421875,-0.004867365583777428,-0.0092003233730793,-0.009968984872102737
1768421457433297700,11.641297607421874,-0.0036183432675898075,-0.009691143408417702,-0.006157734431326389
1768421457443297500,11.651297607421874,-0.004976901225745678,-0.00767024839296937,-0.005063588265329599
1768421457453297700,11.661297607421876,-0.003201638115569949,-0.0030318209901452065,-0.0013522072695195675
1768421457463297500,11.671297607421875,-0.004702992737293243,0.004572762176394463,0.0009289828594774008
1768421457473297700,11.681297607421875,-0.003524011466652155,0.010021589696407318,0.0022238115780055523
1768421457483297500,11.691297607421875,-0.0030925197061151266,0.016248751431703568,0.001720138592645526
1768421457493297700,11.701297607421875,-0.0009593276772648096,0.023334091529250145,-0.0011587385088205338
1768421457503297500,11.711297607421875,-0.002682659076526761,0.028092095628380775,-0.0006546019576489925
1768421457513297700,11.721297607421874,-0.0019196637440472841,0.03304290771484375,-0.0013070767745375633
1768421457523297500,11.731297607421874,-0.002366413129493594,0.03595248609781265,0.0007502888329327106
1768421457533297700,11.741297607421876,-0.0024748037103563547,0.04087214544415474,-0.0031712157651782036
1768421457543297500,11.751297607421876,-0.0033766271080821753,0.049489300698041916,-0.005145678296685219
1768421457553297400,11.76129736328125,-0.0027113694231957197,0.06094435974955559,0.0006336474325507879
1768421457563296500,11.771296630859375,-0.0008639865554869175,0.06672870367765427,0.007420102134346962
1768421457573296600,11.781296630859375,0.000008198665454983711,0.06747572124004364,0.010667294263839722
1768421457583296500,11.791296630859375,0.0010923505760729313,0.06466405093669891,0.015940876677632332
1768421457593296600,11.801296630859374,0.0024644113145768642,0.06164349243044853,0.023196125403046608
1768421457603296500,11.811296630859376,0.0032213872764259577,0.05412556231021881,0.025460675358772278
1768421457613296400,11.82129638671875,0.002507393714040518,0.04822586476802826,0.018877340480685234
1768421457623296500,11.831296630859375,-0.00021494098473340273,0.04358439892530441,0.007199072279036045
1768421457633296400,11.84129638671875,0.0003278112271800637,0.047683004289865494,0.0007739299908280373
1768421457643296800,11.851296875,0.00012140301987528801,0.04987103492021561,-0.00031445128843188286
1768421457653296600,11.861296630859375,-0.0003363944124430418,0.05453529208898544,0.0011026167776435614
1768421457663296800,11.871296875,-0.0003664179239422083,0.05785457417368889,-0.00047489628195762634
1768421457673296600,11.881296630859374,0.000048768939450383186,0.05647079646587372,0.003105457639321685
1768421457683296800,11.891296875,0.002667425200343132,0.052369892597198486,0.006059423089027405
1768421457693296600,11.901296630859376,0.0062778727151453495,0.05431479960680008,0.014348778873682022
1768421457703295700,11.911295654296875,0.009496202692389488,0.06112779676914215,0.021374668926000595
1768421457713295600,11.921295654296875,0.010734306648373604,0.06651270389556885,0.022413834929466248
1768421457723295700,11.931295654296875,0.011631932109594345,0.06990549713373184,0.021182313561439514
1768421457733295600,11.941295654296875,0.011000762693583965,0.07444405555725098,0.02295544743537903
1768421457743295700,11.951295654296874,0.010235104709863663,0.0714072585105896,0.013718273490667343
1768421457753295600,11.961295654296874,0.0051782941445708275,0.06417730450630188,0.003174552693963051
1768421457763295700,11.971295654296876,0.002659067278727889,0.05098378658294678,-0.005967151373624802
1768421457773295600,11.981295654296876,0.000484063639305532,0.03606369346380234,-0.011643946170806885
1768421457783295700,11.991295654296875,-0.0014693858101963997,0.023137366399168968,-0.012907149270176888
1768421457793295600,12.001295654296875,-0.004932560492306948,0.011014657095074654,-0.0126205924898386
1768421457803295500,12.01129541015625,-0.0038802686613053083,0.005623825825750828,-0.01110090408474207
1768421457813295600,12.021295654296875,-0.004020883701741695,-0.003844776889309287,-0.010616208426654339
1768421457823295500,12.03129541015625,-0.0063490187749266624,-0.010481107980012894,-0.008748001419007778
1768421457833295600,12.041295654296874,-0.0055061280727386475,-0.018626652657985687,-0.009320581331849098
1768421457843295500,12.05129541015625,-0.007626676000654697,-0.023843081668019295,-0.010153371840715408
1768421457853294600,12.061294677734375,-0.006643969565629959,-0.02302522584795952,-0.009782392531633377
1768421457863294700,12.071294677734375,-0.007030155509710312,-0.01934618502855301,-0.010894030332565308
1768421457873294600,12.081294677734375,-0.006658111698925495,-0.016073958948254585,-0.00940106250345707
1768421457883294500,12.09129443359375,-0.00423022173345089,-0.008534652180969715,-0.007269039284437895
1768421457893294600,12.101294677734375,-0.0034286107402294874,-0.004869876429438591,-0.004788836929947138
1768421457903294500,12.11129443359375,-0.0004923339001834393,0.0003330931067466736,-0.00019847508519887924
1768421457913294600,12.121294677734374,0.0009162120404653251,0.003461508546024561,0.0033400668762624264
1768421457923294500,12.13129443359375,0.0020451878663152456,0.008000224828720093,0.004162381868809462
1768421457933294600,12.141294677734376,0.002867572009563446,0.010296668857336044,0.005017789080739021
1768421457943294500,12.15129443359375,0.005908922757953405,0.016208134591579437,0.005538596771657467
1768421457953294600,12.161294677734375,0.005813049152493477,0.020647089928388596,0.009491261094808578
1768421457963294500,12.17129443359375,0.008678723126649857,0.020733963698148727,0.011807003989815712
