time,seconds_elapsed,z,y,x
1768421445862137300,0.070137451171875,-0.00577959232032299,-0.014253238216042519,-0.019519904628396034
1768421445872137200,0.08013720703125,-0.006965763866901398,-0.013545369729399681,-0.02087332308292389
1768421445882137300,0.090137451171875,-0.008372179232537746,-0.013145362958312035,-0.019461315125226974
1768421445892137200,0.10013720703125,-0.010185259394347668,-0.01677764765918255,-0.013420467264950275
1768421445902137300,0.110137451171875,-0.013174657709896564,-0.019036009907722473,-0.005441104527562857
1768421445912137200,0.12013720703125,-0.014962437562644482,-0.01913854107260704,0.0013137373607605696
1768421445922136300,0.13013623046875,-0.011237474158406258,-0.018383001908659935,0.002942526713013649
1768421445932136200,0.14013623046875,-0.00612207455560565,-0.01683676987886429,-0.002216815249994397
1768421445942136300,0.15013623046875,-0.005044825840741396,-0.015501461923122406,-0.0065314024686813354
1768421445952136200,0.16013623046875,-0.002537459833547473,-0.01191125437617302,-0.010584733448922634
1768421445962136300,0.17013623046875,-0.0018977685831487179,-0.012270781211555004,-0.015631157904863358
1768421445972136200,0.18013623046875,-0.0024711471050977707,-0.010045443661510944,-0.009949036873877048
1768421445982136300,0.19013623046875,-0.0027955202385783195,-0.014365890063345432,-0.00316010694950819
1768421445992136200,0.20013623046875,-0.005284510552883148,-0.013944843783974648,0.00019973708549514413
1768421446002136300,0.21013623046875,-0.006403038278222084,-0.01504233293235302,-0.006199039984494448
1768421446012136200,0.22013623046875,-0.0036011263728141785,-0.010721620172262192,-0.013954964466392994
1768421446022136300,0.23013623046875,-0.0014056164072826505,-0.007478156127035618,-0.020385699346661568
1768421446032136200,0.24013623046875,0.0006205165409483016,-0.005646167788654566,-0.016593890264630318
1768421446042136300,0.25013623046875,0.0013614079216495156,0.00002663161103555467,-0.015511315315961838
1768421446052136200,0.26013623046875,0.0016801883466541767,0.002438656520098448,-0.015325160697102547
1768421446062135300,0.27013525390625,0.0015909724170342088,0.0015531554818153381,-0.016169648617506027
1768421446072135200,0.28013525390625,-0.0038301581516861916,-0.00245117349550128,-0.017520936205983162
1768421446082135300,0.29013525390625,-0.007196127437055111,-0.0024607607629150152,-0.017781659960746765
1768421446092135200,0.30013525390625,-0.009546101093292236,-0.0015422365395352244,-0.018019480630755424
1768421446102135300,0.31013525390625,-0.011660650372505188,-0.002620816696435213,-0.01595206931233406
1768421446112135200,0.32013525390625,-0.010951184667646885,0.0022008363157510757,-0.017050355672836304
1768421446122135000,0.330135009765625,-0.010253436863422394,0.006739395204931498,-0.017290040850639343
1768421446132135200,0.34013525390625,-0.009317602030932903,0.01275627501308918,-0.01561384741216898
1768421446142135000,0.350135009765625,-0.007565508130937815,0.01811349019408226,-0.019062107428908348
1768421446152135200,0.36013525390625,-0.007635549176484346,0.024177774786949158,-0.020708473399281502
1768421446162135000,0.370135009765625,0.00020453077740967274,0.026432139798998833,-0.024144483730196953
1768421446172135200,0.38013525390625,-0.006915164180099964,0.025649704039096832,-0.02093990333378315
1768421446182135300,0.39013525390625,-0.006682670209556818,0.0340019091963768,-0.014207432046532631
1768421446192135400,0.400135498046875,-0.0009299758239649236,0.03539234399795532,-0.01775582693517208
1768421446202135300,0.41013525390625,0.00012436961696948856,0.03746801242232323,-0.01599920727312565
1768421446212134100,0.420134033203125,-0.00015472965606022626,0.040656883269548416,-0.01284522470086813
1768421446222134000,0.430134033203125,0.00247567449696362,0.04183000326156616,-0.009767409414052963
1768421446232134400,0.440134521484375,0.002373675350099802,0.04385320842266083,-0.00561181316152215
1768421446242134300,0.45013427734375,0.004294347018003464,0.04188166931271553,-0.006433132104575634
1768421446252134400,0.460134521484375,0.0032661007717251778,0.0394134521484375,-0.009349559433758259
1768421446262134300,0.47013427734375,0.002764893928542733,0.03877029940485954,-0.010507235303521156
1768421446272134400,0.480134521484375,0.00036432043998502195,0.037503432482481,-0.01318397931754589
1768421446282134300,0.49013427734375,-0.00008921589324017987,0.033131055533885956,-0.011057977564632893
1768421446292134400,0.500134521484375,-0.0015936355339363217,0.028932582587003708,-0.010010289959609509
1768421446302134300,0.51013427734375,-0.002802710747346282,0.024396419525146484,-0.009222793392837048
1768421446312134100,0.520134033203125,-0.0031675638165324926,0.01852281764149666,-0.007694671396166086
1768421446322134300,0.53013427734375,-0.0027164241764694452,0.015790946781635284,-0.007394533138722181
1768421446332134400,0.540134521484375,-0.004788097459822893,0.009516806341707706,-0.007888549007475376
1768421446342133500,0.550133544921875,-0.008310660719871521,0.006077067460864782,-0.006750847212970257
1768421446352133600,0.560133544921875,-0.009217733517289162,0.0032474587205797434,-0.0060208747163414955
1768421446362133500,0.570133544921875,-0.00917139369994402,-0.0015872439835220575,-0.006095442920923233
1768421446372133400,0.58013330078125,-0.01044491771608591,-0.006163087207823992,-0.007638212293386459
1768421446382133500,0.590133544921875,-0.009340771473944187,-0.009101885370910168,-0.012106464244425297
1768421446392133400,0.60013330078125,-0.00999457761645317,-0.012596485204994678,-0.015786420553922653
1768421446402133500,0.610133544921875,-0.010234261862933636,-0.01581571437418461,-0.016895625740289688
1768421446412133400,0.62013330078125,-0.008816927671432495,-0.015208779834210873,-0.014968829229474068
1768421446422133500,0.630133544921875,-0.008038219064474106,-0.01577550172805786,-0.015112640336155891
1768421446432133400,0.64013330078125,-0.0065263425931334496,-0.012324044480919838,-0.01480318047106266
1768421446442133500,0.650133544921875,-0.0057614827528595924,-0.011271030642092228,-0.013673733919858932
1768421446452133400,0.66013330078125,-0.0046754456125199795,-0.008356733247637749,-0.010391920804977417
1768421446462133500,0.670133544921875,-0.00009400958515470847,-0.006168946158140898,-0.005393433850258589
1768421446472133400,0.68013330078125,0.005624063778668642,-0.002609631512314081,-0.004510329570621252
1768421446482132500,0.690132568359375,0.01085664238780737,-0.000538491178303957,-0.0018239989876747131
1768421446492132400,0.70013232421875,0.010068613104522228,-0.0009701895760372281,-0.0010330402292311192
1768421446502132500,0.710132568359375,0.011946674436330795,-0.0032802154310047626,0.0014921691035851836
1768421446512132400,0.72013232421875,0.012652678415179253,-0.007211573887616396,0.004051466938108206
1768421446522132500,0.730132568359375,0.012105665169656277,-0.006962568499147892,0.006278668530285358
1768421446532132400,0.74013232421875,0.011523231863975525,-0.007466970942914486,0.005350823048502207
1768421446542132500,0.750132568359375,0.009336243383586407,-0.010852381587028503,0.0062219430692493916
1768421446552132400,0.76013232421875,0.006446447689086199,-0.015077486634254456,0.009159144014120102
1768421446562132500,0.770132568359375,0.004166249185800552,-0.021330056712031364,0.011004447937011719
1768421446572132400,0.78013232421875,-0.0021315941121429205,-0.029572805389761925,0.008356466889381409
1768421446582132200,0.79013232421875,-0.005198223982006311,-0.03347300365567207,0.010249441489577293
1768421446592132400,0.80013232421875,-0.005823800805956125,-0.03374624624848366,0.013881460763514042
1768421446602132200,0.81013232421875,-0.0059987702406942844,-0.032519593834877014,0.01104546058923006
1768421446612132600,0.820132568359375,-0.006184392608702183,-0.031743280589580536,0.0057351174764335155
1768421446622131500,0.83013134765625,-0.005289836786687374,-0.03321494534611702,-0.001981125446036458
1768421446632131300,0.84013134765625,-0.004494616761803627,-0.030129140242934227,0.0005320995696820319
1768421446642131500,0.85013134765625,-0.0052964948117733,-0.027289677411317825,0.008480570279061794
1768421446652131300,0.86013134765625,-0.004773716442286968,-0.02353781647980213,0.0115586519241333
1768421446662131500,0.87013134765625,-0.00517691858112812,-0.02209198661148548,0.010694189928472042
1768421446672131600,0.880131591796875,-0.004486893769353628,-0.0207526832818985,0.007757521700114012
1768421446682131500,0.89013134765625,-0.003210440743714571,-0.017604826018214226,0.003993942867964506
1768421446692131600,0.900131591796875,-0.00027084347675554454,-0.013787983916699886,0.004107659682631493
1768421446702131500,0.91013134765625,0.0036669063847512007,-0.009406550787389278,0.002793922321870923
1768421446712131600,0.920131591796875,0.005328985396772623,-0.006882673595100641,0.0036453348584473133
1768421446722131500,0.93013134765625,0.007384146563708782,-0.006765494588762522,0.006391853094100952
1768421446732131600,0.940131591796875,0.008243815042078495,-0.004896221682429314,0.00433109886944294
1768421446742131500,0.95013134765625,0.00743341539055109,-0.0029933929909020662,-0.003762780223041773
1768421446752131600,0.960131591796875,0.006899717729538679,-0.0007693872321397066,-0.012369317933917046
1768421446762131500,0.97013134765625,0.008231564424932003,0.004224039614200592,-0.013071061111986637
1768421446772130600,0.980130615234375,0.00914556160569191,0.004751079250127077,-0.011952533386647701
1768421446782130400,0.99013037109375,0.010842793621122837,0.007013700902462006,-0.0084262415766716
1768421446792130600,1.000130615234375,0.010057960636913776,0.005231780000030994,-0.006640592124313116
1768421446802130400,1.01013037109375,0.009092831052839756,0.002630137838423252,-0.007179616019129753
1768421446812130600,1.020130615234375,0.008741027675569057,0.001621332485228777,-0.007987885735929012
1768421446822130400,1.03013037109375,0.005783054046332836,-0.0005313006113283336,-0.009063802659511566
1768421446832130600,1.040130615234375,0.003981958609074354,-0.002666356973350048,-0.009530654177069664
1768421446842130400,1.05013037109375,0.0049556102603673935,-0.006434463430196047,-0.008006260730326176
1768421446852130300,1.06013037109375,0.00509995361790061,-0.008665925823152065,-0.010175406001508236
1768421446862130400,1.07013037109375,0.001862614881247282,-0.009783920831978321,-0.012827115133404732
1768421446872130300,1.08013037109375,0.000642620783764869,-0.01221698522567749,-0.013364274986088276
1768421446882130400,1.09013037109375,-0.003935087006539106,-0.012347213923931122,-0.01727779023349285
1768421446892130300,1.10013037109375,-0.0044346959330141544,-0.011366104707121849,-0.016170181334018707
1768421446902129400,1.11012939453125,-0.00538331363350153,-0.012384231202304363,-0.012892362661659718
1768421446912129300,1.12012939453125,-0.004707936197519302,-0.013860953971743584,-0.006135923322290182
1768421446922129400,1.13012939453125,-0.0041497377678751945,-0.012258264236152172,0.0007536745979450643
1768421446932129300,1.14012939453125,-0.0019622170366346836,-0.012102468870580196,0.0035396073944866657
1768421446942129400,1.15012939453125,-0.0035950010642409325,-0.012530705891549587,0.0025920546613633633
1768421446952129300,1.16012939453125,-0.0019688750617206097,-0.012688631191849709,0.0022921827621757984
1768421446962129400,1.17012939453125,0.0005627259379252791,-0.011544004082679749,-0.0021257351618260145
1768421446972129300,1.18012939453125,0.004789428785443306,-0.009035040624439716,-0.003087935270741582
1768421446982129400,1.19012939453125,0.008835569024085999,-0.007085073739290237,-0.0018317222129553556
1768421446992129300,1.20012939453125,0.014377341605722904,-0.002960369922220707,-0.0018042916199192405
1768421447002129700,1.210129638671875,0.016595222055912018,-0.0014594122767448425,-0.00025486451340839267
1768421447012129500,1.220129638671875,0.017407486215233803,0.0033593112602829933,0.003748399205505848
1768421447022129400,1.23012939453125,0.015030615031719208,0.007125287316739559,0.007532484829425812
1768421447032129500,1.240129638671875,0.012871856801211834,0.008421181701123714,0.010643056593835354
1768421447042129400,1.25012939453125,0.011866779066622257,0.008738896809518337,0.012835371308028698
1768421447052128500,1.26012841796875,0.010881409980356693,0.0062850601971149445,0.012151471339166164
1768421447062128600,1.270128662109375,0.012224175967276096,0.0051654670387506485,0.012554408051073551
1768421447072128500,1.28012841796875,0.0173781905323267,0.011287275701761246,0.010529340244829655
1768421447082128600,1.290128662109375,0.020979050546884537,0.014934474602341652,0.011803662404417992
1768421447092128500,1.30012841796875,0.020864801481366158,0.017257817089557648,0.015310779213905334
1768421447102128400,1.31012841796875,0.018140388652682304,0.019882095977663994,0.015034875832498074
1768421447112128500,1.32012841796875,0.012586631812155247,0.016766196116805077,0.011664379388093948
1768421447122128400,1.33012841796875,0.00697881355881691,0.011408182792365551,0.010779943317174911
1768421447132128500,1.34012841796875,0.004199272487312555,0.006468551699072123,0.01173362135887146
1768421447142128400,1.35012841796875,0.0028597023338079453,-0.0024282701779156923,0.015735020861029625
1768421447152128500,1.36012841796875,0.00430127140134573,-0.005338306538760662,0.01901310496032238
1768421447162128400,1.37012841796875,0.006922887172549963,-0.00812290795147419,0.020685303956270218
1768421447172128500,1.38012841796875,0.009967945516109467,-0.009306150488555431,0.020600350573658943
1768421447182127400,1.39012744140625,0.008191350847482681,-0.006975884083658457,0.01889432966709137
1768421447192127500,1.40012744140625,0.009740245528519154,-0.008975918404757977,0.013393037021160126
1768421447202127400,1.41012744140625,0.010183128528296947,-0.010405236855149269,0.0063063655979931355
1768421447212127500,1.42012744140625,0.006929545197635889,-0.012342685833573341,0.005013933405280113
1768421447222127400,1.43012744140625,0.006405967753380537,-0.013792244717478752,0.006747118663042784
1768421447232127500,1.44012744140625,0.004760400392115116,-0.011230549775063992,0.006491455249488354
1768421447242127400,1.45012744140625,0.0068901302292943,-0.008843558840453625,0.00341603672131896
1768421447252127500,1.46012744140625,0.007994011044502258,-0.008415322750806808,0.0034700988326221704
1768421447262127400,1.47012744140625,0.008705341257154942,-0.00899722333997488,0.004192081745713949
1768421447272127500,1.48012744140625,0.006415288895368576,-0.00878097489476204,0.004718588665127754
1768421447282127400,1.49012744140625,0.005589708685874939,-0.009065932594239712,0.00510021997615695
1768421447292127500,1.50012744140625,0.0025015072897076607,-0.006776679772883654,0.0035694348625838757
1768421447302127400,1.51012744140625,0.0034019220620393753,-0.006409695837646723,0.0006564692012034357
1768421447312127200,1.520127197265625,0.005350823048502207,-0.006013151258230209,0.00008016114588826895
1768421447322126300,1.530126220703125,0.007958058267831802,-0.007734884973615408,0.00256355875171721
1768421447332126700,1.540126708984375,0.00923397857695818,-0.0054791877046227455,0.004284493625164032
1768421447342126600,1.550126708984375,0.011507784947752953,-0.004421379882842302,0.005708752200007439
1768421447352126700,1.560126708984375,0.008828911930322647,-0.003369963960722089,0.00746217742562294
1768421447362126600,1.570126708984375,0.007796403951942921,-0.00427171029150486,0.010246512480080128
1768421447372126500,1.58012646484375,0.0051806471310555935,-0.005205947440117598,0.012709669768810272
1768421447382126600,1.590126708984375,0.0028884646017104387,-0.007005977910012007,0.014842595905065536
1768421447392126500,1.60012646484375,0.0027507790364325047,-0.011651329696178436,0.016404272988438606
1768421447402126600,1.610126708984375,0.003837615018710494,-0.011077684350311756,0.02347310073673725
1768421447412126500,1.62012646484375,0.0076185050420463085,-0.012644688598811626,0.02394421398639679
1768421447422126600,1.630126708984375,0.009213471785187721,-0.012198076583445072,0.0217745378613472
1768421447432126500,1.64012646484375,0.011119762435555458,-0.013117666356265545,0.0196706410497427
1768421447442126600,1.650126708984375,0.011291003786027431,-0.008978847414255142,0.024688567966222763
1768421447452125400,1.66012548828125,0.012324044480919838,-0.003573962254449725,0.030646059662103653
1768421447462125600,1.67012548828125,0.013888651505112648,-0.0012932310346513987,0.03327593207359314
1768421447472125400,1.68012548828125,0.01594541035592556,0.0031278827227652073,0.03172730281949043
1768421447482125600,1.69012548828125,0.013438310474157333,0.004689293913543224,0.029101692140102386
1768421447492125400,1.70012548828125,0.00866352953016758,0.0023062974214553833,0.03003086894750595
1768421447502125600,1.71012548828125,0.003462375607341528,-0.0008000136003829539,0.03200826793909073
1768421447512125400,1.72012548828125,0.0011792477453127503,-0.0038211036007851362,0.036493297666311264
1768421447522125800,1.730125732421875,-0.0005970807396806777,-0.009269664995372295,0.042204711586236954
1768421447532125700,1.740125732421875,0.005949768237769604,-0.01236558984965086,0.046116363257169724
1768421447542125800,1.750125732421875,0.012193016707897186,-0.012655873782932758,0.03963742405176163
1768421447552125700,1.760125732421875,0.021078919991850853,-0.007639809977263212,0.028686240315437317
1768421447562125600,1.77012548828125,0.024039022624492645,0.0007539408979937434,0.017954498529434204
1768421447572125700,1.780125732421875,0.02731630951166153,0.003667971817776561,0.010320015251636505
1768421447582124800,1.790124755859375,0.0226158294826746,0.004828843753784895,0.009971673600375652
1768421447592124700,1.800124755859375,0.018857045099139214,0.004063983913511038,0.0065649584867060184
1768421447602124800,1.810124755859375,0.011532019823789597,-0.004165716469287872,0.006746585946530104
1768421447612124700,1.820124755859375,0.005194761790335178,-0.012556005269289017,0.011633220128715038
1768421447622124500,1.83012451171875,0.005348426289856434,-0.016562199220061302,0.017191503196954727
1768421447632124700,1.840124755859375,0.00669492082670331,-0.01937289908528328,0.019903667271137238
1768421447642124500,1.85012451171875,0.009694173000752926,-0.01877661794424057,0.02250158041715622
1768421447652124700,1.860124755859375,0.011752263642847538,-0.01649082638323307,0.01799231581389904
1768421447662124500,1.87012451171875,0.009608152322471142,-0.013979731127619743,0.013594372197985649
1768421447672124700,1.880124755859375,0.010850250720977783,-0.010639594867825508,0.006873618811368942
1768421447682124500,1.89012451171875,0.007705323863774538,-0.013254818506538868,0.003766508772969246
1768421447692124700,1.900124755859375,0.004792091902345419,-0.01751108281314373,0.00782782956957817
1768421447702124500,1.91012451171875,0.005063734482973814,-0.018273545429110527,0.016230368986725807
1768421447712123600,1.92012353515625,0.005198223982006311,-0.018871160224080086,0.022664565593004227
1768421447722123500,1.93012353515625,0.008466455154120922,-0.0191918034106493,0.025176459923386574
1768421447732123600,1.94012353515625,0.012109925970435143,-0.02039235644042492,0.028533905744552612
1768421447742123500,1.95012353515625,0.015409049578011036,-0.021039770916104317,0.024162327870726585
1768421447752123600,1.96012353515625,0.015568306669592857,-0.025043301284313202,0.021166272461414337
1768421447762123500,1.97012353515625,0.013766146264970303,-0.02593785710632801,0.018149975687265396
1768421447772123600,1.98012353515625,0.01552143506705761,-0.027003919705748558,0.021144699305295944
1768421447782123500,1.99012353515625,0.020299945026636124,-0.02646596170961857,0.027544543147087097
1768421447792123600,2.00012353515625,0.021498633548617363,-0.022480541840195656,0.03271693363785744
1768421447802123500,2.01012353515625,0.022228073328733444,-0.0203313697129488,0.03585973009467125
1768421447812123600,2.02012353515625,0.019780628383159637,-0.017168333753943443,0.03652339056134224
1768421447822123500,2.03012353515625,0.015103052370250225,-0.013058544136583805,0.028616996482014656
1768421447832123400,2.040123291015625,0.012850817292928696,-0.006603574380278587,0.022105036303400993
1768421447842122500,2.05012255859375,0.008831574581563473,-0.005044293589890003,0.018192851915955544
1768421447852122600,2.06012255859375,0.005660282447934151,-0.003802461316809058,0.018680211156606674
1768421447862122500,2.07012255859375,0.007551925722509623,-0.0025808694772422314,0.023861922323703766
1768421447872122600,2.08012255859375,0.012040417641401291,0.0017092167399823666,0.030823426321148872
1768421447882122500,2.09012255859375,0.016711335629224777,0.0076187714003026485,0.03212091699242592
1768421447892122600,2.10012255859375,0.02009301818907261,0.009724532254040241,0.03305568918585777
1768421447902122500,2.11012255859375,0.020112724974751472,0.014812768436968327,0.03231106698513031
1768421447912122400,2.120122314453125,0.020843496546149254,0.019626431167125702,0.03062928095459938
1768421447922122800,2.130122802734375,0.018249044194817543,0.02161101996898651,0.029111811891198158
1768421447932122600,2.14012255859375,0.017348363995552063,0.01864958368241787,0.02605956420302391
1768421447942122800,2.150122802734375,0.01407800242304802,0.018252773210406303,0.02449415810406208
1768421447952122600,2.16012255859375,0.012978915125131607,0.015597068704664707,0.024521054700016975
1768421447962122800,2.170122802734375,0.009032643400132656,0.01507269311696291,0.024442225694656372
1768421447972121600,2.18012158203125,0.00803209375590086,0.008950085379183292,0.024746092036366463
1768421447982121700,2.190121826171875,0.007084807381033897,-0.000713993504177779,0.029045766219496727
1768421447992121600,2.20012158203125,0.006712497677654028,-0.011390605941414833,0.037638720124959946
1768421448002121700,2.210121826171875,0.01028592698276043,-0.019647205248475075,0.03988216817378998
1768421448012121600,2.22012158203125,0.020710071548819542,-0.02191195636987686,0.04164331778883934
1768421448022121700,2.230121826171875,0.041124533861875534,-0.017594706267118454,0.039738889783620834
1768421448032121600,2.24012158203125,0.06321705132722855,-0.0032929987646639347,0.037392113357782364
1768421448042121700,2.250121826171875,0.08573620766401291,0.014597051776945591,0.03287113085389137
1768421448052121600,2.26012158203125,0.09776144474744797,0.039325036108493805,0.029511818662285805
1768421448062121700,2.270121826171875,0.09852897375822067,0.061594653874635696,0.02947799675166607
1768421448072121600,2.28012158203125,0.09367989003658295,0.0785968080163002,0.02605503611266613
1768421448082121700,2.290121826171875,0.08924385905265808,0.09110647439956665,0.011625230312347412
1768421448092121600,2.30012158203125,0.08340700715780258,0.09840086847543716,-0.011229751631617546
1768421448102120700,2.31012060546875,0.07529741525650024,0.10201531648635864,-0.0352565236389637
1768421448112120600,2.32012060546875,0.06897693872451782,0.11966381967067719,-0.05411197245121002
1768421448122120700,2.33012060546875,0.06969892233610153,0.16176572442054749,-0.06391053646802902
1768421448132120600,2.34012060546875,0.07108695805072784,0.19032733142375946,-0.07404600083827972
1768421448142120700,2.35012060546875,0.05776183307170868,0.19840256869792938,-0.09718913584947586
1768421448152120600,2.36012060546875,0.042520031332969666,0.20848369598388672,-0.13103657960891724
1768421448162120700,2.37012060546875,0.036608077585697174,0.21956750750541687,-0.15767964720726013
1768421448172120600,2.38012060546875,0.03609754890203476,0.2258232682943344,-0.16320542991161346
1768421448182120400,2.390120361328125,0.031922511756420135,0.22002184391021729,-0.14394065737724304
1768421448192120600,2.40012060546875,0.03293371573090553,0.21214981377124786,-0.12212830781936646
1768421448202120400,2.410120361328125,0.04400527477264404,0.20720884203910828,-0.10501190274953842
1768421448212120600,2.42012060546875,0.05841643735766411,0.20555183291435242,-0.09243325889110565
1768421448222119700,2.43011962890625,0.06662590056657791,0.2020455151796341,-0.09108676761388779
1768421448232119600,2.44011962890625,0.06974605470895767,0.19707658886909485,-0.10403212904930115
1768421448242119400,2.450119384765625,0.06750793755054474,0.19347386062145233,-0.12710389494895935
1768421448252119600,2.46011962890625,0.05877703055739403,0.2037704437971115,-0.14805470407009125
1768421448262119400,2.470119384765625,0.04553738981485367,0.23689377307891846,-0.1792219579219818
1768421448272119600,2.48011962890625,0.025007348507642746,0.2848900556564331,-0.21963302791118622
1768421448282119400,2.490119384765625,-0.0021318604703992605,0.33873865008354187,-0.25857242941856384
1768421448292119600,2.50011962890625,-0.032051943242549896,0.3826909065246582,-0.2863300144672394
1768421448302119400,2.510119384765625,-0.06433983892202377,0.3994312882423401,-0.29390913248062134
1768421448312119600,2.52011962890625,-0.0908910259604454,0.414231538772583,-0.267192006111145
1768421448322119700,2.53011962890625,-0.11053237318992615,0.4245166480541229,-0.22273747622966766
1768421448332119800,2.540119873046875,-0.11798282712697983,0.43296366930007935,-0.1671019047498703
1768421448342119700,2.55011962890625,-0.11487545073032379,0.4270802140235901,-0.10915151983499527
1768421448352118800,2.560118896484375,-0.10023339092731476,0.4165612757205963,-0.06349269300699234
1768421448362118700,2.57011865234375,-0.07408248633146286,0.40403828024864197,-0.04705432802438736
1768421448372118800,2.580118896484375,-0.043166112154722214,0.39650100469589233,-0.06634706258773804
1768421448382118700,2.59011865234375,-0.010675014927983284,0.38578498363494873,-0.09253312647342682
1768421448392118800,2.600118896484375,0.0190139040350914,0.37039056420326233,-0.10605692863464355
1768421448402118700,2.61011865234375,0.0465315505862236,0.3618892431259155,-0.11588559299707413
1768421448412118800,2.620118896484375,0.07860692590475082,0.35560524463653564,-0.1170312836766243
1768421448422118700,2.63011865234375,0.10176577419042587,0.31136587262153625,-0.11498970538377762
1768421448432118500,2.640118408203125,0.12307798862457275,0.25198110938072205,-0.10903940349817276
1768421448442118700,2.65011865234375,0.14185194671154022,0.1845003366470337,-0.11256223171949387
1768421448452118500,2.660118408203125,0.1519128382205963,0.1153806522488594,-0.1246817409992218
1768421448462118700,2.67011865234375,0.15243561565876007,0.03331907466053963,-0.13879835605621338
1768421448472118500,2.680118408203125,0.15525643527507782,-0.043295808136463165,-0.1434064358472824
1768421448482117600,2.69011767578125,0.15611663460731506,-0.11274092644453049,-0.13268586993217468
1768421448492117800,2.70011767578125,0.1555832028388977,-0.17736919224262238,-0.11429674923419952
1768421448502117600,2.71011767578125,0.1467665433883667,-0.22405652701854706,-0.08152921497821808
1768421448512117500,2.720117431640625,0.1419755071401596,-0.2548466622829437,-0.045881204307079315
1768421448522117600,2.73011767578125,0.1301281750202179,-0.284523606300354,-0.016323579475283623
1768421448532117500,2.740117431640625,0.11994824558496475,-0.31662747263908386,0.012655074708163738
1768421448542117600,2.75011767578125,0.10089811682701111,-0.334882915019989,0.04254160076379776
1768421448552117500,2.760117431640625,0.09160394966602325,-0.34202736616134644,0.06880995631217957
1768421448562117600,2.77011767578125,0.0811406597495079,-0.3515931963920593,0.08417826145887375
1768421448572117800,2.78011767578125,0.06247030198574066,-0.3650330901145935,0.09164762496948242
1768421448582118000,2.790117919921875,0.039864592254161835,-0.37752625346183777,0.10130185633897781
1768421448592117800,2.80011767578125,0.013647102750837803,-0.3858608901500702,0.1209956631064415
1768421448602116600,2.81011669921875,-0.01025689858943224,-0.39179813861846924,0.1383512169122696
1768421448612116500,2.820116455078125,-0.030221818014979362,-0.3920961320400238,0.14128096401691437
1768421448622116900,2.830116943359375,-0.04400687292218208,-0.38999491930007935,0.1378883570432663
1768421448632116700,2.84011669921875,-0.05271460860967636,-0.39230307936668396,0.13557779788970947
1768421448642116900,2.850116943359375,-0.05886438116431236,-0.4047512114048004,0.1369248330593109
1768421448652116700,2.86011669921875,-0.06762085855007172,-0.41298943758010864,0.1434924453496933
1768421448662116900,2.870116943359375,-0.08368557691574097,-0.43364837765693665,0.13721990585327148
1768421448672116700,2.88011669921875,-0.11421845108270645,-0.4623657763004303,0.12215147167444229
1768421448682116900,2.890116943359375,-0.15070508420467377,-0.5036098957061768,0.09893962740898132
1768421448692116700,2.90011669921875,-0.19080057740211487,-0.559041440486908,0.07926525920629501
1768421448702116600,2.91011669921875,-0.2261420488357544,-0.6136447787284851,0.07472803443670273
1768421448712116700,2.92011669921875,-0.2536945939064026,-0.6689261198043823,0.07117217779159546
1768421448722115800,2.93011572265625,-0.2774665057659149,-0.7249366641044617,0.0627368837594986
1768421448732115700,2.94011572265625,-0.30019843578338623,-0.7663765549659729,0.057976484298706055
1768421448742115800,2.95011572265625,-0.32055750489234924,-0.7840327620506287,0.0556640625
1768421448752115700,2.96011572265625,-0.336637943983078,-0.7966710329055786,0.05782148614525795
1768421448762115800,2.97011572265625,-0.3493044674396515,-0.8172378540039062,0.06595505028963089
1768421448772115700,2.98011572265625,-0.35263556241989136,-0.833844780921936,0.06966190040111542
1768421448782115600,2.990115478515625,-0.35218149423599243,-0.8634120225906372,0.06215231865644455
1768421448792115700,3.00011572265625,-0.36587172746658325,-0.888842761516571,0.038476552814245224
1768421448802115600,3.010115478515625,-0.3900684118270874,-0.9207996726036072,-0.005480785388499498
1768421448812115700,3.02011572265625,-0.41020217537879944,-0.9604466557502747,-0.05971206724643707
1768421448822115600,3.030115478515625,-0.3932815194129944,-0.9313535094261169,-0.08303683251142502
1768421448832115700,3.04011572265625,-0.3124553859233856,-0.7874898314476013,-0.016462596133351326
1768421448842115600,3.050115478515625,-0.16472956538200378,-0.6005862355232239,0.22102585434913635
1768421448852114700,3.06011474609375,0.0017651431262493134,-0.6079855561256409,0.4015493094921112
1768421448862114600,3.070114501953125,0.011216169223189354,-0.7093697190284729,0.21173729002475739
1768421448872114700,3.08011474609375,-0.03304077312350273,-0.5110744833946228,-0.06973673403263092
1768421448882114600,3.090114501953125,0.07207898795604706,-0.25362321734428406,-0.18573178350925446
1768421448892114700,3.10011474609375,0.17613054811954498,-0.1579507440328598,-0.24705906212329865
1768421448902114600,3.110114501953125,0.141013041138649,-0.19144000113010406,-0.31612494587898254
1768421448912114700,3.12011474609375,0.06489617377519608,-0.29266807436943054,-0.27011510729789734
1768421448922114600,3.130114501953125,0.007860852405428886,-0.4209616184234619,-0.0549953430891037
1768421448932114700,3.14011474609375,-0.011254518292844296,-0.4799250662326813,0.2727351188659668
1768421448942114600,3.150114501953125,-0.002295911079272628,-0.46995899081230164,0.5907520055770874
1768421448952114700,3.16011474609375,0.021191304549574852,-0.42715826630592346,0.7261452078819275
1768421448962114600,3.170114501953125,0.07360737770795822,-0.424846351146698,0.6079948544502258
1768421448972113700,3.18011376953125,0.09615422785282135,-0.42769381403923035,0.3737115263938904
1768421448982113500,3.190113525390625,0.07519248872995377,-0.42197734117507935,0.2061326652765274
1768421448992113700,3.20011376953125,0.06239200383424759,-0.46980080008506775,0.10832434147596359
1768421449002113500,3.210113525390625,0.02546088583767414,-0.5453823804855347,0.025723205879330635
1768421449012113700,3.22011376953125,-0.04794701933860779,-0.616500198841095,-0.04410754144191742
1768421449022113800,3.23011376953125,-0.0976962000131607,-0.6505439281463623,-0.0945986732840538
1768421449032113700,3.24011376953125,-0.11989843845367432,-0.6260865330696106,-0.08461528271436691
1768421449042113800,3.25011376953125,-0.11659878492355347,-0.5661294460296631,-0.02009008824825287
1768421449052113700,3.26011376953125,-0.11485574394464493,-0.4942408800125122,0.07449287921190262
1768421449062113800,3.27011376953125,-0.13200703263282776,-0.44003409147262573,0.14735031127929688
1768421449072113700,3.28011376953125,-0.14380669593811035,-0.40382257103919983,0.15302443504333496
1768421449082113800,3.29011376953125,-0.1465308517217636,-0.3531985282897949,0.09689804911613464
1768421449092113700,3.30011376953125,-0.15194718539714813,-0.274433434009552,0.016828780993819237
1768421449102112800,3.31011279296875,-0.15199965238571167,-0.17905816435813904,-0.059117116034030914
1768421449112112600,3.320112548828125,-0.13007117807865143,-0.08625233173370361,-0.10969613492488861
1768421449122112800,3.33011279296875,-0.10679728537797928,-0.017188839614391327,-0.13131088018417358
1768421449132112600,3.340112548828125,-0.0971611738204956,0.027411384508013725,-0.13443051278591156
1768421449142112800,3.35011279296875,-0.09425566345453262,0.04652595520019531,-0.12589827179908752
1768421449152112600,3.360112548828125,-0.10293357074260712,0.044137366116046906,-0.1071791872382164
1768421449162112800,3.37011279296875,-0.11314386874437332,0.02304300107061863,-0.07384786009788513
1768421449172112600,3.380112548828125,-0.12345429509878159,-0.0068155620247125626,-0.026931483298540115
1768421449182112800,3.39011279296875,-0.12433020770549774,-0.03977404534816742,0.02887985110282898
1768421449192112600,3.400112548828125,-0.1188049465417862,-0.07870812714099884,0.07656801491975784
1768421449202112800,3.41011279296875,-0.11209537833929062,-0.11511833220720291,0.10053912550210953
1768421449212112600,3.420112548828125,-0.11240164190530777,-0.14237019419670105,0.1041298657655716
1768421449222111700,3.43011181640625,-0.11531327664852142,-0.15237781405448914,0.10611312091350555
1768421449232111600,3.440111572265625,-0.12859685719013214,-0.14850744605064392,0.12179514765739441
1768421449242111700,3.45011181640625,-0.1427752673625946,-0.11598359048366547,0.15138180553913116
1768421449252111600,3.460111572265625,-0.14884008467197418,-0.0613565668463707,0.1904575675725937
1768421449262111700,3.47011181640625,-0.14089266955852509,-0.01152616087347269,0.22400833666324615
1768421449272111600,3.480111572265625,-0.13167494535446167,0.04123425483703613,0.2487882524728775
1768421449282111700,3.49011181640625,-0.11777936667203903,0.09851698577404022,0.2620640993118286
1768421449292111600,3.500111572265625,-0.10508114844560623,0.16400225460529327,0.2755519449710846
1768421449302111700,3.51011181640625,-0.08598308265209198,0.21101689338684082,0.280487596988678
1768421449312111600,3.520111572265625,-0.07598744332790375,0.21521005034446716,0.2743772268295288
1768421449322111500,3.530111572265625,-0.07866951078176498,0.18317647278308868,0.25945794582366943
1768421449332111000,3.540111083984375,-0.06734761595726013,0.10950945317745209,0.223611518740654
1768421449342110200,3.550110107421875,-0.04511528089642525,0.04177727550268173,0.16208797693252563
1768421449352110000,3.560110107421875,-0.003751062322407961,-0.0007779093575663865,0.10269495099782944
1768421449362110200,3.570110107421875,0.04711025580763817,-0.017494305968284607,0.0698283463716507
1768421449372110000,3.580110107421875,0.10402333736419678,-0.014670821838080883,0.06767518073320389
1768421449382110200,3.590110107421875,0.15642902255058289,-0.000002663161012605997,0.07089600712060928
1768421449392110000,3.600110107421875,0.20357629656791687,0.010435330681502819,0.07420658320188522
1768421449402110500,3.6101103515625,0.24254126846790314,0.029891852289438248,0.08300034701824188
1768421449412110300,3.6201103515625,0.27640095353126526,0.05871790647506714,0.09529216587543488
1768421449422110200,3.630110107421875,0.30331674218177795,0.09043748676776886,0.10045177489519119
1768421449432110300,3.6401103515625,0.3243487775325775,0.11711543798446655,0.09710471332073212
1768421449442110200,3.650110107421875,0.33975356817245483,0.14078721404075623,0.0900510624051094
1768421449452110300,3.6601103515625,0.3351452350616455,0.16921432316303253,0.0837409719824791
1768421449462110200,3.670110107421875,0.3386153280735016,0.20865094661712646,0.07862583547830582
1768421449472109300,3.680109375,0.362382709980011,0.25416597723960876,0.06526422500610352
1768421449482109200,3.690109130859375,0.38393327593803406,0.2996208071708679,0.03756308928132057
1768421449492109300,3.700109375,0.42358773946762085,0.3463590145111084,-0.034689005464315414
1768421449502109200,3.710109130859375,0.4067312777042389,0.4031418561935425,-0.1308530867099762
1768421449512109300,3.720109375,0.3272196650505066,0.4599873125553131,-0.22892878949642181
1768421449522109200,3.730109130859375,0.21906444430351257,0.513380229473114,-0.33272096514701843
1768421449532109300,3.740109375,0.08758151531219482,0.5901786088943481,-0.43625906109809875
1768421449542109200,3.750109130859375,-0.0404432974755764,0.6498879790306091,-0.5043414831161499
1768421449552109300,3.760109375,-0.1423981636762619,0.6659484505653381,-0.5044525265693665
1768421449562109200,3.770109130859375,-0.20555715262889862,0.5757365226745605,-0.3945731520652771
1768421449572109300,3.780109375,-0.2704671621322632,0.5090379118919373,-0.07054447382688522
1768421449582108200,3.790108154296875,-0.3366009294986725,0.3972722589969635,0.3280599117279053
1768421449592108300,3.8001083984375,-0.4241536855697632,0.08676499128341675,0.39697983860969543
1768421449602108200,3.810108154296875,-0.6660872101783752,-0.31945469975471497,0.2916659414768219
1768421449612108300,3.8201083984375,-0.9423350691795349,-0.6886577606201172,0.17490896582603455
1768421449622108200,3.830108154296875,-0.9516840577125549,-0.8779030442237854,-0.09413555264472961
1768421449632108300,3.8401083984375,-0.7082636952400208,-0.8098766207695007,-0.416441947221756
1768421449642108200,3.850108154296875,-0.4386926591396332,-0.5686695575714111,-0.556272566318512
1768421449652108300,3.8601083984375,-0.12158075720071793,-0.24995550513267517,-0.5027512907981873
1768421449662108200,3.870108154296875,0.1920008659362793,0.06308096647262573,-0.4046156704425812
1768421449672108300,3.8801083984375,0.38539615273475647,0.24518924951553345,-0.36315903067588806
1768421449682108200,3.890108154296875,0.45413047075271606,0.254189133644104,-0.39798837900161743
1768421449692108000,3.90010791015625,0.4250873923301697,0.14999616146087646,-0.454841285943985
1768421449702108200,3.910108154296875,0.34862083196640015,-0.008688828907907009,-0.45476725697517395
1768421449712107300,3.920107177734375,0.2537364065647125,-0.21793286502361298,-0.3681796193122864
1768421449722107100,3.930107177734375,0.17098213732242584,-0.46915391087532043,-0.20875667035579681
1768421449732107300,3.940107177734375,0.10283742845058441,-0.7548950910568237,-0.08488825708627701
1768421449742107100,3.950107177734375,0.07610728591680527,-0.997922420501709,-0.05799006670713425
1768421449752107300,3.960107177734375,0.1190401017665863,-1.1339061260223389,-0.08133134245872498
1768421449762107100,3.970107177734375,0.20157359540462494,-1.1541796922683716,-0.11393775045871735
1768421449772107000,3.98010693359375,0.27973949909210205,-1.1018911600112915,-0.13526834547519684
1768421449782107100,3.990107177734375,0.3457169234752655,-1.029456615447998,-0.14453427493572235
1768421449792107300,4.000107177734375,0.406051903963089,-0.9711347222328186,-0.12951219081878662
1768421449802107400,4.010107421875,0.44289886951446533,-0.9346678256988525,-0.09888316690921783
1768421449812107300,4.020107177734375,0.45053789019584656,-0.8869114518165588,-0.050035737454891205
1768421449822107400,4.030107421875,0.4305889308452606,-0.8268784880638123,-0.004266117699444294
1768421449832106200,4.040106201171875,0.3872672915458679,-0.7622281312942505,0.02147466503083706
1768421449842106400,4.0501064453125,0.3184187114238739,-0.7021712064743042,0.0356951467692852
1768421449852106200,4.060106201171875,0.25445279479026794,-0.652954638004303,0.04453923925757408
1768421449862106400,4.0701064453125,0.19225946068763733,-0.5939693450927734,0.04345373436808586
1768421449872106200,4.080106201171875,0.15192082524299622,-0.5403212904930115,0.03521817550063133
1768421449882106400,4.0901064453125,0.1264474242925644,-0.4723856449127197,0.019581690430641174
1768421449892106200,4.100106201171875,0.10763884335756302,-0.40302574634552,0.0007009439868852496
1768421449902106400,4.1101064453125,0.08742385357618332,-0.35842472314834595,-0.019475962966680527
1768421449912106200,4.120106201171875,0.05913868919014931,-0.34775638580322266,-0.044998899102211
1768421449922106400,4.1301064453125,0.02954910323023796,-0.35289573669433594,-0.057680074125528336
1768421449932106200,4.140106201171875,0.011461446061730385,-0.36582058668136597,-0.048403218388557434
1768421449942106400,4.1501064453125,-0.0006085322820581496,-0.3786921799182892,-0.01672598347067833
1768421449952105200,4.160105224609375,-0.013078517280519009,-0.3797537088394165,0.01798512600362301
1768421449962105300,4.170105224609375,-0.01956145092844963,-0.36705976724624634,0.04508199170231819
1768421449972105200,4.180105224609375,-0.008901881985366344,-0.3281855881214142,0.06376592814922333
1768421449982105300,4.190105224609375,0.003698598127812147,-0.26621145009994507,0.0828956812620163
1768421449992105200,4.200105224609375,0.0016879114555194974,-0.2232368141412735,0.09691882133483887
1768421450002105300,4.210105224609375,-0.028174912557005882,-0.19968461990356445,0.1028805747628212
1768421450012105200,4.220105224609375,-0.07538183778524399,-0.19357825815677643,0.09978251904249191
1768421450022105300,4.230105224609375,-0.13278786838054657,-0.17651298642158508,0.0883873850107193
1768421450032105200,4.240105224609375,-0.17395341396331787,-0.14868667721748352,0.07813288271427155
1768421450042105000,4.25010498046875,-0.18119508028030396,-0.12732918560504913,0.06316564977169037
1768421450052105200,4.260105224609375,-0.17896601557731628,-0.11523764580488205,0.047018107026815414
1768421450062105000,4.27010498046875,-0.1790166199207306,-0.08645392954349518,0.04580104351043701
1768421450072105200,4.280105224609375,-0.19487467408180237,-0.018272213637828827,0.04893505200743675
1768421450082104300,4.290104248046875,-0.2401966154575348,0.08275426924228668,0.04266277328133583
1768421450092104200,4.300104248046875,-0.28987202048301697,0.09589909762144089,0.027337880805134773
1768421450102104000,4.31010400390625,-0.3171752989292145,-0.14805550873279572,-0.026850523427128792
1768421450112104200,4.320104248046875,-0.3502570688724518,-0.476926326751709,-0.10180705785751343
1768421450122104000,4.33010400390625,-0.41415271162986755,-0.7012137770652771,-0.16026051342487335
1768421450132104200,4.340104248046875,-0.48475202918052673,-0.8022615313529968,-0.23378239572048187
1768421450142104000,4.35010400390625,-0.4915774464607239,-0.8274369239807129,-0.33107805252075195
1768421450152104200,4.360104248046875,-0.4233696460723877,-0.8430675864219666,-0.40473631024360657
1768421450162104000,4.37010400390625,-0.322743684053421,-0.8369410037994385,-0.40691104531288147
1768421450172104200,4.380104248046875,-0.19457080960273743,-0.7537710070610046,-0.28915536403656006
1768421450182104000,4.39010400390625,-0.028236432000994682,-0.6101802587509155,0.017123060300946236
1768421450192104400,4.4001044921875,0.1985194832086563,-0.3867173492908478,0.4532598853111267
1768421450202103000,4.41010302734375,0.4059821367263794,-0.30605393648147583,0.6171561479568481
1768421450212103200,4.420103271484375,0.3070177435874939,-0.25121572613716125,0.4154352843761444
1768421450222103000,4.43010302734375,0.14246952533721924,0.10027014464139938,0.18010984361171722
1768421450232103200,4.440103271484375,0.17225751280784607,0.34614089131355286,0.05425684526562691
1768421450242103300,4.450103271484375,0.2009807825088501,0.2255665510892868,-0.056836117058992386
1768421450252103400,4.460103515625,0.10688197612762451,-0.07911026477813721,-0.12059032917022705
1768421450262103300,4.470103271484375,0.011484082788228989,-0.45445379614830017,-0.10179320722818375
1768421450272103400,4.480103515625,-0.0623541884124279,-0.7941045761108398,-0.11827044934034348
1768421450282103300,4.490103271484375,-0.11890694499015808,-0.9800403714179993,-0.12365775555372238
1768421450292103200,4.500103271484375,-0.13607394695281982,-1.0521955490112305,-0.06786160171031952
1768421450302103300,4.510103271484375,-0.11340964585542679,-1.0985994338989258,-0.0241940189152956
1768421450312103200,4.520103271484375,-0.09113816916942596,-1.0925378799438477,-0.03356941044330597
1768421450322102300,4.530102294921875,-0.06512707471847534,-1.0345726013183594,-0.01420556753873825
1768421450332102400,4.540102294921875,-0.03650448098778725,-0.9498544931411743,0.052986517548561096
1768421450342102300,4.550102294921875,-0.009635583497583866,-0.8306005001068115,0.10974007844924927
1768421450352102400,4.560102294921875,0.011846539564430714,-0.6918841600418091,0.09844428300857544
1768421450362102300,4.570102294921875,0.027771176770329475,-0.5437828898429871,0.0433429479598999
1768421450372102100,4.58010205078125,0.04474616423249245,-0.3949126899242401,0.00019148127466905862
1768421450382102300,4.590102294921875,0.057792991399765015,-0.3035210072994232,-0.024504011496901512
1768421450392102100,4.60010205078125,0.05523662269115448,-0.2371952384710312,-0.04651317372918129
1768421450402102500,4.6101025390625,0.036368925124406815,-0.1927950233221054,-0.076622873544693
1768421450412102400,4.620102294921875,0.00256355875171721,-0.16480652987957,-0.09010885655879974
1768421450422102500,4.6301025390625,-0.05012042447924614,-0.1735134720802307,-0.06402105838060379
1768421450432102400,4.640102294921875,-0.10709742456674576,-0.21029864251613617,-0.024898424744606018
1768421450442101200,4.650101318359375,-0.151546910405159,-0.23950952291488647,-0.005650694947689772
1768421450452101400,4.660101318359375,-0.17092061042785645,-0.26329687237739563,-0.021282652392983437
1768421450462101500,4.6701015625,-0.16349998116493225,-0.27804094552993774,-0.05540253967046738
1768421450472101400,4.680101318359375,-0.154085174202919,-0.2800918519496918,-0.07817203551530838
1768421450482101500,4.6901015625,-0.14535826444625854,-0.2587237060070038,-0.07837363332509995
1768421450492101400,4.700101318359375,-0.1390841156244278,-0.22375772893428802,-0.05913309380412102
1768421450502101500,4.7101015625,-0.12317252904176712,-0.19462327659130096,-0.0288191307336092
1768421450512101400,4.720101318359375,-0.0885610282421112,-0.16651707887649536,0.0049316417425870895
1768421450522101500,4.7301015625,-0.052927128970623016,-0.14338752627372742,0.04113678261637688
1768421450532101400,4.740101318359375,-0.015797073021531105,-0.13034789264202118,0.08095397055149078
1768421450542101500,4.7501015625,0.0233527272939682,-0.1237589567899704,0.10729822516441345
1768421450552101400,4.760101318359375,0.04423430562019348,-0.11021412163972855,0.10974220931529999
1768421450562100500,4.7701005859375,0.05048554390668869,-0.09612040966749191,0.09452889859676361
1768421450572100400,4.780100341796875,0.044742703437805176,-0.07235675305128098,0.07510273903608322
1768421450582100500,4.7901005859375,0.041796449571847916,-0.03093048557639122,0.06261730939149857
1768421450592100400,4.800100341796875,0.04223986342549324,0.030053505674004555,0.060918476432561874
1768421450602100500,4.8101005859375,0.05055878311395645,0.10619700700044632,0.06395608186721802
1768421450612100400,4.820100341796875,0.06945044547319412,0.17970745265483856,0.07571127265691757
1768421450622100500,4.8301005859375,0.0861697718501091,0.24321052432060242,0.08275400102138519
1768421450632100400,4.840100341796875,0.09147904813289642,0.28240853548049927,0.0818764865398407
1768421450642100200,4.850100341796875,0.07822316884994507,0.32087069749832153,0.07608438283205032
1768421450652100400,4.860100341796875,0.05571972206234932,0.35630032420158386,0.07318073511123657
1768421450662100200,4.870100341796875,0.03398220241069794,0.4082165062427521,0.06071794033050537
1768421450672100400,4.880100341796875,0.011420966126024723,0.4666436016559601,0.02797490917146206
1768421450682099500,4.890099365234375,0.0018434401135891676,0.5202229619026184,-0.0062829297967255116
1768421450692099300,4.900099365234375,0.0017574200173839927,0.5602356195449829,-0.02099183388054371
1768421450702099200,4.91009912109375,0.002621882129460573,0.5818343758583069,-0.03731594607234001
1768421450712099300,4.920099365234375,0.0025768745690584183,0.5863958597183228,-0.0671801045536995
1768421450722099200,4.93009912109375,-0.012665728107094765,0.5663962960243225,-0.09580589085817337
1768421450732099300,4.940099365234375,-0.029737388715147972,0.5252832174301147,-0.10005868971347809
1768421450742099200,4.95009912109375,-0.04450834542512894,0.4505504071712494,-0.07589742541313171
1768421450752099300,4.960099365234375,-0.05089646950364113,0.3443049192428589,-0.05609416216611862
1768421450762099200,4.97009912109375,-0.05992937833070755,0.24011006951332092,-0.04950763285160065
1768421450772099300,4.980099365234375,-0.10859811305999756,0.19574153423309326,-0.06071607768535614
1768421450782099200,4.99009912109375,-0.18216341733932495,0.18442709743976593,-0.14115658402442932
1768421450792099300,5.000099365234375,-0.21535812318325043,0.2529481053352356,-0.3061346113681793
1768421450802099500,5.010099365234375,-0.2398615926504135,0.4001689851284027,-0.47511327266693115
1768421450812098300,5.020098388671875,-0.2522205412387848,0.6111810803413391,-0.5521795749664307
1768421450822098200,5.03009814453125,-0.21636265516281128,0.8009592890739441,-0.5042940378189087
1768421450832098300,5.040098388671875,-0.17524771392345428,0.8045780062675476,-0.379753977060318
1768421450842098200,5.05009814453125,-0.23310968279838562,0.6591757535934448,-0.3509172797203064
1768421450852098600,5.0600986328125,-0.42068490386009216,0.4446810483932495,-0.5700714588165283
1768421450862098400,5.070098388671875,-0.6331052780151367,0.26933667063713074,-0.7399446368217468
1768421450872098600,5.0800986328125,-0.8696736097335815,0.11448822915554047,-0.5747056603431702
1768421450882098400,5.090098388671875,-1.039781928062439,-0.018793661147356033,-0.3440905213356018
1768421450892098300,5.100098388671875,-0.9180704355239868,0.04659067094326019,-0.3187686502933502
1768421450902098400,5.110098388671875,-0.6015700101852417,0.33044663071632385,-0.404853492975235
1768421450912098300,5.120098388671875,-0.2722885012626648,0.651242733001709,-0.44737643003463745
1768421450922097400,5.130097412109375,0.011026019230484962,1.0272587537765503,-0.35278016328811646
1768421450932097500,5.14009765625,0.22689253091812134,1.4004597663879395,-0.21238923072814941
1768421450942097400,5.150097412109375,0.38133111596107483,1.6835774183273315,-0.13511201739311218
1768421450952097500,5.16009765625,0.4567970931529999,1.8098478317260742,-0.18344944715499878
1768421450962097400,5.170097412109375,0.44055822491645813,1.7411110401153564,-0.3382193148136139
1768421450972097300,5.18009716796875,0.34697046875953674,1.549493432044983,-0.41669708490371704
1768421450982097400,5.190097412109375,0.2425878793001175,1.299332857131958,-0.29626867175102234
1768421450992097300,5.20009716796875,0.14992691576480865,1.0031592845916748,-0.044389836490154266
1768421451002097400,5.210097412109375,0.07436344772577286,0.6958680152893066,0.19126370549201965
1768421451012097300,5.22009716796875,0.037942323833703995,0.42333075404167175,0.2943277657032013
1768421451022097400,5.230097412109375,0.05380836874246597,0.2640007436275482,0.24510829150676727
1768421451032097300,5.24009716796875,0.13116121292114258,0.21405662596225739,0.12612038850784302
1768421451042096400,5.250096435546875,0.21014152467250824,0.2373715341091156,0.008080829866230488
1768421451052096300,5.26009619140625,0.23744983971118927,0.2897929251194,-0.07714591920375824
1768421451062096400,5.270096435546875,0.22504404187202454,0.33340513706207275,-0.10347845405340195
1768421451072096300,5.28009619140625,0.19675061106681824,0.3901387155056,-0.0788029357790947
1768421451082096400,5.290096435546875,0.17280586063861847,0.4495397210121155,-0.03459605947136879
1768421451092096300,5.30009619140625,0.1564343422651291,0.5228309631347656,0.020259732380509377
1768421451102096400,5.310096435546875,0.140675351023674,0.6002914309501648,0.08779403567314148
1768421451112096300,5.32009619140625,0.11933465301990509,0.6958386898040771,0.16518549621105194
1768421451122096400,5.330096435546875,0.10111276805400848,0.7926424741744995,0.24770806729793549
1768421451132096300,5.34009619140625,0.08684009313583374,0.8766382932662964,0.3237879276275635
1768421451142096400,5.350096435546875,0.08022692799568176,0.9463103413581848,0.38949155807495117
1768421451152096300,5.36009619140625,0.057667821645736694,0.9808046817779541,0.4290943741798401
1768421451162095400,5.370095458984375,0.02196894772350788,0.9978326559066772,0.4405078887939453
1768421451172095200,5.38009521484375,-0.0012841762509196997,1.0040138959884644,0.4203338921070099
1768421451182095400,5.390095458984375,-0.02412104792892933,1.019958257675171,0.3736926317214966
1768421451192095200,5.40009521484375,-0.04078711196780205,1.0366370677947998,0.3143824338912964
1768421451202095400,5.410095458984375,-0.05281048268079758,1.0429562330245972,0.25480565428733826
1768421451212095200,5.42009521484375,-0.0610622875392437,1.039926290512085,0.21936990320682526
1768421451222095400,5.430095458984375,-0.06276697665452957,1.0412088632583618,0.2125823050737381
1768421451232095200,5.44009521484375,-0.06826747208833694,1.0308561325073242,0.22435641288757324
1768421451242095400,5.450095458984375,-0.08572661876678467,1.0086251497268677,0.24468937516212463
1768421451252095500,5.460095458984375,-0.11128364503383636,0.9812344908714294,0.2610659599304199
1768421451262095400,5.470095458984375,-0.1385546773672104,0.951825737953186,0.250118225812912
1768421451272095500,5.480095458984375,-0.16584382951259613,0.9332855939865112,0.2127319723367691
1768421451282095400,5.490095458984375,-0.18729080259799957,0.9304720163345337,0.15951243042945862
1768421451292094500,5.500094482421875,-0.2068714201450348,0.9231509566307068,0.11466692388057709
1768421451302094300,5.51009423828125,-0.23368173837661743,0.8977696895599365,0.08755674958229065
1768421451312094500,5.520094482421875,-0.265470027923584,0.8640498518943787,0.06349269300699234
1768421451322094300,5.53009423828125,-0.30235880613327026,0.8340072631835938,0.05220887437462807
1768421451332094000,5.540093994140625,-0.3457592725753784,0.7920629978179932,0.046851128339767456
1768421451342093800,5.55009375,-0.42069369554519653,0.7085481286048889,0.05072123557329178
1768421451352094200,5.56009423828125,-0.5215606689453125,0.5727987885475159,0.05805185064673424
1768421451362094000,5.570093994140625,-0.6127867102622986,0.5173659324645996,0.10592563450336456
1768421451372094200,5.58009423828125,-0.6239488124847412,0.5940537452697754,0.1455550640821457
1768421451382094000,5.590093994140625,-0.5406491160392761,0.6943385601043701,0.08933919668197632
1768421451392094200,5.60009423828125,-0.4077954590320587,0.752923309803009,-0.008298410102725029
1768421451402094000,5.610093994140625,-0.3164706230163574,0.7741659879684448,-0.07875313609838486
1768421451412093200,5.62009326171875,-0.2821241021156311,0.7875763773918152,-0.09793082624673843
1768421451422093000,5.630093017578125,-0.28046759963035583,0.7956750392913818,-0.06701978296041489
1768421451432093200,5.64009326171875,-0.24750539660453796,0.8348610401153564,0.016465259715914726
1768421451442093000,5.650093017578125,-0.1519266813993454,0.920512855052948,0.13476420938968658
1768421451452093200,5.66009326171875,-0.005539641249924898,1.097521185874939,0.3507247269153595
1768421451462093000,5.670093017578125,0.14355556666851044,1.1811667680740356,0.6367327570915222
1768421451472093200,5.68009326171875,0.19837114214897156,1.216547966003418,0.8125861287117004
1768421451482093000,5.690093017578125,0.16522011160850525,1.2920382022857666,0.7216386198997498
1768421451492093200,5.70009326171875,0.10284089297056198,1.3765581846237183,0.4717976152896881
1768421451502093000,5.710093017578125,0.06727065145969391,1.4788386821746826,0.2352391481399536
1768421451512093200,5.72009326171875,0.04410301148891449,1.607264518737793,-0.0021694109309464693
1768421451522093000,5.730093017578125,-0.003287938656285405,1.6802674531936646,-0.18107977509498596
1768421451532092200,5.740092041015625,-0.014464959502220154,1.764684796333313,-0.15098631381988525
1768421451542092000,5.750092041015625,0.03946138918399811,1.8346138000488281,0.0327446311712265
1768421451552092200,5.760092041015625,0.09223885089159012,1.7771196365356445,0.19011534750461578
1768421451562092000,5.770092041015625,0.11212626844644547,1.6599421501159668,0.2660391330718994
1768421451572092200,5.780092041015625,0.0977151095867157,1.5874581336975098,0.29918164014816284
1768421451582092000,5.790092041015625,0.06768157333135605,1.5472843647003174,0.30450955033302307
1768421451592092200,5.800092041015625,0.03111530840396881,1.4944871664047241,0.2683904469013214
1768421451602092000,5.810092041015625,-0.008156463503837585,1.420764684677124,0.18587426841259003
1768421451612092000,5.820091796875,-0.029454028233885765,1.3457504510879517,0.08836235105991364
1768421451622092000,5.830092041015625,-0.04699547216296196,1.297325611114502,-0.007955394685268402
1768421451632092000,5.840091796875,-0.04751452058553696,1.305751919746399,-0.04232189059257507
1768421451642092000,5.850092041015625,-0.03554707393050194,1.3372770547866821,-0.0007387608638964593
1768421451652091100,5.860091064453125,-0.02779248170554638,1.3778988122940063,0.07600422203540802
1768421451662091000,5.870091064453125,-0.036613404750823975,1.4274290800094604,0.12424498796463013
1768421451672091000,5.8800908203125,-0.062185876071453094,1.4872002601623535,0.14556652307510376
1768421451682091000,5.890091064453125,-0.09981687366962433,1.543738842010498,0.1660374402999878
1768421451692091000,5.9000908203125,-0.14320455491542816,1.5918115377426147,0.1695171296596527
1768421451702091000,5.910091064453125,-0.1898876428604126,1.6479331254959106,0.14914900064468384
1768421451712091000,5.9200908203125,-0.2277040034532547,1.706605315208435,0.11435640603303909
1768421451722091000,5.930091064453125,-0.2616632878780365,1.7597758769989014,0.0849875956773758
1768421451732091000,5.9400908203125,-0.2924771308898926,1.8009037971496582,0.06431321054697037
1768421451742091300,5.95009130859375,-0.32685163617134094,1.8204071521759033,0.046423692256212234
1768421451752091100,5.960091064453125,-0.3583317697048187,1.843339443206787,0.045878008008003235
1768421451762091300,5.97009130859375,-0.3711636960506439,1.8869116306304932,0.05830192193388939
1768421451772089900,5.98008984375,-0.3642280101776123,1.931581974029541,0.08739162981510162
1768421451782090000,5.990090087890625,-0.3449467420578003,1.9658176898956299,0.12614648044109344
1768421451792090000,6.000090087890625,-0.3190693259239197,2.00203537940979,0.17150330543518066
1768421451802090200,6.01009033203125,-0.2926047146320343,2.028959274291992,0.20465168356895447
1768421451812090000,6.020090087890625,-0.26951509714126587,2.0300049781799316,0.22571249306201935
1768421451822090200,6.03009033203125,-0.2620079219341278,1.9996200799942017,0.23716408014297485
1768421451832090000,6.040090087890625,-0.2572650909423828,1.9519060850143433,0.24101661145687103
1768421451842090200,6.05009033203125,-0.24337376654148102,1.8764801025390625,0.24251730740070343
1768421451852090000,6.060090087890625,-0.22637374699115753,1.7883610725402832,0.23362234234809875
1768421451862090000,6.070090087890625,-0.19679561257362366,1.6837340593338013,0.20424820482730865
1768421451872090000,6.080090087890625,-0.15699893236160278,1.5816471576690674,0.15819096565246582
1768421451882090000,6.090090087890625,-0.11904463171958923,1.4707618951797485,0.10521537065505981
1768421451892089000,6.100089111328125,-0.0825880840420723,1.3380413055419922,0.060512345284223557
1768421451902089200,6.110089111328125,-0.05065865069627762,1.2001372575759888,0.028806880116462708
1768421451912089000,6.120089111328125,-0.020956680178642273,1.0647187232971191,0.005931658670306206
1768421451922089200,6.130089111328125,0.01053440012037754,0.945620596408844,-0.008312790654599667
1768421451932089000,6.140089111328125,0.05625341832637787,0.8519731760025024,-0.014316354878246784
1768421451942089000,6.1500888671875,0.10278336703777313,0.7671903967857361,-0.0261213481426239
1768421451952089000,6.160089111328125,0.13683773577213287,0.695166826248169,-0.03843687102198601
1768421451962089000,6.1700888671875,0.15978646278381348,0.6315745115280151,-0.061777614057064056
1768421451972089000,6.180089111328125,0.18151946365833282,0.5751285552978516,-0.09342288970947266
1768421451982089000,6.1900888671875,0.20327162742614746,0.5215329527854919,-0.1254202425479889
1768421451992089000,6.200089111328125,0.21975499391555786,0.5111485123634338,-0.13501614332199097
1768421452002089000,6.2100888671875,0.23847489058971405,0.5277921557426453,-0.14467889070510864
1768421452012089000,6.220089111328125,0.25049611926078796,0.5656487345695496,-0.1729544699192047
1768421452022088000,6.230087890625,0.2602129280567169,0.6028538942337036,-0.1954006552696228
1768421452032088000,6.240088134765625,0.26376986503601074,0.6158884763717651,-0.22117659449577332
1768421452042088000,6.250087890625,0.26682770252227783,0.5454130172729492,-0.2531680762767792
1768421452052088000,6.260088134765625,0.28041860461235046,0.39263489842414856,-0.24224485456943512
1768421452062088000,6.270087890625,0.3073490262031555,0.33730000257492065,-0.17190705239772797
1768421452072088000,6.280088134765625,0.3327667713165283,0.43516743183135986,-0.17865310609340668
1768421452082088000,6.290087890625,0.3336344361305237,0.5976991057395935,-0.2873891592025757
1768421452092088000,6.300088134765625,0.2898389995098114,0.7755069136619568,-0.4141297936439514
1768421452102088000,6.310087890625,0.20503810048103333,0.9241619110107422,-0.5283858180046082
1768421452112088000,6.320088134765625,0.10481482744216919,1.0196921825408936,-0.6139105558395386
1768421452122088000,6.330087890625,0.01432567648589611,1.094099760055542,-0.6210308074951172
1768421452132088000,6.340088134765625,-0.0446510910987854,1.0744377374649048,-0.49122804403305054
1768421452142087000,6.3500869140625,-0.14544402062892914,0.8937216997146606,-0.32865431904792786
1768421452152087000,6.360087158203125,-0.3288511335849762,0.6174227595329285,-0.28074803948402405
1768421452162087000,6.3700869140625,-0.5547404289245605,0.33191296458244324,-0.3120154142379761
1768421452172087000,6.380087158203125,-0.6718159317970276,0.12846902012825012,-0.3009723424911499
1768421452182087000,6.3900869140625,-0.5695511102676392,0.07632007449865341,-0.3069487512111664
1768421452192087300,6.40008740234375,-0.42609912157058716,0.1935601383447647,-0.40847164392471313
1768421452202087200,6.410087158203125,-0.2527148127555847,0.43451789021492004,-0.572558581829071
1768421452212087000,6.420087158203125,-0.03231719508767128,0.7438568472862244,-0.7171549201011658
1768421452222087200,6.430087158203125,0.14516012370586395,1.0639504194259644,-0.7425063252449036
1768421452232087000,6.440087158203125,0.23972950875759125,1.2653183937072754,-0.6901012063026428
1768421452242087200,6.450087158203125,0.22364240884780884,1.3172409534454346,-0.6215908527374268
1768421452252087000,6.460087158203125,0.11099789291620255,1.2199487686157227,-0.5596159100532532
1768421452262086100,6.470086181640625,-0.024649420753121376,1.024299144744873,-0.4729718267917633
1768421452272086000,6.4800859375,-0.13644813001155853,0.7877281308174133,-0.31914258003234863
1768421452282086100,6.490086181640625,-0.20503677427768707,0.5222602486610413,-0.10797573626041412
1768421452292086000,6.5000859375,-0.21923302114009857,0.2024977058172226,0.06512893736362457
1768421452302086100,6.510086181640625,-0.19513992965221405,-0.13104882836341858,0.12828660011291504
1768421452312086000,6.5200859375,-0.1502496898174286,-0.4179588854312897,0.06981902569532394
1768421452322086100,6.530086181640625,-0.07344332337379456,-0.6305673122406006,-0.06619739532470703
1768421452332086000,6.5400859375,0.0244922935962677,-0.7293708324432373,-0.22096726298332214
1768421452342086100,6.550086181640625,0.09833056479692459,-0.7342138290405273,-0.34810736775398254
1768421452352086000,6.5600859375,0.135630801320076,-0.6755185127258301,-0.4294147491455078
1768421452362086100,6.570086181640625,0.1545397788286209,-0.5822479724884033,-0.4725968539714813
1768421452372086000,6.5800859375,0.17059651017189026,-0.4939223825931549,-0.47155022621154785
1768421452382085000,6.590085205078125,0.1793106347322464,-0.42964643239974976,-0.4249824583530426
1768421452392085000,6.6000849609375,0.19338065385818481,-0.4285731911659241,-0.3417845070362091
1768421452402085000,6.610085205078125,0.22302429378032684,-0.42267802357673645,-0.2270139753818512
1768421452412085000,6.6200849609375,0.24385526776313782,-0.42374300956726074,-0.09953564405441284
1768421452422085000,6.630085205078125,0.2601735293865204,-0.42293447256088257,0.021915685385465622
1768421452432085000,6.6400849609375,0.2539057731628418,-0.42596861720085144,0.12290461361408234
1768421452442085000,6.650085205078125,0.239059716463089,-0.43370163440704346,0.17771780490875244
1768421452452085000,6.6600849609375,0.22359447181224823,-0.43049439787864685,0.1798752248287201
1768421452462085000,6.670085205078125,0.2092088758945465,-0.4478773772716522,0.14337792992591858
1768421452472085000,6.6800849609375,0.19429518282413483,-0.47692394256591797,0.09203511476516724
1768421452482084900,6.6900849609375,0.18442337214946747,-0.5062983632087708,0.054616108536720276
1768421452492085000,6.7000849609375,0.17284074425697327,-0.5552824139595032,0.02377830073237419
1768421452502084000,6.710083984375,0.14917324483394623,-0.6019971966743469,-0.010126137174665928
1768421452512084000,6.720083984375,0.1167769506573677,-0.6398603916168213,-0.030113426968455315
1768421452522084000,6.730083984375,0.0795464888215065,-0.6680925488471985,-0.03457874804735184
1768421452532084000,6.740083984375,0.04880509153008461,-0.6857730150222778,-0.02056732587516308
1768421452542084000,6.750083984375,0.018132664263248444,-0.7074666023254395,-0.00515854312106967
1768421452552084000,6.760083984375,-0.03129267692565918,-0.7467663288116455,-0.009769007563591003
1768421452562083800,6.770083740234375,-0.08567522466182709,-0.796633243560791,-0.01889193244278431
1768421452572084000,6.780083984375,-0.13614052534103394,-0.8255375623703003,-0.009431584738194942
1768421452582084000,6.790083984375,-0.16898901760578156,-0.8111844658851624,0.03418300300836563
1768421452592084200,6.800084228515625,-0.16888462007045746,-0.7705078721046448,0.09753427654504776
1768421452602084000,6.810083984375,-0.15567481517791748,-0.7287247776985168,0.16003121435642242
1768421452612084200,6.820084228515625,-0.14269323647022247,-0.6942828893661499,0.22110149264335632
1768421452622084000,6.830083984375,-0.16914907097816467,-0.6247658729553223,0.27769365906715393
1768421452632083200,6.840083251953125,-0.23560667037963867,-0.4243249297142029,0.323343425989151
1768421452642083000,6.8500830078125,-0.25215741991996765,-0.40011730790138245,0.2825363576412201
1768421452652083200,6.860083251953125,-0.2005477398633957,-0.7113484144210815,0.20196481049060822
1768421452662083000,6.8700830078125,-0.13083843886852264,-0.9237991571426392,0.17989572882652283
1768421452672083200,6.880083251953125,-0.07980268448591232,-0.9740293025970459,0.12983016669750214
1768421452682083000,6.8900830078125,-0.05733839049935341,-0.9985823631286621,-0.011769840493798256
1768421452692083200,6.900083251953125,0.0007009439868852496,-1.0755466222763062,-0.16244830191135406
1768421452702083000,6.9100830078125,0.08647816628217697,-1.1689460277557373,-0.2675448954105377
1768421452712083200,6.920083251953125,0.12781815230846405,-1.2350773811340332,-0.37237784266471863
1768421452722083000,6.9300830078125,0.09993059188127518,-1.312349557876587,-0.456820547580719
1768421452732083200,6.940083251953125,0.07036444544792175,-1.3940268754959106,-0.476845383644104
1768421452742083000,6.9500830078125,0.06321945041418076,-1.3894957304000854,-0.4136059582233429
1768421452752082200,6.960082275390625,0.10101689398288727,-1.3270467519760132,-0.2540498673915863
1768421452762082000,6.97008203125,0.1668933779001236,-1.2456011772155762,0.04567720741033554
1768421452772082200,6.980082275390625,0.22480913996696472,-1.1949201822280884,0.424060195684433
1768421452782082000,6.99008203125,0.18394507467746735,-1.0943880081176758,0.4487820565700531
1768421452792082200,7.000082275390625,0.10598049312829971,-0.8969388008117676,0.12763172388076782
1768421452802082000,7.01008203125,0.1392897218465805,-0.6150234937667847,-0.17900890111923218
1768421452812082200,7.020082275390625,0.30103227496147156,-0.5040149688720703,-0.30813464522361755
1768421452822082000,7.03008203125,0.36054328083992004,-0.6126183867454529,-0.3712840676307678
1768421452832082000,7.04008203125,0.29723939299583435,-0.7957285642623901,-0.3056747019290924
1768421452842082000,7.05008203125,0.2375829964876175,-1.1497327089309692,-0.16483156383037567
1768421452852082000,7.06008203125,0.19544939696788788,-1.5129410028457642,-0.026271019130945206
1768421452862082000,7.07008203125,0.1381932944059372,-1.6919690370559692,0.15118099749088287
1768421452872082000,7.08008203125,0.16403208673000336,-1.8106088638305664,0.2937812805175781
1768421452882081000,7.0900810546875,0.2199515402317047,-1.8788843154907227,0.29932811856269836
1768421452892081000,7.100080810546875,0.22112146019935608,-1.8031160831451416,0.16260462999343872
1768421452902081000,7.1100810546875,0.19325707852840424,-1.640426516532898,0.06987681984901428
1768421452912081000,7.120080810546875,0.177847757935524,-1.4595047235488892,0.16453275084495544
1768421452922081000,7.1300810546875,0.18361084163188934,-1.2651625871658325,0.3016836941242218
1768421452932081000,7.140080810546875,0.18362069129943848,-1.0701590776443481,0.30091801285743713
1768421452942081000,7.1500810546875,0.14578543603420258,-0.8742790222167969,0.21285873651504517
1768421452952081000,7.160080810546875,0.09920967370271683,-0.7059025168418884,0.15105316042900085
1768421452962081000,7.1700810546875,0.04429715871810913,-0.5829811096191406,0.14080984890460968
1768421452972081000,7.180080810546875,-0.02971581742167473,-0.487004816532135,0.16936878859996796
1768421452982081300,7.190081298828125,-0.0964282676577568,-0.40976062417030334,0.20789779722690582
1768421452992081200,7.2000810546875,-0.11678813397884369,-0.342618852853775,0.2514492869377136
1768421453002080000,7.210080078125,-0.11302375793457031,-0.2679488956928253,0.3313278555870056
1768421453012079900,7.220079833984375,-0.07637520134449005,-0.17953647673130035,0.43069973587989807
1768421453022080000,7.230080078125,-0.03687918931245804,-0.12214508652687073,0.5026125311851501
1768421453032080100,7.240080078125,-0.0007835020078346133,-0.07275516539812088,0.5306375026702881
1768421453042080300,7.250080322265625,0.02761218696832657,-0.021219534799456596,0.5264270305633545
1768421453052080000,7.260080078125,0.034701522439718246,0.011417770758271217,0.4987746477127075
1768421453062080300,7.270080322265625,0.019169699400663376,0.03249163180589676,0.4666356146335602
1768421453072080100,7.280080078125,0.0021283982787281275,0.03231612965464592,0.44617828726768494
1768421453082080000,7.290080078125,-0.0024176177103072405,0.02454742044210434,0.43018412590026855
1768421453092080000,7.300080078125,-0.006101301871240139,-0.008440889418125153,0.4089158773422241
1768421453102080000,7.310080078125,-0.017294567078351974,-0.055392686277627945,0.3905664086341858
1768421453112080100,7.320080078125,-0.03271640092134476,-0.0893932655453682,0.39026281237602234
1768421453122080000,7.330080078125,-0.03562750294804573,-0.08995865285396576,0.40289124846458435
1768421453132079000,7.3400791015625,-0.03183356299996376,-0.04290618747472763,0.40099242329597473
1768421453142079200,7.350079345703125,-0.01318051666021347,0.04843943938612938,0.36587464809417725
1768421453152079000,7.3600791015625,0.017407752573490143,0.1536414921283722,0.28688690066337585
1768421453162079000,7.370078857421875,0.05338785797357559,0.23618164658546448,0.17245832085609436
1768421453172079000,7.3800791015625,0.07856778055429459,0.2906555235385895,0.04730626195669174
1768421453182079000,7.390078857421875,0.0960618183016777,0.3142207860946655,-0.06684987246990204
1768421453192079000,7.4000791015625,0.11783262342214584,0.33685925602912903,-0.13467712700366974
1768421453202079000,7.410078857421875,0.1388644129037857,0.36211374402046204,-0.1433395892381668
1768421453212079000,7.4200791015625,0.1481361985206604,0.37126410007476807,-0.10168828070163727
1768421453222079000,7.430078857421875,0.15755313634872437,0.35580524802207947,-0.03139946609735489
1768421453232079000,7.4400791015625,0.1585931032896042,0.32353413105010986,0.04566788673400879
1768421453242079000,7.450078857421875,0.1497652530670166,0.26475095748901367,0.12149927020072937
1768421453252079000,7.4600791015625,0.11919590085744858,0.18432404100894928,0.2209869772195816
1768421453262078000,7.470077880859375,0.0387340784072876,0.14049026370048523,0.3406286835670471
1768421453272078000,7.480078125,-0.05289250984787941,0.12065397948026657,0.3578886389732361
1768421453282078000,7.490077880859375,-0.12280154973268509,0.17532362043857574,0.24688860774040222
1768421453292078000,7.500078125,-0.16312314569950104,0.28756654262542725,0.11990190297365189
1768421453302078000,7.510077880859375,-0.16099900007247925,0.4207104742527008,0.07548782974481583
1768421453312078000,7.520078125,-0.13569951057434082,0.49082911014556885,0.10557463020086288
1768421453322078000,7.530077880859375,-0.11960230022668839,0.4925042390823364,0.2191491276025772
1768421453332078000,7.540078125,-0.13637222349643707,0.4712042808532715,0.40652620792388916
1768421453342078200,7.550078125,-0.19444511830806732,0.46129173040390015,0.6557155251502991
1768421453352078000,7.560078125,-0.18367049098014832,0.48900243639945984,0.9056217670440674
1768421453362078200,7.570078125,-0.08286585658788681,0.5241345763206482,1.0628905296325684
1768421453372078000,7.580078125,0.039680033922195435,0.5354479551315308,1.0864427089691162
1768421453382077200,7.5900771484375,0.14364051818847656,0.5168710947036743,1.0101231336593628
1768421453392077300,7.600077392578125,0.21316874027252197,0.5908252000808716,0.8853529691696167
1768421453402077200,7.6100771484375,0.2570485770702362,0.5040631294250488,0.7402431964874268
1768421453412077300,7.620077392578125,0.29598158597946167,0.5585618019104004,0.6295806169509888
1768421453422077200,7.6300771484375,0.314521461725235,0.5787903666496277,0.568756103515625
1768421453432077000,7.6400771484375,0.3334980607032776,0.623066246509552,0.5914827585220337
1768421453442077200,7.6500771484375,0.3370209038257599,0.6498928070068359,0.7075278759002686
1768421453452077000,7.6600771484375,0.3260617256164551,0.6483747959136963,0.876061737537384
1768421453462077200,7.6700771484375,0.31876254081726074,0.6498134136199951,1.037900447845459
1768421453472077000,7.6800771484375,0.32769903540611267,0.6477692127227783,1.1549005508422852
1768421453482077200,7.6900771484375,0.34532755613327026,0.6154307126998901,1.2357333898544312
1768421453492077000,7.7000771484375,0.3531394302845001,0.5647464990615845,1.2804052829742432
1768421453502077400,7.710077392578125,0.3591054379940033,0.5025501847267151,1.2933231592178345
1768421453512076000,7.720075927734375,0.36738866567611694,0.4380452632904053,1.2874597311019897
1768421453522076200,7.730076171875,0.3788900673389435,0.39992237091064453,1.2949501276016235
1768421453532076000,7.740075927734375,0.39348310232162476,0.38413727283477783,1.3289618492126465
1768421453542076200,7.750076171875,0.40272533893585205,0.36402827501296997,1.3530479669570923
1768421453552076300,7.760076171875,0.3904087543487549,0.3295672535896301,1.349690556526184
1768421453562076400,7.770076416015625,0.3727288246154785,0.2985430061817169,1.3382943868637085
1768421453572076300,7.780076171875,0.3532760441303253,0.26861682534217834,1.3518365621566772
1768421453582076400,7.790076416015625,0.337277889251709,0.22690825164318085,1.3896979093551636
1768421453592076300,7.800076171875,0.32571765780448914,0.19242830574512482,1.4437174797058105
1768421453602076400,7.810076416015625,0.3038315176963806,0.177734836935997,1.5174928903579712
1768421453612076300,7.820076171875,0.3401740789413452,0.19677405059337616,1.5384212732315063
1768421453622076200,7.830076171875,0.3546443581581116,0.19320061802864075,1.559267520904541
1768421453632076300,7.840076171875,0.38268959522247314,0.1909766048192978,1.5750008821487427
1768421453642075400,7.850075439453125,0.3910204768180847,0.17113952338695526,1.5813943147659302
1768421453652075300,7.8600751953125,0.38036730885505676,0.14892929792404175,1.6112127304077148
1768421453662075400,7.870075439453125,0.36045539379119873,0.1232345849275589,1.643476128578186
1768421453672075300,7.8800751953125,0.33656683564186096,0.0637211874127388,1.654829740524292
1768421453682075100,7.8900751953125,0.31456565856933594,-0.03521471098065376,1.6787408590316772
1768421453692075300,7.9000751953125,0.28214195370674133,-0.15757764875888824,1.749887228012085
1768421453702075100,7.9100751953125,0.25745442509651184,-0.2506878674030304,1.8210666179656982
1768421453712075300,7.9200751953125,0.24285632371902466,-0.3148365020751953,1.8550517559051514
1768421453722075100,7.9300751953125,0.3067202568054199,-0.38705185055732727,1.8530490398406982
1768421453732075300,7.9400751953125,0.3696504831314087,-0.4162834882736206,1.8965851068496704
1768421453742075100,7.9500751953125,0.4212532341480255,-0.4364905059337616,2.0100958347320557
1768421453752075300,7.9600751953125,0.49654850363731384,-0.43324118852615356,2.1167826652526855
1768421453762075100,7.9700751953125,0.5539630651473999,-0.41392767429351807,2.1675002574920654
1768421453772074200,7.98007421875,0.5766990184783936,-0.37460076808929443,2.1612823009490967
1768421453782074000,7.99007421875,0.5657193064689636,-0.2690839171409607,2.1614015102386475
1768421453792074200,8.00007421875,0.5177651047706604,-0.17872367799282074,2.2036850452423096
1768421453802074000,8.01007421875,0.42670443654060364,-0.03195660188794136,2.306675672531128
1768421453812074200,8.02007421875,0.35826706886291504,0.028484638780355453,2.444457530975342
1768421453822074000,8.03007421875,0.32212957739830017,0.14280055463314056,2.6088290214538574
1768421453832074200,8.04007421875,0.3143254518508911,0.24131327867507935,2.7232446670532227
1768421453842074000,8.05007421875,0.3423469662666321,0.34767648577690125,2.7377614974975586
1768421453852074200,8.06007421875,0.3901118040084839,0.5210647583007812,2.7471725940704346
1768421453862074000,8.07007421875,0.4726160168647766,0.7247510552406311,2.7705326080322266
1768421453872074200,8.08007421875,0.565694272518158,0.8688424229621887,2.7956619262695312
1768421453882074000,8.09007421875,0.6226800680160522,0.9271275997161865,2.8079898357391357
1768421453892074200,8.10007421875,0.6504523158073425,0.9170762896537781,2.81851863861084
1768421453902073000,8.110072998046874,0.7222186326980591,0.8356354832649231,2.8405497074127197
1768421453912073200,8.1200732421875,0.793049156665802,0.6258271336555481,2.885089159011841
1768421453922073000,8.130072998046876,0.9008222222328186,0.3339819610118866,2.9106202125549316
1768421453932073200,8.1400732421875,1.0402277708053589,0.09332142770290375,2.940609931945801
1768421453942073300,8.1500732421875,1.15324068069458,-0.2504042387008667,2.9431650638580322
1768421453952073200,8.1600732421875,1.1786836385726929,-0.5940646529197693,2.853895902633667
1768421453962073300,8.1700732421875,1.122564435005188,-0.7501397728919983,2.746084213256836
1768421453972073200,8.1800732421875,0.9710617661476135,-0.6861192584037781,2.746187686920166
1768421453982073300,8.1900732421875,0.7359038591384888,-0.7126360535621643,2.819371223449707
1768421453992073200,8.2000732421875,0.5387601256370544,-1.0333752632141113,2.8870527744293213
1768421454002073300,8.2100732421875,0.34341567754745483,-1.2871297597885132,2.8888673782348633
1768421454012073200,8.2200732421875,0.16781456768512726,-1.1030163764953613,2.958651542663574
1768421454022073300,8.2300732421875,0.10166750848293304,-0.5087282061576843,3.0822296142578125
1768421454032072200,8.240072265625,0.14981719851493835,0.2000843584537506,3.1240031719207764
1768421454042072300,8.250072265625,0.16142325103282928,0.8124039173126221,2.974400758743286
1768421454052072200,8.260072265625,0.06883419305086136,1.2593364715576172,2.791830062866211
1768421454062072300,8.270072265625,-0.11139283329248428,1.8028713464736938,2.6108551025390625
1768421454072072200,8.280072265625,-0.26107901334762573,3.0603787899017334,2.2204551696777344
1768421454082072300,8.290072265625,-0.15751612186431885,4.041024208068848,1.5456345081329346
1768421454092072200,8.300072265625,0.08276385813951492,4.442561149597168,1.1939805746078491
1768421454102072300,8.310072265625,0.417896032333374,5.324608325958252,1.0666849613189697
1768421454112072200,8.320072265625,0.5213299989700317,6.286495208740234,1.0368125438690186
1768421454122072300,8.330072265625,0.3637814223766327,6.475326061248779,1.4929697513580322
1768421454132072200,8.340072265625,0.15193147957324982,6.184943199157715,1.9498027563095093
1768421454142072300,8.350072265625,-0.09640030562877655,5.392146110534668,1.6625142097473145
1768421454152072200,8.360072265625,-0.21586838364601135,4.334707736968994,0.8558565974235535
1768421454162071300,8.3700712890625,-0.33331751823425293,3.2928709983825684,-0.18195435404777527
1768421454172071200,8.3800712890625,-0.46564945578575134,3.5096216201782227,-0.17954686284065247
1768421454182071300,8.3900712890625,-0.5557018518447876,1.8980114459991455,-0.5627211332321167
1768421454192071200,8.4000712890625,-0.4855853319168091,0.5621967911720276,-0.6850161552429199
1768421454202071300,8.4100712890625,0.004461593925952911,0.19449491798877716,-0.12569481134414673
1768421454212071200,8.4200712890625,1.2829749584197998,2.0750977993011475,0.17285779118537903
1768421454222071300,8.4300712890625,2.6597745418548584,0.5300455093383789,0.626586377620697
1768421454232071200,8.4400712890625,1.5709763765335083,-0.7944576740264893,0.06514198333024979
1768421454242071000,8.450071044921875,0.44390153884887695,-1.5571420192718506,0.4732716977596283
1768421454252071200,8.4600712890625,0.35481348633766174,-0.32401108741760254,1.1876167058944702
1768421454262071000,8.470071044921875,0.08919592201709747,0.37448224425315857,0.1840028613805771
1768421454272071200,8.4800712890625,0.33919110894203186,0.08853013068437576,0.5717218518257141
1768421454282070300,8.4900703125,0.49755358695983887,-0.3241879343986511,0.5301613211631775
1768421454292070100,8.500070068359374,0.8342530727386475,-0.07655017077922821,0.1685570627450943
1768421454302070000,8.510070068359376,0.829277753829956,0.09719286113977432,-0.49134787917137146
1768421454312070100,8.520070068359376,0.511664092540741,-0.7089363932609558,-0.6547863483428955
1768421454322070000,8.530070068359375,-0.09633372724056244,-1.5971070528030396,-0.13124670088291168
1768421454332070100,8.540070068359375,-0.3836669623851776,-1.837377905845642,0.3565645217895508
1768421454342070500,8.550070556640625,-0.434740275144577,-1.527443528175354,0.47983503341674805
1768421454352070700,8.560070556640625,-0.17441947758197784,-0.8690544366836548,0.305370032787323
1768421454362070800,8.57007080078125,0.1295689046382904,-0.5866491198539734,0.13886414468288422
1768421454372071000,8.58007080078125,0.13023310899734497,-0.4102399945259094,-0.00008096009696600959
1768421454382070800,8.59007080078125,-0.15667615830898285,-0.48991671204566956,-0.11097179353237152
1768421454392070700,8.600070556640626,-0.37969937920570374,-0.3930729925632477,-0.20718301832675934
1768421454402070800,8.61007080078125,-0.3640088438987732,-0.4565640687942505,-0.19286799430847168
1768421454412070700,8.620070556640625,-0.2041318267583847,-0.6694228053092957,-0.06733722984790802
1768421454422069800,8.63006982421875,-0.08968967199325562,-0.9166035652160645,0.02538178861141205
1768421454432070000,8.64006982421875,-0.06890609860420227,-1.143916130065918,0.08215904980897903
1768421454442069800,8.65006982421875,-0.09216374903917313,-1.1586748361587524,0.18703167140483856
1768421454452069600,8.660069580078124,-0.09377229958772659,-1.117544412612915,0.2369518280029297
1768421454462069800,8.67006982421875,-0.08656471967697144,-1.109696388244629,0.20180955529212952
1768421454472069600,8.680069580078126,-0.05181872099637985,-1.2511581182479858,0.21767106652259827
1768421454482069800,8.69006982421875,-0.052991580218076706,-1.4964786767959595,0.22635164856910706
1768421454492069600,8.700069580078125,-0.23925413191318512,-1.727321743965149,0.21504412591457367
1768421454502069800,8.71006982421875,-0.6688901782035828,-2.084272861480713,0.12416748702526093
1768421454512069600,8.720069580078125,-0.8611879944801331,-2.3433730602264404,0.013760819099843502
1768421454522069800,8.73006982421875,-0.6352941393852234,-2.695976495742798,-0.12339756637811661
1768421454532069600,8.740069580078124,-0.14763712882995605,-3.0874338150024414,-0.2442781776189804
1768421454542069800,8.75006982421875,-0.03482162952423096,-3.2629263401031494,-0.28510576486587524
1768421454552068600,8.760068603515625,-0.23322340846061707,-3.6102383136749268,-0.5013094544410706
1768421454562068700,8.77006884765625,-0.1165308728814125,-3.5952227115631104,-0.5506290793418884
1768421454572068600,8.780068603515625,0.13757330179214478,-2.87457275390625,-0.4115191102027893
1768421454582068700,8.79006884765625,0.3149116039276123,-2.0675928592681885,-0.22059495747089386
1768421454592068600,8.800068603515625,0.3556196093559265,-1.467822551727295,0.052553754299879074
1768421454602068700,8.81006884765625,0.33916768431663513,-1.10603666305542,0.2967158257961273
1768421454612068600,8.820068603515624,0.3371114432811737,-0.6757222414016724,0.45280689001083374
1768421454622068700,8.83006884765625,0.2981422245502472,-0.2527552843093872,0.5475674867630005
1768421454632068600,8.840068603515626,0.2959251403808594,0.07562312483787537,0.6575464606285095
1768421454642068700,8.85006884765625,0.3700142800807953,0.44681158661842346,0.7312803268432617
1768421454652068600,8.860068603515625,0.46569710969924927,0.8139304518699646,0.7197666764259338
1768421454662068500,8.870068359375,0.5193520784378052,1.0309644937515259,0.7157674431800842
1768421454672068600,8.880068603515625,0.47551804780960083,1.1703178882598877,0.7342212796211243
1768421454682067700,8.890067626953124,0.3603198230266571,1.1135497093200684,0.7743819952011108
1768421454692067600,8.900067626953126,0.2316950112581253,0.8677241802215576,0.796271562576294
1768421454702067700,8.910067626953126,0.10746840387582779,0.6990312933921814,0.7962297797203064
1768421454712067600,8.920067626953125,0.016989901661872864,0.6369093656539917,0.8080281019210815
1768421454722067700,8.930067626953125,-0.012887302786111832,0.5990692973136902,0.7527227401733398
1768421454732067600,8.940067626953125,-0.019590744748711586,0.5246565937995911,0.6134932637214661
1768421454742067500,8.9500673828125,-0.0730089619755745,0.3986048996448517,0.44945183396339417
1768421454752067800,8.96006787109375,-0.08993654698133469,0.21831263601779938,0.26591795682907104
1768421454762067700,8.970067626953124,-0.13533411920070648,0.025647306814789772,0.10970865190029144
1768421454772067800,8.98006787109375,-0.13825534284114838,-0.13276949524879456,-0.03251613304018974
1768421454782067700,8.990067626953126,-0.13908545672893524,-0.2662609815597534,-0.16344058513641357
1768421454792067800,9.00006787109375,-0.16989102959632874,-0.3715045750141144,-0.2753825783729553
1768421454802067700,9.010067626953125,-0.22000214457511902,-0.46449708938598633,-0.3557375967502594
1768421454812066800,9.02006689453125,-0.24670672416687012,-0.5626489520072937,-0.42517873644828796
1768421454822066700,9.030066650390625,-0.2502838671207428,-0.6557109951972961,-0.47473376989364624
1768421454832066800,9.04006689453125,-0.24160543084144592,-0.7466691136360168,-0.5143815875053406
1768421454842066700,9.050066650390624,-0.23393739759922028,-0.8414204120635986,-0.5453416109085083
1768421454852066800,9.06006689453125,-0.23318345844745636,-0.9330587387084961,-0.5648140907287598
1768421454862066700,9.070066650390626,-0.23008273541927338,-0.9794991612434387,-0.5618550777435303
1768421454872066800,9.08006689453125,-0.231550931930542,-0.9585353136062622,-0.5693947672843933
1768421454882066700,9.090066650390625,-0.21968549489974976,-0.8567149639129639,-0.5611730217933655
1768421454892066800,9.10006689453125,-0.21157535910606384,-0.6948831677436829,-0.5233843922615051
1768421454902066700,9.110066650390625,-0.18522419035434723,-0.5128627419471741,-0.46705347299575806
1768421454912066800,9.12006689453125,-0.1545190066099167,-0.3569067120552063,-0.4035605192184448
1768421454922066700,9.130066650390624,-0.11675351113080978,-0.27308720350265503,-0.33182215690612793
1768421454932066600,9.140066650390626,-0.07837869226932526,-0.21194607019424438,-0.24371998012065887
1768421454942065700,9.150065673828125,-0.039810262620449066,-0.15909990668296814,-0.14563976228237152
1768421454952065800,9.160065673828125,-0.004339088220149279,-0.11563711613416672,-0.05458015576004982
1768421454962065700,9.170065673828125,0.024142621085047722,-0.07527770847082138,0.017463944852352142
1768421454972065800,9.180065673828125,0.04165929555892944,-0.03644935414195061,0.058461979031562805
1768421454982065700,9.190065673828125,0.054249390959739685,-0.009081912226974964,0.07836005091667175
1768421454992065800,9.200065673828124,0.06268788129091263,0.007625162601470947,0.09016530960798264
1768421455002065700,9.210065673828124,0.0673510804772377,0.011329886503517628,0.09518377482891083
1768421455012065500,9.2200654296875,0.07267367094755173,0.008313589729368687,0.10095484554767609
1768421455022065700,9.230065673828125,0.07591180503368378,-0.012970393523573875,0.09959902614355087
1768421455032065500,9.2400654296875,0.07807083427906036,-0.044866275042295456,0.09724905341863632
1768421455042065700,9.250065673828125,0.07513602823019028,-0.08563181012868881,0.09302714467048645
1768421455052065500,9.2600654296875,0.07611367851495743,-0.1258884221315384,0.08235692232847214
1768421455062065700,9.270065673828125,0.07170215249061584,-0.1639077067375183,0.06847173720598221
1768421455072065500,9.2800654296875,0.06784136593341827,-0.19828033447265625,0.050271693617105484
1768421455082064600,9.290064697265626,0.06217176094651222,-0.22779561579227448,0.025559421628713608
1768421455092064500,9.300064453125,0.055321045219898224,-0.2500274181365967,-0.0016189356101676822
1768421455102064600,9.310064697265625,0.04963759332895279,-0.2631804943084717,-0.021644042804837227
1768421455112064500,9.320064453125,0.04303481802344322,-0.2703196406364441,-0.034926559776067734
1768421455122064600,9.330064697265625,0.03875165805220604,-0.2675592601299286,-0.04591849073767662
1768421455132064500,9.340064453125,0.03526584431529045,-0.25533828139305115,-0.0553751066327095
1768421455142064600,9.350064697265625,0.031680699437856674,-0.23752839863300323,-0.05963030830025673
1768421455152064800,9.360064697265624,0.029218604788184166,-0.21459858119487762,-0.060626063495874405
1768421455162065000,9.37006494140625,0.02973073162138462,-0.20109422504901886,-0.05480572581291199
1768421455172064800,9.380064697265626,0.027818581089377403,-0.18516799807548523,-0.04812092334032059
1768421455182065000,9.39006494140625,0.02623639814555645,-0.16552159190177917,-0.040705353021621704
1768421455192064800,9.400064697265625,0.0240789707750082,-0.14304716885089874,-0.036742303520441055
1768421455202064600,9.410064697265625,0.021506091579794884,-0.12600213289260864,-0.03677825257182121
1768421455212063700,9.420063720703125,0.017401626333594322,-0.11258459836244583,-0.03707226738333702
1768421455222063900,9.43006396484375,0.014024739153683186,-0.10165499150753021,-0.03628610074520111
1768421455232063700,9.440063720703124,0.009245430119335651,-0.091238833963871,-0.03510632365942001
1768421455242064000,9.45006396484375,0.008562861941754818,-0.08425869047641754,-0.03596678748726845
1768421455252063700,9.460063720703126,0.004514324478805065,-0.07329365611076355,-0.0302583035081625
1768421455262063600,9.470063720703125,0.0012697952333837748,-0.060448162257671356,-0.029826072975993156
1768421455272063700,9.480063720703125,-0.0033774208277463913,-0.05096171796321869,-0.032471124082803726
1768421455282063600,9.490063720703125,-0.006431001238524914,-0.044390901923179626,-0.0377361923456192
1768421455292063700,9.500063720703125,-0.007381483446806669,-0.03623843193054199,-0.03669356554746628
1768421455302063600,9.510063720703124,-0.009379919618368149,-0.031922779977321625,-0.035954538732767105
1768421455312063700,9.520063720703124,-0.0128159299492836,-0.027108583599328995,-0.03530339524149895
1768421455322063600,9.530063720703126,-0.01576724462211132,-0.024283235892653465,-0.03921424597501755
1768421455332063700,9.540063720703126,-0.018804047256708145,-0.019357718527317047,-0.04453577473759651
1768421455342063600,9.550063720703125,-0.01943654753267765,-0.008126103319227695,-0.04186569154262543
1768421455352062700,9.560062744140625,-0.019093001261353493,-0.00013555490295402706,-0.03512363135814667
1768421455362062600,9.5700625,-0.02069036476314068,0.004893292207270861,-0.035225629806518555
1768421455372062700,9.580062744140625,-0.018695123493671417,0.009081379510462284,-0.03196033090353012
1768421455382062600,9.5900625,-0.01665966957807541,0.014660968445241451,-0.02261955849826336
1768421455392062700,9.600062744140626,-0.01396002434194088,0.017604559659957886,-0.01576484739780426
1768421455402062600,9.6100625,-0.011599131859838963,0.021803032606840134,-0.008875517174601555
1768421455412062700,9.620062744140625,-0.011201521381735802,0.02496740221977234,-0.004211523104459047
1768421455422062600,9.6300625,-0.008473113179206848,0.028871862217783928,0.00039840888348408043
1768421455432062700,9.640062744140625,-0.006806507240980864,0.030554180964827538,0.005329784471541643
1768421455442062600,9.6500625,-0.003419232554733753,0.02797890454530716,0.011145329102873802
1768421455452062700,9.660062744140625,-0.0005352954030968249,0.02551095187664032,0.01318051666021347
1768421455462062600,9.6700625,0.0012772521004080772,0.019686352461576462,0.012169048190116882
1768421455472062500,9.6800625,0.0026146916206926107,0.01757020503282547,0.013764281757175922
1768421455482061600,9.6900615234375,0.002656503114849329,0.01074132788926363,0.01420530118048191
1768421455492061700,9.700061767578125,0.005286640953272581,0.003061569994315505,0.013686250895261765
1768421455502061600,9.7100615234375,0.00583605095744133,-0.00452950457111001,0.012294483371078968
1768421455512061700,9.720061767578125,0.005753759294748306,-0.010625213384628296,0.010553042404353619
1768421455522061600,9.7300615234375,0.004513259045779705,-0.016211194917559624,0.007090399973094463
1768421455532061700,9.740061767578124,0.004944690968841314,-0.02347070537507534,0.0018644790397956967
1768421455542061600,9.7500615234375,0.004494883120059967,-0.026647057384252548,-0.0028013791888952255
1768421455552061400,9.7600615234375,0.004187021870166063,-0.02798582799732685,-0.006425941362977028
1768421455562061600,9.7700615234375,0.004324707202613354,-0.029704632237553596,-0.007412909064441919
1768421455572061400,9.7800615234375,0.005340969655662775,-0.02943538688123226,-0.008507467806339264
1768421455582061600,9.7900615234375,0.006228867452591658,-0.027117904275655746,-0.0073564499616622925
1768421455592061400,9.8000615234375,0.0059806606732308865,-0.028269454836845398,-0.004998220596462488
1768421455602061600,9.8100615234375,0.004323375876992941,-0.03123541735112667,-0.009313873015344143
1768421455612060700,9.820060791015624,0.0022509037517011166,-0.0321909599006176,-0.012153335846960545
1768421455622060500,9.830060546875,0.002487925114110112,-0.03290868178009987,-0.016331568360328674
1768421455632060400,9.840060302734376,0.002540655666962266,-0.03465837985277176,-0.016931312158703804
1768421455642060500,9.850060546875,0.00025353292585350573,-0.033858366310596466,-0.016761403530836105
1768421455652060400,9.860060302734375,0.0008186557097360492,-0.03566718474030495,-0.01450117863714695
1768421455662060500,9.870060546875,0.0021044297609478235,-0.03443440794944763,-0.009283246472477913
1768421455672060400,9.880060302734375,0.0016737966798245907,-0.03275608271360397,-0.008635831996798515
1768421455682060800,9.890060791015625,-0.0005012069013901055,-0.029016470536589622,-0.008892028592526913
1768421455692060700,9.900060791015624,-0.0005014732014387846,-0.025914421305060387,-0.009140501730144024
1768421455702060800,9.910060791015624,-0.001148355077020824,-0.022945795208215714,-0.010143980383872986
1768421455712060700,9.920060791015626,-0.0008964200387708843,-0.021035511046648026,-0.010092847980558872
1768421455722060800,9.930060791015626,-0.0007938882918097079,-0.019045596942305565,-0.010933075100183487
1768421455732060700,9.940060791015625,-0.001540638622827828,-0.015047925524413586,-0.010480337776243687
1768421455742060500,9.950060546875,-0.0023345269728451967,-0.012689163908362389,-0.010420949198305607
1768421455752060700,9.960060791015625,-0.004555337131023407,-0.007797469384968281,-0.008671784773468971
1768421455762059800,9.970059814453125,-0.003497795667499304,-0.004290618933737278,-0.009378587827086449
1768421455772059600,9.9800595703125,-0.004068777430802584,0.0016953683225437999,-0.0073053170926868916
1768421455782059800,9.990059814453126,-0.0031577101908624172,0.0052048820070922375,-0.005075186025351286
1768421455792059600,10.0000595703125,-0.003373692510649562,0.007085073739290237,-0.00216488353908062
1768421455802059800,10.010059814453125,-0.0045585329644382,0.010573015548288822,-0.002590989461168647
1768421455812059600,10.0200595703125,-0.0036730316933244467,0.01233469694852829,-0.0010538127971813083
1768421455822059500,10.0300595703125,-0.0028794098179787397,0.014227405190467834,-0.0018269284628331661
1768421455832059600,10.0400595703125,-0.003430950455367565,0.014910239726305008,0.0007797735743224621
1768421455842059500,10.0500595703125,-0.0032924660481512547,0.017667677253484726,0.0007595335482619703
1768421455852059600,10.0600595703125,-0.0039265644736588,0.017885522916913033,0.0021845910232514143
1768421455862059500,10.0700595703125,-0.003507383167743683,0.02028130367398262,0.0008399609941989183
1768421455872059600,10.0800595703125,-0.00017257283616345376,0.01986664906144142,0.0013880395563319325
1768421455882059500,10.0900595703125,-0.001683650421909988,0.018081532791256905,0.0017366473330184817
1768421455892058600,10.10005859375,-0.00170761882327497,0.017491908743977547,0.0004138552176300436
1768421455902058500,10.11005859375,-0.0015848471084609628,0.01619068719446659,0.0007739146240055561
1768421455912058600,10.12005859375,-0.0021459751296788454,0.012823120690882206,-0.002287389012053609
1768421455922058500,10.13005859375,-0.001901230658404529,0.010092315264046192,-0.006113552488386631
1768421455932058600,10.14005859375,-0.003099120454862714,0.005049353465437889,-0.0073444657027721405
1768421455942058500,10.15005859375,-0.0027385284192860126,-0.0005129248020239174,-0.012350942008197308
1768421455952058600,10.16005859375,-0.003061569994315505,-0.007996140979230404,-0.011801266111433506
1768421455962058500,10.17005859375,-0.0043654534965753555,-0.018968630582094193,-0.015210644342005253
1768421455972058600,10.18005859375,-0.004595550708472729,-0.02792350947856903,-0.018969163298606873
1768421455982058500,10.19005859375,-0.005574794951826334,-0.03658304363489151,-0.019579293206334114
1768421455992058600,10.20005859375,-0.007228351663798094,-0.043046269565820694,-0.021381987258791924
1768421456002058500,10.21005859375,-0.007882158271968365,-0.04693474993109703,-0.021868014708161354
1768421456012058600,10.22005859375,-0.008048072457313538,-0.048357680439949036,-0.022836074233055115
1768421456022058500,10.23005859375,-0.008962602354586124,-0.04517466947436333,-0.022727416828274727
1768421456032057600,10.2400576171875,-0.008586564101278782,-0.042627621442079544,-0.017878333106637
1768421456042057500,10.250057373046875,-0.009250223636627197,-0.03852954879403114,-0.019699934870004654
1768421456052057600,10.2600576171875,-0.010641459375619888,-0.03424479067325592,-0.02340093068778515
1768421456062057500,10.270057373046875,-0.009681922383606434,-0.03381308913230896,-0.024928519502282143
1768421456072057600,10.2800576171875,-0.010279002599418163,-0.03152383863925934,-0.024439828470349312
1768421456082057700,10.2900576171875,-0.007871771231293678,-0.033431194722652435,-0.021047228947281837
1768421456092057600,10.3000576171875,-0.010306167416274548,-0.03419312462210655,-0.0219135545194149
1768421456102057700,10.3100576171875,-0.008084824308753014,-0.034083399921655655,-0.023551398888230324
1768421456112057600,10.3200576171875,-0.006894391495734453,-0.03281387314200401,-0.024600418284535408
1768421456122057700,10.3300576171875,-0.00782383419573307,-0.029687587171792984,-0.022793462499976158
1768421456132057600,10.3400576171875,-0.006124737672507763,-0.025707228109240532,-0.026912041008472443
1768421456142057700,10.3500576171875,-0.008806008845567703,-0.029806897044181824,-0.026799922809004784
1768421456152057600,10.3600576171875,-0.007976699620485306,-0.028739236295223236,-0.02226003259420395
1768421456162057700,10.3700576171875,-0.008177502080798149,-0.029689718037843704,-0.02100248634815216
1768421456172056600,10.380056640625,-0.00882038939744234,-0.028364796191453934,-0.020119914785027504
1768421456182056700,10.390056640625,-0.008522115647792816,-0.023260049521923065,-0.020538032054901123
1768421456192056600,10.400056640625,-0.008267250843346119,-0.020009394735097885,-0.017954764887690544
1768421456202056700,10.410056640625,-0.010280068032443523,-0.018578210845589638,-0.017344368621706963
1768421456212056600,10.420056640625,-0.013161075301468372,-0.019413378089666367,-0.020594757050275803
1768421456222056700,10.430056640625,-0.01501357089728117,-0.018459966406226158,-0.021690914407372475
1768421456232056600,10.440056640625,-0.0101375887170434,-0.017949173226952553,-0.025195367634296417
1768421456242056700,10.450056640625,-0.006884004920721054,-0.011629758402705193,-0.019035210832953453
1768421456252056600,10.460056640625,-0.005450425669550896,-0.005878395400941372,-0.013834322802722454
1768421456262056700,10.470056640625,-0.004926581867039204,-0.003172357566654682,-0.007807589136064053
1768421456272056600,10.480056640625,-0.004453337751328945,-0.0005456816870719194,-0.0049612028524279594
1768421456282056400,10.490056396484375,-0.004283428192138672,-0.00039414784987457097,-0.006679208017885685
1768421456292056600,10.500056640625,-0.0030485205352306366,-0.00030652983696199954,-0.008333031088113785
1768421456302056400,10.510056396484375,-0.0035198999103158712,-0.0019656792283058167,-0.010805509984493256
1768421456312055600,10.5200556640625,-0.004215517546981573,-0.005291168577969074,-0.011343734338879585
1768421456322055700,10.5300556640625,-0.0044144559651613235,-0.0062365904450416565,-0.009531453251838684
1768421456332055600,10.5400556640625,-0.003891677362844348,-0.004627508576959372,-0.01101749762892723
1768421456342055700,10.5500556640625,-0.005227252375334501,-0.004165716469287872,-0.011107778176665306
1768421456352055800,10.560055908203125,-0.004768656101077795,-0.0020511667244136333,-0.011710718274116516
1768421456362055700,10.5700556640625,-0.0059867859818041325,0.000026897927455138415,-0.013499030843377113
1768421456372055800,10.580055908203125,-0.006313555873930454,-0.002529204124584794,-0.0141728101298213
1768421456382055700,10.5900556640625,-0.005588377360254526,-0.0029196233954280615,-0.018271414563059807
1768421456392055800,10.600055908203124,-0.006384662352502346,-0.005644303746521473,-0.01870577782392502
1768421456402055700,10.6100556640625,-0.0073106433264911175,-0.004990231245756149,-0.018513496965169907
1768421456412055800,10.620055908203126,-0.0062608253210783005,-0.00657614367082715,-0.01846129819750786
1768421456422055700,10.6300556640625,-0.006628607865422964,-0.008694687858223915,-0.018977684900164604
1768421456432055800,10.640055908203125,-0.006881608162075281,-0.010600713081657887,-0.018555041402578354
1768421456442054700,10.6500546875,-0.006307963281869888,-0.012928848154842854,-0.019228022545576096
1768421456452054800,10.6600546875,-0.006079197861254215,-0.01155439019203186,-0.020862936973571777
1768421456462054700,10.6700546875,-0.005450425669550896,-0.012435630895197392,-0.021149493753910065
1768421456472054800,10.6800546875,-0.006287723314017057,-0.009790046140551567,-0.02070101723074913
1768421456482054700,10.6900546875,-0.0056770602241158485,-0.012004464864730835,-0.020502345636487007
1768421456492054800,10.7000546875,-0.005167864263057709,-0.012108061462640762,-0.020124709233641624
1768421456502055000,10.710054931640625,-0.005234709475189447,-0.014532603323459625,-0.018675949424505234
1768421456512055000,10.720054931640625,-0.0041489386931061745,-0.015417572110891342,-0.019225092604756355
1768421456522055000,10.730054931640625,-0.005660815164446831,-0.018196048215031624,-0.018341723829507828
1768421456532054800,10.7400546875,-0.011745339259505272,-0.017312144860625267,-0.02105095610022545
1768421456542055000,10.750054931640625,-0.01398852001875639,-0.029687853530049324,-0.026313629001379013
1768421456552054800,10.7600546875,-0.009706422686576843,-0.025164742022752762,-0.023356188088655472
1768421456562055000,10.770054931640624,-0.006988134700804949,-0.020988106727600098,-0.023086942732334137
1768421456572054800,10.7800546875,-0.005050684791058302,-0.017298029735684395,-0.02227041870355606
1768421456582055000,10.790054931640626,-0.008902414701879025,-0.013245231471955776,-0.02202167920768261
1768421456592054000,10.800053955078125,-0.008670720271766186,-0.0133877107873559,-0.022098377346992493
1768421456602054000,10.810053955078125,-0.007364439312368631,-0.01287798210978508,-0.023751668632030487
1768421456612053800,10.8200537109375,-0.009015066549181938,-0.012373312376439571,-0.024231037124991417
1768421456622054000,10.830053955078125,-0.0065447185188531876,-0.013409282080829144,-0.022410767152905464
1768421456632053800,10.8400537109375,-0.007682953495532274,-0.014154168777167797,-0.022104503586888313
1768421456642054000,10.850053955078126,-0.007547398563474417,-0.013167999684810638,-0.019782226532697678
1768421456652053800,10.8600537109375,-0.006571616046130657,-0.01293657161295414,-0.01914147101342678
1768421456662054000,10.870053955078125,-0.005446164403110743,-0.013463610783219337,-0.0178154818713665
1768421456672053800,10.8800537109375,-0.005833920557051897,-0.012591158971190453,-0.019345467910170555
1768421456682054000,10.890053955078125,-0.005144428461790085,-0.012315788306295872,-0.01870950497686863
1768421456692053800,10.9000537109375,-0.005213137716054916,-0.010341587476432323,-0.02027091756463051
1768421456702054000,10.910053955078125,-0.007956992834806442,-0.009259544312953949,-0.019636550918221474
1768421456712053800,10.9200537109375,-0.007991347461938858,-0.006691192276775837,-0.020009394735097885
1768421456722052900,10.930052978515626,-0.0059774648398160934,-0.0078531289473176,-0.01925358921289444
1768421456732052700,10.940052734375,-0.006268548313528299,-0.006981210317462683,-0.019659455865621567
1768421456742052900,10.950052978515625,-0.004253867082297802,-0.006737264804542065,-0.019995545968413353
1768421456752052700,10.960052734375,-0.005116198677569628,-0.006941263098269701,-0.02104962430894375
1768421456762052900,10.970052978515625,-0.0062403189949691296,-0.00615163566544652,-0.019888220354914665
1768421456772052700,10.980052734375,-0.005846437532454729,-0.003884752979502082,-0.019648268818855286
1768421456782052900,10.990052978515624,-0.003728159237653017,-0.0044077979400753975,-0.020443756133317947
1768421456792052700,11.000052734375,-0.004864530172199011,-0.0020754013676196337,-0.01677818037569523
1768421456802052900,11.010052978515626,-0.004886900540441275,0.0008218514849431813,-0.01702691987156868
1768421456812052700,11.020052734375,-0.004749481566250324,0.004942027851939201,-0.015214905142784119
1768421456822052600,11.030052490234375,-0.004376638680696487,0.005533782299607992,-0.014963769353926182
1768421456832052700,11.040052734375,-0.004258394706994295,0.00929389987140894,-0.014366156421601772
1768421456842052600,11.050052490234375,-0.003591006388887763,0.011901400052011013,-0.010831075720489025
1768421456852053000,11.060052978515625,-0.0003680488734971732,0.013435115106403828,-0.005474660079926252
1768421456862051800,11.0700517578125,-0.0016911072889342904,0.01588522270321846,-0.006542587652802467
1768421456872051700,11.0800517578125,-0.004000334069132805,0.015402126125991344,-0.009647035039961338
1768421456882051600,11.090051513671876,-0.0037380128633230925,0.015874303877353668,-0.009912817738950253
1768421456892051700,11.1000517578125,-0.003922303672879934,0.01865677535533905,-0.007142065558582544
1768421456902051800,11.1100517578125,-0.004610464442521334,0.017521468922495842,-0.005939115304499865
1768421456912052000,11.120052001953125,-0.005913549102842808,0.019837087020277977,-0.009765278548002243
1768421456922051800,11.1300517578125,-0.006428870838135481,0.019939886406064034,-0.0153738958761096
1768421456932052000,11.140052001953125,-0.006565757095813751,0.02213859185576439,-0.014302772469818592
1768421456942051800,11.1500517578125,-0.00606481684371829,0.025435585528612137,-0.009973271749913692
1768421456952052000,11.160052001953124,-0.006444050930440426,0.02755279839038849,-0.010390855371952057
1768421456962051800,11.1700517578125,-0.0060086240991950035,0.02123578079044819,-0.013918212614953518
1768421456972052000,11.180052001953126,-0.008974053896963596,0.018073009327054024,-0.013312609866261482
1768421456982051800,11.1900517578125,-0.005886118393391371,0.01577283814549446,-0.009634784422814846
1768421456992051700,11.2000517578125,-0.006577741354703903,0.01239035651087761,-0.0044317664578557014
1768421457002051800,11.2100517578125,-0.005760950036346912,0.009607086889445782,-0.006208627484738827
1768421457012051000,11.220051025390624,-0.006956709548830986,0.007355650886893272,-0.0054552191868424416
1768421457022050800,11.23005078125,-0.005536179058253765,0.004460528492927551,-0.007737015374004841
1768421457032051000,11.240051025390626,-0.006804110016673803,0.0014173343079164624,-0.009006012231111526
1768421457042050800,11.25005078125,-0.006836334243416786,0.00003355582884978503,-0.00857378076761961
1768421457052051000,11.260051025390625,-0.007202785462141037,-0.0013789847726002336,-0.010157296434044838
1768421457062050800,11.27005078125,-0.006479737348854542,-0.0029233519453555346,-0.010407100431621075
1768421457072050700,11.28005078125,-0.006706372369080782,-0.0014676681021228433,-0.011758388951420784
1768421457082050800,11.29005078125,-0.004122839774936438,-0.0008522115531377494,-0.009517339058220387
1768421457092050700,11.30005078125,-0.0017691379180178046,-0.0020458402577787638,-0.009038768708705902
1768421457102050800,11.31005078125,-0.0024019049014896154,-0.0035686357878148556,-0.008962069638073444
1768421457112050700,11.32005078125,-0.0019094864837825298,-0.0037979339249432087,-0.008596417494118214
1768421457122050800,11.33005078125,0.00014221279707271606,-0.006655239500105381,-0.007482683751732111
1768421457132050700,11.34005078125,0.0018109495285898447,-0.00515854312106967,-0.007297061383724213
1768421457142049800,11.3500498046875,0.0009882990270853043,-0.005974003113806248,-0.003943875432014465
1768421457152049700,11.360049560546875,0.0016042882343754172,-0.006588927004486322,-0.003322559641674161
1768421457162049800,11.3700498046875,0.0014378406340256333,-0.00774793466553092,-0.003929493948817253
1768421457172049700,11.380049560546874,0.00152359448838979,-0.009297095239162445,-0.005735916085541248
1768421457182049800,11.3900498046875,0.0011664645280689,-0.012896889820694923,-0.004245078656822443
1768421457192049700,11.400049560546876,0.000618918624240905,-0.012083826586604118,-0.0023401195649057627
1768421457202049800,11.4100498046875,0.0020397149492055178,-0.012588762678205967,-0.0009329052991233766
1768421457212049700,11.420049560546875,0.0017062872648239136,-0.012673983350396156,0.0006524744676426053
1768421457222049800,11.4300498046875,0.0018913770327344537,-0.012981845065951347,-0.0008455536444671452
1768421457232049700,11.440049560546875,0.0010745854815468192,-0.012350142933428288,-0.002198173198848963
1768421457242049800,11.4500498046875,0.000294545607175678,-0.011786618269979954,-0.0028842033352702856
1768421457252050000,11.4600498046875,-0.0012362393317744136,-0.009542904794216156,-0.00520674604922533
1768421457262049800,11.4700498046875,-0.0011427623685449362,-0.005573463626205921,-0.005358280148357153
1768421457272050000,11.4800498046875,-0.0029739518649876118,-0.004318315535783768,-0.006381732877343893
1768421457282048800,11.490048828125,-0.0035473306197673082,-0.004594485275447369,-0.006765228230506182
1768421457292048600,11.500048583984375,-0.002294047037139535,-0.0026170883793383837,-0.008476574905216694
1768421457302049000,11.510049072265625,-0.0031585090328007936,-0.0017204020405188203,-0.00820839498192072
1768421457312049000,11.520048828125,-0.0028506475500762463,0.0005419532535597682,-0.00871972180902958
1768421457322049000,11.530049072265625,-0.002004827605560422,0.001478320686146617,-0.009064335376024246
1768421457332049000,11.540048828125,-0.0017899106023833156,0.0010745854815468192,-0.006886135786771774
1768421457342048800,11.550048828125,-0.0014165353495627642,0.0021811288315802813,-0.008882175199687481
1768421457352048600,11.560048583984376,-0.0015238607302308083,0.0020354539155960083,-0.011125088669359684
1768421457362048500,11.570048583984375,-0.0028913940768688917,-0.0009243832319043577,-0.014581339433789253
1768421457372048600,11.580048583984375,-0.0038780951872467995,-0.0043864925391972065,-0.01690947450697422
1768421457382048500,11.590048583984375,-0.0037638454232364893,-0.005733519326895475,-0.021086109802126884
1768421457392048600,11.600048583984375,-0.006361759267747402,-0.004566255956888199,-0.022423816844820976
1768421457402048500,11.610048583984375,-0.007185741327702999,-0.007121825125068426,-0.022958844900131226
1768421457412048600,11.620048583984374,-0.007783886976540089,-0.005310875829309225,-0.02280651219189167
1768421457422048500,11.630048583984374,-0.006564425770193338,-0.0049319081008434296,-0.015088405460119247
1768421457432047600,11.640047607421875,-0.006214752793312073,-0.005114867351949215,-0.010272078216075897
1768421457442047500,11.650047607421875,-0.0052136704325675964,-0.004373176954686642,-0.009866745211184025
1768421457452047600,11.660047607421875,-0.0049193911254405975,-0.0001715075777610764,-0.005012335255742073
1768421457462047500,11.670047607421875,-0.005846437532454729,0.007950068451464176,-0.002826412906870246
1768421457472047600,11.680047607421875,-0.005334045272320509,0.013611682690680027,-0.0015869776252657175
1768421457482047500,11.690047607421874,-0.0046602655202150345,0.019116437062621117,-0.001502555445767939
1768421457492047600,11.700047607421874,-0.0018759306985884905,0.02689126878976822,-0.004745220299810171
1768421457502047500,11.710047607421876,-0.0040884846821427345,0.031127292662858963,-0.005269064102321863
1768421457512047600,11.720047607421876,-0.003462375607341528,0.03760996088385582,-0.005231513641774654
1768421457522047500,11.730047607421875,-0.0044322991743683815,0.040133036673069,-0.003709783311933279
1768421457532047600,11.740047607421875,-0.004139351192861795,0.044546693563461304,-0.006596383638679981
1768421457542047500,11.750047607421875,-0.004733236040920019,0.05203869938850403,-0.009236374869942665
1768421457552047600,11.760047607421875,-0.004821919370442629,0.06336246430873871,-0.003823500359430909
1768421457562047700,11.7700478515625,-0.002862365450710058,0.07124008983373642,0.0030423952266573906
1768421457572046600,11.780046630859376,-0.001844771672040224,0.0714438259601593,0.005878395400941372
1768421457582046500,11.79004638671875,-0.0007193197961896658,0.06899957358837128,0.01218715775758028
1768421457592046600,11.800046630859375,0.00024527712957933545,0.06624160706996918,0.018069282174110413
1768421457602046500,11.81004638671875,0.0013627394801005721,0.05878688395023346,0.021750036627054214
1768421457612046600,11.820046630859375,0.0007952199084684253,0.05308052897453308,0.016801349818706512
1768421457622046700,11.830046630859375,-0.0021022993605583906,0.04821999371051788,0.005290369503200054
1768421457632046600,11.840046630859375,-0.0009275790071114898,0.05196839198470116,-0.0026234800461679697
1768421457642046700,11.850046630859374,-0.0014455638593062758,0.05354525148868561,-0.004942294210195541
1768421457652046600,11.860046630859374,-0.0020897823851555586,0.05902017652988434,-0.002737463219091296
1768421457662046700,11.870046630859376,-0.0021616879384964705,0.06159838289022446,-0.004094077739864588
1768421457672046600,11.880046630859376,-0.0021550299134105444,0.061709702014923096,-0.0007597998483106494
1768421457682046700,11.890046630859375,0.0005909554311074317,0.057080596685409546,0.0010266485624015331
1768421457692046600,11.900046630859375,0.0040916805155575275,0.057915229350328445,0.00860041193664074
1768421457702046700,11.910046630859375,0.0070310113951563835,0.0638442263007164,0.016953682526946068
1768421457712045600,11.920045654296874,0.009525327943265438,0.0705077201128006,0.019180884584784508
1768421457722045700,11.930045654296874,0.009215869009494781,0.07331735640764236,0.01696513406932354
1768421457732045600,11.940045654296876,0.009162872098386288,0.07865619659423828,0.019165173172950745
1768421457742045700,11.950045654296876,0.00872238539159298,0.07552245259284973,0.011041199788451195
1768421457752045600,11.960045654296875,0.0040796962566673756,0.06972794979810715,0.0012980246683582664
1768421457762045700,11.970045654296875,0.0021702100057154894,0.05676234886050224,-0.009324791841208935
1768421457772045600,11.980045654296875,-0.001026382320560515,0.04286011680960655,-0.015425295569002628
1768421457782045700,11.990045654296875,-0.0029292108956724405,0.02834455668926239,-0.017470870167016983
1768421457792045600,12.000045654296875,-0.006054696626961231,0.016411995515227318,-0.016923056915402412
1768421457802045700,12.010045654296874,-0.0059569585137069225,0.010579140856862068,-0.01537869032472372
1768421457812045600,12.020045654296876,-0.006095975637435913,0.0008048072922974825,-0.015144065022468567
1768421457822045400,12.03004541015625,-0.006889065261930227,-0.0048946235328912735,-0.013231117278337479
1768421457832045600,12.040045654296875,-0.006853911560028791,-0.01350488979369402,-0.013158945366740227
1768421457842045400,12.05004541015625,-0.008654474280774593,-0.0192586500197649,-0.014510232955217361
1768421457852044500,12.06004443359375,-0.008621717803180218,-0.018687134608626366,-0.01390036940574646
1768421457862044700,12.070044677734375,-0.008452340960502625,-0.01581704616546631,-0.014907044358551502
1768421457872044500,12.08004443359375,-0.008639561012387276,-0.012053200975060463,-0.013041500002145767
1768421457882044700,12.090044677734374,-0.006515423767268658,-0.005398227367550135,-0.011961321346461773
1768421457892044500,12.10004443359375,-0.004281830508261919,-0.0012295814231038094,-0.00872238539159298
1768421457902044400,12.11004443359375,-0.0023369237314909697,0.003620833856984973,-0.0049281795509159565
1768421457912044500,12.12004443359375,0.0002378202771069482,0.006571616046130657,-0.0007123955874703825
1768421457922044400,12.13004443359375,-0.00004394215648062527,0.012490757741034031,0.0003640541108325124
1768421457932044500,12.14004443359375,0.0011883024126291275,0.015212508849799633,0.0014349111588671803
1768421457942044400,12.15004443359375,0.002828809665516019,0.019271964207291603,0.0014109427575021982
1768421457952044500,12.16004443359375,0.003922037314623594,0.023689882829785347,0.006031527183949947
