time,seconds_elapsed,z,y,x
1768421481153108500,0.0591083984375,-0.11048998085036874,-0.10862228728234767,-0.1864393211301416
1768421481163108600,0.069108642578125,-0.1053530563533306,-0.07956453510224819,-0.07076601935774088
1768421481173108500,0.0791083984375,-0.16878873282298446,-0.09582184242010117,-0.061672173928469416
1768421481183108600,0.089108642578125,-0.19984218886494634,-0.27877485580444333,-0.11098010245487093
1768421481193108500,0.0991083984375,-0.18395722199082373,-0.3815460789710283,-0.08300364270545542
1768421481203108600,0.109108642578125,-0.2007024589560926,-0.366130483174324,-0.08394180033840239
1768421481213108500,0.1191083984375,-0.26875834257230163,-0.2726560806632042,-0.05391564151756465
1768421481223108600,0.129108642578125,-0.31467268313765523,-0.10420154823064803,0.003568506136536598
1768421481233108500,0.1391083984375,-0.27421324697732924,0.05129530295133591,0.04394428260140121
1768421481243108600,0.149108642578125,-0.21666947809047996,0.14064298092126845,0.06987528106309474
1768421481253108500,0.1591083984375,-0.1465490631598979,0.19734569587409495,0.10745163606777787
1768421481263108600,0.169108642578125,-0.05308393993377685,0.18730770146250725,0.08650617093369364
1768421481273108500,0.1791083984375,-0.016306991678476334,0.14713818815946578,0.06297784969955682
1768421481283108400,0.1891083984375,-0.035198739153146745,0.09900456410944461,0.07076609242297709
1768421481293108500,0.1991083984375,-0.034354689544439314,0.049782560300827026,0.06737900726795196
1768421481303108400,0.2091083984375,0.0005061228912323713,0.014909984362125395,0.08745528835207224
1768421481313107500,0.219107421875,0.0461760602414608,-0.021012977412343023,0.11821283018738031
1768421481323107600,0.229107666015625,0.02508643739633262,-0.06786416043639183,0.09232486714981496
1768421481333107500,0.239107421875,0.02966908901147544,-0.04153612548112869,0.13582557070218026
1768421481343107600,0.249107666015625,0.009383841351792216,-0.015963292807340622,0.11710106955319642
1768421481353107500,0.259107421875,-0.0452093341011554,0.013449848681688309,0.10310001672953367
1768421481363107300,0.269107421875,-0.05804536173343658,0.05326631076335907,0.10916939977109431
1768421481373107200,0.279107177734375,-0.029769626776501534,0.05829144544899463,0.09551672199368476
1768421481383107000,0.289107177734375,0.022905074769258498,0.07445873639583588,0.08139394248649477
1768421481393107200,0.299107177734375,0.040946927416324615,0.05566928025186062,0.030758564748615026
1768421481403107000,0.309107177734375,0.075192822824046,0.05458557666838169,-0.02894187071546912
1768421481413107200,0.319107177734375,0.09055880732536316,0.07122399225831032,-0.05273673393130302
1768421481423107000,0.329107177734375,0.12312727104015647,0.09139175101816653,-0.08239427863545715
1768421481433107200,0.339107177734375,0.1163069965660572,0.10256137980818748,-0.07399389536306261
1768421481443107000,0.349107177734375,0.083368092103675,0.0867442174732685,-0.03663374039232731
1768421481453107200,0.359107177734375,0.09530044889450073,0.06324059228897094,0.016022037257254124
1768421481463107000,0.369107177734375,0.14920732258372008,0.04074117571115494,0.04043766271993517
1768421481473107500,0.379107421875,0.16213957713209093,-0.004967851540446281,0.017819734328985214
1768421481483107300,0.389107421875,0.1385902131099254,-0.025546529188752172,0.00315766031332314
1768421481493106200,0.399106201171875,0.11274258208274841,-0.04793488660752773,-0.03911554727070033
1768421481503106000,0.40910595703125,0.05350589167289436,-0.0871019448697567,-0.03892411635182798
1768421481513106200,0.419106201171875,0.012224690800905227,-0.09619126025438308,-0.05007029120102525
1768421481523106300,0.429106201171875,-0.017837343050912023,-0.07746142534315585,-0.05866773141548037
1768421481533106400,0.4391064453125,-0.020045666750147937,-0.03332300840914249,-0.05550795221030712
1768421481543106300,0.449106201171875,-0.02101706906557083,0.01702595360279083,-0.040980318229272956
1768421481553106400,0.4591064453125,-0.003455620346590876,0.05307400306165218,-0.05947809795029461
1768421481563106300,0.469106201171875,0.054902972054481504,0.061092474344372746,-0.07516140477247536
1768421481573106200,0.479106201171875,0.08642981776185334,0.07743979803323746,-0.09777275729216635
1768421481583106300,0.489106201171875,0.0887538767952472,0.08922200576364994,-0.1323936965573579
1768421481593106200,0.499106201171875,0.06525251663327217,0.06799275525212288,-0.15858809519559144
1768421481603106300,0.509106201171875,0.05447042585611343,0.010005261185765266,-0.1648369995225221
1768421481613106200,0.519106201171875,0.03549114622846246,-0.04471709360480308,-0.16339944100007414
1768421481623106300,0.529106201171875,0.008530658588558435,-0.09207681067287922,-0.1653811163365841
1768421481633106200,0.539106201171875,0.01748655685186386,-0.11603811649680137,-0.14670432678684592
1768421481643106300,0.549106201171875,-0.001101312305405736,-0.08349661385416984,-0.11821918686293065
1768421481653106200,0.559106201171875,0.002650076117366552,-0.05273205775618553,-0.1402766318269074
1768421481663106300,0.569106201171875,-0.0064472764432430265,-0.0028811083942651746,-0.14844963608421385
1768421481673105200,0.579105224609375,-0.010671177748590707,0.020514380240440368,-0.1285053108166903
1768421481683105300,0.589105224609375,0.0068551996570080515,0.00011105915904045104,-0.139322034515813
1768421481693105200,0.599105224609375,0.04243979632258415,-0.03935585883259773,-0.16304412475638091
1768421481703105300,0.609105224609375,0.08516834645867347,-0.03434533719420433,-0.1788167903624475
1768421481713105200,0.619105224609375,0.08218246251568198,-0.002162146469950676,-0.19610146796666084
1768421481723105300,0.629105224609375,0.058641427930444474,0.07185293781161307,-0.13943608934953808
1768421481733105200,0.639105224609375,0.022135843962430953,0.144523037225008,-0.08068338306434453
1768421481743105300,0.649105224609375,0.002005932994931936,0.19004794008135795,-0.026515739547088742
1768421481753105200,0.659105224609375,0.00246434428691864,0.17384791590869425,0.025796485361829397
1768421481763105300,0.669105224609375,-0.03698752226606011,0.12224340087771415,0.044547655322030186
1768421481773105200,0.679105224609375,-0.019835311935096977,0.06293196473121643,0.034365284003689885
1768421481783105000,0.68910498046875,-0.005790346904471516,0.0060059624165296555,0.01664309176504612
1768421481793105200,0.699105224609375,-0.02941328761950135,-0.04490881678462028,0.02245623502321541
1768421481803105000,0.70910498046875,-0.025516718572378156,-0.09743512283563613,0.0261799317214638
1768421481813105200,0.719105224609375,-0.028625279046967624,-0.13898644588589668,0.061680795626342294
1768421481823105300,0.729105224609375,-0.06887772139310837,-0.18054595224261283,0.10731836507692932
1768421481833105400,0.73910546875,-0.11959551671743392,-0.17722002269029616,0.17165983127988874
1768421481843104000,0.74910400390625,-0.13198745384402572,-0.17829320487976072,0.1883612291034311
1768421481853104000,0.759104248046875,-0.14204488360844553,-0.14456862993240355,0.1948860277622938
1768421481863104000,0.76910400390625,-0.13897365946955978,-0.10152852962911128,0.1882950319994241
1768421481873104400,0.7791044921875,-0.12666603962555528,-0.07672551228404044,0.16733254266530273
1768421481883104300,0.789104248046875,-0.12083104986175894,-0.08015256412327289,0.1119722552973777
1768421481893104400,0.7991044921875,-0.11183905737176537,-0.08382628419995307,0.06099931616820395
1768421481903104300,0.809104248046875,-0.11380875000953673,-0.1137754322618246,0.04191686842702329
1768421481913104400,0.8191044921875,-0.08742576999664306,-0.11206804382205009,0.012274229031056166
1768421481923104300,0.829104248046875,-0.07576353538408875,-0.10338321758508681,-0.01090126017741859
1768421481933104400,0.8391044921875,-0.09765490306615829,-0.05451718760728836,-0.023317674158141014
1768421481943104300,0.849104248046875,-0.1152538342513144,-0.014466916769742965,-0.025870573511347174
1768421481953104400,0.8591044921875,-0.13465280059576035,0.022406477597355843,-0.006288651815429329
1768421481963104300,0.869104248046875,-0.13019275244697928,0.024182255098223686,-0.021486367077752946
1768421481973104000,0.879104248046875,-0.14314941078424454,-0.007905658558011055,-0.031989202522113916
1768421481983104300,0.889104248046875,-0.12846972804665566,-0.06678221041858196,-0.03175765878856182
1768421481993104100,0.899104248046875,-0.10261968586668371,-0.11096388197243214,-0.03730060680322349
1768421482003104300,0.909104248046875,-0.06883329772949218,-0.12380582788884639,-0.04657653080113232
1768421482013104000,0.919104248046875,-0.025328575589135288,-0.10213643239438533,-0.04164696544446051
1768421482023103200,0.929103271484375,-0.022206205784901976,-0.08541618373990058,-0.049111309975758195
1768421482033103000,0.93910302734375,-0.04345226130075752,-0.046910804256796834,-0.07475998436473309
1768421482043103200,0.949103271484375,-0.06259308816567064,-0.030337855118513106,-0.05824081124030053
1768421482053103000,0.95910302734375,-0.06339381008930504,-0.006730185037851333,-0.061883478591591115
1768421482063103200,0.969103271484375,-0.06635616702623665,0.039299744731187816,-0.049928033186122774
1768421482073103000,0.97910302734375,-0.030084172618389127,0.0470125110656023,-0.04201367986500263
1768421482083103200,0.989103271484375,-0.013818170537427068,0.026619126856327054,0.0004386106129735708
1768421482093103000,0.99910302734375,0.0024981004260480402,-0.00587853664457798,0.01882635408826172
1768421482103103200,1.009103271484375,0.012806874603033066,-0.05168225644230842,0.020879852551966904
1768421482113103000,1.01910302734375,0.030516864947229622,-0.07647182978391646,0.05095423442870378
1768421482123103200,1.029103271484375,0.04051686543598771,-0.08144318845570087,0.06465089747831225
1768421482133103000,1.03910302734375,0.03997326007857919,-0.02323474511504173,0.06082344814464449
1768421482143103200,1.049103271484375,0.013400748842954635,-0.007523381242156029,0.05242182276323437
1768421482153103000,1.05910302734375,0.010951455994695424,0.01714461154639721,0.02141293651536107
1768421482163103000,1.06910302734375,0.005424217005819082,0.011596914291381835,-0.020807737163826823
1768421482173103400,1.079103271484375,0.021948650827258824,-0.007692308068275451,-0.03432845912463963
1768421482183103200,1.089103271484375,-0.014755670583248138,-0.027117724028229713,-0.04256802581213415
1768421482193103400,1.099103271484375,-0.017916764962673186,-0.047906245034933084,-0.04830320846326649
1768421482203103200,1.109103271484375,0.02889635107330978,-0.06179916130900383,-0.027710940681025385
1768421482213102000,1.11910205078125,0.06635360974296928,-0.03763561091125011,-0.030690467948466537
1768421482223102200,1.129102294921875,0.05576470345035195,-0.0020540099203586576,-0.04595167690105736
1768421482233102300,1.139102294921875,-0.023158757269382477,0.010596212816238402,-0.06223024620264768
1768421482243102200,1.149102294921875,-0.045368250989913934,-0.002547346395254135,-0.0964607248455286
1768421482253102300,1.159102294921875,-0.02428922260403633,-0.014256488889455795,-0.12496420414373278
1768421482263102200,1.169102294921875,-0.00672901599407196,-0.022799860829114914,-0.15137524120733142
1768421482273102300,1.179102294921875,0.017155863592773674,-0.002707505393028259,-0.16041450690515338
1768421482283102200,1.189102294921875,0.02019303933158517,0.007724456772208213,-0.13040602987147867
1768421482293102300,1.199102294921875,-0.007568243297189474,0.013515315133333206,-0.07994454739578068
1768421482303102200,1.209102294921875,-0.06431392060890793,0.0031938276052474973,-0.08293883384093642
1768421482313102300,1.219102294921875,-0.08366276420131326,-0.03507365146875381,-0.10391118698194622
1768421482323102200,1.229102294921875,-0.0660675593432039,-0.09286708426773548,-0.09480703935436904
1768421482333102300,1.239102294921875,-0.041560675400495524,-0.10827975745499134,-0.08591602302081883
1768421482343102200,1.249102294921875,-0.002534559978917241,-0.09248831408321857,-0.08481134971454739
1768421482353102000,1.25910205078125,0.007847790890932082,-0.061228083422780036,-0.0911464710202068
1768421482363102700,1.269102783203125,-0.0038122517645359038,-0.019177578678727148,-0.06701295043453574
1768421482373102600,1.2791025390625,-0.03126965607590973,0.00471826069355011,-0.060132616336271164
1768421482383102700,1.289102783203125,-0.034295214442163706,0.008372107025980948,-0.04237864071987569
1768421482393101600,1.2991015625,-0.02828852137327194,-0.005666939720511436,-0.011258403052017092
1768421482403101700,1.309101806640625,-0.026372458618879317,-0.028434651845693586,0.007370382637530565
1768421482413101600,1.3191015625,0.009088073275610804,-0.0347866512209177,-0.016083265925198792
1768421482423101700,1.329101806640625,0.05077288651242852,-0.04009761711061001,-0.020838351497799158
1768421482433101600,1.3391015625,0.06165434601083398,-0.0032131168276071545,-0.021544234744831917
1768421482443101700,1.349101806640625,0.05326506865434348,0.037407062852382655,-0.004688450077176094
1768421482453101600,1.3591015625,0.054091655671596524,0.03714344348013401,0.017214608042687176
1768421482463101700,1.369101806640625,0.07075988187789917,0.013200842356681824,0.028513343105092643
1768421482473101600,1.3791015625,0.07938990918770432,-0.0034247137516736983,0.0501017092525959
1768421482483101700,1.389101806640625,0.08125672597289085,0.009271686214208602,0.0525961564168334
1768421482493101600,1.3991015625,0.07584405327439307,0.03168926972746849,0.05006503050401807
1768421482503101700,1.409101806640625,0.05259403752498328,0.07473287716209888,0.04474880391731858
1768421482513101600,1.4191015625,0.02286174708418548,0.06231178700625896,0.04483480170033872
1768421482523101700,1.429101806640625,0.0537269140124321,0.07016893024742603,0.032017624898999925
1768421482533101600,1.4391015625,0.07250774845853447,0.044019758990406985,0.02782163451388478
1768421482543101400,1.449101318359375,0.10947627376317977,-0.027291327029466628,0.025248715285956857
1768421482553101600,1.4591015625,0.10697335103154182,-0.08013853559792042,0.02654481951110065
1768421482563101400,1.469101318359375,0.09639693889431655,-0.10386369457840919,-0.00007299217097461223
1768421482573100500,1.4791005859375,0.05480491850748658,-0.09502806169390678,0.0010172142185270786
1768421482583100700,1.4891005859375,0.023391543111950158,-0.08298340363502502,0.016135799830034374
1768421482593100500,1.4991005859375,-0.008088613909482956,-0.0498141244828701,0.03642060909830033
1768421482603100400,1.509100341796875,0.0023778350472450256,-0.04447393249869346,0.03490319027267396
1768421482613100500,1.5191005859375,0.004468085324764251,-0.020267712002992627,0.04870112173967063
1768421482623100400,1.529100341796875,0.0037504385747015472,-0.012032967621088027,0.04212693098112941
1768421482633100500,1.5391005859375,-0.02167041840776801,-0.03460720300078392,0.034338980518653986
1768421482643100400,1.549100341796875,-0.058470966734364624,-0.04073883762359619,0.02616056943386793
1768421482653100500,1.5591005859375,-0.04906717857308685,-0.041027006915211675,0.007874386636912822
1768421482663100400,1.569100341796875,-0.04030395333766937,-0.04908814829587936,-0.002289206915721297
1768421482673100800,1.579100830078125,-0.0077845163963735095,-0.048428807604312896,-0.012004691374674439
1768421482683100700,1.5891005859375,-0.010128595304489136,-0.06166472127437591,-0.022515052538365124
1768421482693100800,1.599100830078125,-0.017733078958839178,-0.07067278811633586,-0.0010992664787918328
1768421482703100700,1.6091005859375,-0.010135463436692952,-0.0730763421267271,-0.005856324812769889
1768421482713100500,1.6191005859375,0.013623963139578699,-0.04927636434435844,-0.0037449586819857357
1768421482723100700,1.6291005859375,0.022546032198518515,-0.02439385202229023,-0.013211582946404813
1768421482733100500,1.6391005859375,0.018819047564640642,-0.020264789393544196,-0.015271365020424126
1768421482743100700,1.6491005859375,-0.018502455896139143,-0.0068301382809877395,-0.01633088401071727
1768421482753099800,1.659099853515625,-0.02534019296169281,-0.014065934753417967,0.008915785448625682
1768421482763099600,1.669099609375,-0.02156403542384505,-0.020126257705688474,0.014604206348583101
1768421482773099800,1.679099853515625,-0.03391995138898492,-0.03278349470496177,0.029844299447908996
1768421482783099600,1.689099609375,-0.02352583701610565,-0.02421557284593582,0.02348031737394631
1768421482793099500,1.699099609375,0.008384308920428156,-0.019082301610708237,0.019126944470033047
1768421482803099600,1.709099609375,-0.012526523291692137,-0.029502573338150977,0.004452960820868611
1768421482813099500,1.719099609375,-0.05318111669793725,-0.04620119468271732,0.02087481105066836
1768421482823099600,1.729099609375,-0.053607671546936034,-0.06892156053483486,0.041788419741764664
1768421482833099500,1.739099609375,-0.04495791662335395,-0.0921212343364954,0.03956679816953838
1768421482843099600,1.749099609375,0.007955489049106836,-0.06310849034190177,0.05845788805708289
1768421482853099500,1.759099609375,0.020167174237966535,-0.06191431212127208,0.04905504974387586
1768421482863099600,1.769099609375,-0.009424830949306488,-0.04531213688850402,0.03730784026160836
1768421482873099500,1.779099609375,0.018927987831830976,-0.029653379985690113,0.010009425904229282
1768421482883099600,1.789099609375,0.08362045942954718,0.00395662867128849,-0.025582842611148952
1768421482893099500,1.799099609375,0.10802066812738775,0.05435527504384517,-0.08073891264386475
1768421482903099600,1.809099609375,0.017547493258863685,0.06241700094640255,-0.09086794633977115
1768421482913099500,1.819099609375,-0.06642857467532158,0.053259296500682826,-0.08257073118090628
1768421482923098600,1.8290986328125,-0.060021191851049656,0.010717793369293212,-0.067024129415676
1768421482933098500,1.839098388671875,-0.03945274333581328,-0.011582885766029357,-0.023233429940789935
1768421482943098600,1.8490986328125,-0.011634323692321777,-0.03831891700029373,0.0327276728644967
1768421482953098500,1.859098388671875,0.001191255611181259,-0.0657610506772995,0.08206468135491013
1768421482963098600,1.8690986328125,0.01654547660946846,-0.06670914518237113,0.1187508095216006
1768421482973098500,1.879098388671875,-0.037672435790300364,-0.05543079532086849,0.1033831445198506
1768421482983098600,1.8890986328125,-0.08811090271659194,-0.07083177807033061,0.10281235889457166
1768421482993098500,1.899098388671875,-0.10251819825358688,-0.0718739805996418,0.0583810234285891
1768421483003098400,1.909098388671875,-0.07220262803211808,-0.051339142093062395,0.017679887466877698
1768421483013098500,1.919098388671875,-0.037706338059902186,-0.04063654629290104,-0.022254867232218385
1768421483023098600,1.9290986328125,-0.03338562531657517,-0.01388414844572544,-0.02675181332528591
1768421483033098800,1.9390986328125,-0.06780804633498191,-0.011686930662393569,-0.023484774353355168
1768421483043098600,1.9490986328125,-0.08574819217324256,-0.006368950510025024,-0.03508519577607512
1768421483053098800,1.9590986328125,-0.08850260544791817,-0.024996494090557098,-0.023703020213916896
1768421483063098600,1.9690986328125,-0.0785411834038794,-0.016086042404174803,-0.045835576240718365
1768421483073098800,1.9790986328125,-0.07712313329949974,-0.014959084200859068,-0.04154153230860829
1768421483083098600,1.9890986328125,-0.07401917593479156,0.00008709376156330108,-0.03350216436833143
1768421483093098800,1.9990986328125,-0.06738119922503828,0.024575638329982757,-0.03514394022598862
1768421483103097600,2.00909765625,-0.08021751911826432,0.04576806396245956,-0.015364230935648083
1768421483113097700,2.01909765625,-0.08401581542268395,0.040484570601582524,0.005095715703815221
1768421483123097600,2.02909765625,-0.09261983150839805,0.027573651102185247,0.02103285115659237
1768421483133097700,2.03909765625,-0.09566993979401886,0.0016167875468730926,0.016341624600440263
1768421483143097600,2.04909765625,-0.11602774123325943,-0.032249826219677924,0.04380691995732486
1768421483153097700,2.05909765625,-0.14363207973465322,-0.06880465615689754,0.06067936349883675
1768421483163097600,2.06909765625,-0.1333482938684523,-0.09839549230039119,0.14899908666051923
1768421483173097700,2.07909765625,-0.11548033648356795,-0.09569733925759792,0.286720919438079
1768421483183097600,2.08909765625,-0.08540902334675192,-0.07900105600059032,0.3987479736626148
1768421483193097500,2.099097412109375,-0.10130589985437691,-0.10578384898602962,0.449927614345029
1768421483203097600,2.10909765625,-0.12480718695111571,-0.12876198899149893,0.4280035865023732
1768421483213097500,2.119097412109375,-0.11547010735049842,-0.17861936809420584,0.3366803706757724
1768421483223097600,2.12909765625,-0.09560673836469649,-0.23902619826197624,0.2044944716501981
1768421483233097500,2.139097412109375,-0.07625073437914252,-0.23628186798989773,0.15914835942685604
1768421483243097600,2.14909765625,-0.10797061844058334,-0.17159633758962153,0.15776296948306262
1768421483253097500,2.159097412109375,-0.1741302399814129,-0.09281623086333274,0.11525799896977841
1768421483263097600,2.16909765625,-0.2271674181640148,-0.007945406046509743,0.1128363978460431
1768421483273096400,2.179096435546875,-0.21853739085420965,0.051505146309733386,0.10634425934776663
1768421483283096600,2.1890966796875,-0.1944377725381404,0.053692427220940586,0.06217237853556871
1768421483293096400,2.199096435546875,-0.19958141903690993,0.02100479410588741,0.019839403588324783
1768421483303096600,2.2090966796875,-0.2762193261027336,0.015733575704693793,-0.061717803168483076
1768421483313096400,2.219096435546875,-0.33383922896571455,-0.0058270987182855605,-0.17194895041957498
1768421483323096600,2.2290966796875,-0.3671276775181293,-0.041758243799209595,-0.2444113618990406
1768421483333096400,2.239096435546875,-0.34868023974485696,-0.11217325776219367,-0.26987039546743036
1768421483343096600,2.2490966796875,-0.28221652069091796,-0.19827859281003474,-0.29567163006961344
1768421483353096400,2.259096435546875,-0.16787812078408895,-0.24390169534385203,-0.2834391212884337
1768421483363096600,2.2690966796875,-0.08094692937135696,-0.23456980337500571,-0.1829504195684567
1768421483373096400,2.279096435546875,-0.03400404947586357,-0.1581336294263601,-0.0919875980194658
1768421483383096600,2.2890966796875,-0.00530512067079544,-0.02389525485038757,-0.003875635856948793
1768421483393096400,2.299096435546875,-0.018038345515727996,0.12062427524328231,0.07337192753981799
1768421483403096300,2.309096435546875,-0.023550313870236275,0.24512802226841449,0.1199478007538244
1768421483413096400,2.319096435546875,-0.039864392876625056,0.3062953154146671,0.1715225782336667
1768421483423096300,2.329096435546875,-0.03950425432734191,0.3051496525108814,0.2124727935856208
1768421483433096400,2.339096435546875,-0.003544540739059448,0.25248773738145824,0.24882914180867372
1768421483443096300,2.349096435546875,0.016502295054867864,0.11462357352375983,0.261337362258695
1768421483453095400,2.359095458984375,0.12705861913971603,0.07741641715764999,0.32088363007437437
1768421483463095600,2.369095458984375,0.23946926585435865,0.11151742420196532,0.3908157558912411
1768421483473095400,2.379095458984375,0.31984796688370404,0.20238193647563457,0.48027474874854087
1768421483483095300,2.38909521484375,0.415845092805475,0.31652854013741016,0.7014674764171243
1768421483493095400,2.399095458984375,0.5673476136542857,0.4341951346188783,0.9093825701657682
1768421483503095600,2.409095458984375,0.6444611023426056,0.5124515097320079,1.0835079147763549
1768421483513095700,2.419095703125,0.5340038547180592,0.4746557398229837,1.1279654806621373
1768421483523095600,2.429095458984375,0.33891982016563416,0.39296003791093825,1.0140265284016727
1768421483533095700,2.439095703125,0.055134296592324966,0.299904153072834,0.7737481381215154
1768421483543095600,2.449095458984375,-0.291415580060333,0.12129472185075282,0.45032644093688573
1768421483553095700,2.459095703125,-0.570004557903856,-0.02690437353849411,0.180629538872838
1768421483563095600,2.469095458984375,-0.748040719282627,-0.13276888654530047,0.042883448436856264
1768421483573095700,2.479095703125,-0.9285738120436667,-0.312573080509901,-0.183855076790601
1768421483583095600,2.489095458984375,-1.1419243748445063,-0.4858803136706352,-0.4460479599000886
1768421483593095400,2.499095458984375,-1.213982991296053,-0.6078975045770406,-0.6782350693896413
1768421483603095600,2.509095458984375,-1.1654476545773447,-0.6741893011301755,-0.8022937029957771
1768421483613094700,2.5190947265625,-1.0218388095878064,-0.6476303800284862,-0.7401736391693353
1768421483623094500,2.529094482421875,-0.9511679211676121,-0.5379927782237529,-0.5574037272669374
1768421483633094700,2.5390947265625,-0.9688296884559094,-0.35665655238628385,-0.22258860247377305
1768421483643094500,2.549094482421875,-0.9814916016303002,-0.18959142848551272,0.12338014982268214
1768421483653094700,2.5590947265625,-0.9647671151921152,-0.06304828458726405,0.4883435619790107
1768421483663094500,2.569094482421875,-0.9937224299110472,0.04603051429092884,0.8511260498996823
1768421483673094400,2.579094482421875,-1.0570632677040994,0.06976268753409386,1.0843614628657698
1768421483683094500,2.589094482421875,-1.034240025999397,0.0651724371343851,1.2116362820394337
1768421483693094400,2.599094482421875,-0.9088730862736701,0.06008125147521495,1.2148512985631823
1768421483703094500,2.609094482421875,-0.7490801453329622,-0.002641454419493675,1.1121261795606463
1768421483713094400,2.619094482421875,-0.5175614000916481,-0.03846738556027412,0.9689445470072329
1768421483723094500,2.629094482421875,-0.38369785017743707,-0.041027591437101364,0.8401714520998299
1768421483733094400,2.639094482421875,-0.4041818352796137,0.02380173134803772,0.755416435682401
1768421483743094500,2.649094482421875,-0.5227661291278899,0.05176525855064392,0.6230537187851966
1768421483753094400,2.659094482421875,-0.6022470775999128,0.044888943040370936,0.5191096889795735
1768421483763094500,2.669094482421875,-0.6527450926937163,0.028398996010422704,0.5827793568681925
1768421483773094400,2.679094482421875,-0.6834384832516313,0.03523030333518982,0.6158228907488286
1768421483783094500,2.689094482421875,-0.6199487385071814,0.07643909655809401,0.5369358895819634
1768421483793093400,2.69909326171875,-0.6423718749783933,0.007812719577550888,0.6795486362062394
1768421483803093500,2.709093505859375,-0.427756772134453,-0.15327332991361617,0.485648733404465
1768421483813093400,2.71909326171875,-0.33671368842348454,-0.13154022153317926,0.3817926376106217
1768421483823093500,2.729093505859375,-0.4489432064175605,-0.15942600732445716,0.4653530374160036
1768421483833093400,2.73909326171875,-0.5684416925013065,-0.172285488897562,0.42498774581253523
1768421483843093500,2.749093505859375,-0.7092353339396417,-0.12780337309241294,0.5455098027903587
1768421483853093600,2.75909375,-0.7515035730876028,-0.08442425009310245,0.6291444368757307
1768421483863093500,2.769093505859375,-0.7448340321958065,-0.014124971464276314,0.6196119077682495
1768421483873093600,2.77909375,-0.7298784551262855,0.02106149272918701,0.6018889848772436
1768421483883093500,2.789093505859375,-0.6933012672267854,-0.008550386202335357,0.6244641701050102
1768421483893093600,2.79909375,-0.7564229093112051,-0.06140986973047256,0.6773728996023536
1768421483903093500,2.809093505859375,-0.8801976114094257,-0.11026128666102886,0.8018442056626081
1768421483913093600,2.81909375,-0.9674924485027789,-0.1723603076994419,0.9064178020760416
1768421483923093500,2.829093505859375,-0.9669313074886798,-0.18356734589040277,1.0345633396696299
1768421483933093600,2.83909375,-0.9263808320440351,-0.13047054647505282,1.178894799845293
1768421483943093500,2.849093505859375,-0.9616473757363855,-0.031817864543199535,1.3681271126948296
1768421483953093600,2.85909375,-1.0140377804480492,0.037357963013648986,1.5451768933847545
1768421483963092500,2.869092529296875,-1.0637515132963657,0.07844634472727775,1.689691747303307
1768421483973092600,2.879092529296875,-1.0241945789337157,0.08013853559792042,1.8430892881184815
1768421483983092500,2.889092529296875,-0.8109189079999923,0.06954816800057888,1.9937468825757503
1768421483993092600,2.899092529296875,-0.6087877314150333,0.040537177571654315,2.001994194178283
1768421484003092500,2.909092529296875,-0.6230044728159904,0.08000935626029967,1.9234293376378715
1768421484013092600,2.919092529296875,-0.7608649834118782,0.18542437193393707,1.7945409457877277
1768421484023092500,2.929092529296875,-0.8725697468794882,0.2738064197421074,1.6670850709587335
1768421484033092600,2.939092529296875,-0.9110007459521293,0.35094343543648715,1.5668483347058295
1768421484043092500,2.949092529296875,-0.893430164078623,0.3812205002784729,1.60814319877699
1768421484053092400,2.95909228515625,-0.8207343457020819,0.3911889365851879,1.7616800019323824
1768421484063092500,2.969092529296875,-0.7763841857135295,0.40732933952510353,2.009107825575769
1768421484073092400,2.97909228515625,-0.7061326917491852,0.41263621376156806,2.2781971536681054
1768421484083092500,2.989092529296875,-0.5321944672085345,0.4427548731714487,2.532377666442096
1768421484093092400,2.99909228515625,-0.20143077323064207,0.4859884502202272,2.5916227593541143
1768421484103092500,3.009092529296875,0.650272565100342,0.35992870592474935,2.2377213508948683
1768421484113092400,3.01909228515625,2.402684095688909,-0.17837386890053747,1.644372303891182
1768421484123091500,3.029091552734375,3.6739784353554246,-1.7447393885254858,0.8548774383224547
1768421484133091300,3.03909130859375,3.549718433958292,-3.515809150093794,0.7708207063674927
1768421484143091500,3.049091552734375,1.8057576285898684,-4.342470401626825,1.7278217176027595
1768421484153091300,3.05909130859375,-0.22653291965276,-4.038585654485225,2.1373221175566313
1768421484163091500,3.069091552734375,-1.2006661213442682,-3.281293122732639,1.638512179686129
1768421484173091300,3.07909130859375,-1.437617266897857,-2.249398636946082,1.3758601911649107
1768421484183091500,3.089091552734375,-1.333766431801021,-1.1625900731891392,1.2304418125353753
1768421484193091300,3.09909130859375,-0.9930872007474303,-0.48863925698995586,0.6589345949836075
1768421484203091700,3.109091796875,-0.3198793118700385,-0.40623862167894836,-0.1588504724588245
1768421484213091600,3.119091552734375,0.18014497022628784,-0.7942208711773157,-0.9430259696356952
1768421484223091700,3.129091796875,0.47836774608343835,-1.199631809860468,-1.3626599333301186
1768421484233091600,3.139091552734375,0.874365251994133,-1.4188742802441119,-1.539269715167582
1768421484243091500,3.149091552734375,1.067536877053976,-1.394009888100624,-1.5796075707748531
1768421484253091600,3.159091552734375,0.7222643268607556,-1.072715740996599,-1.3599828230753541
1768421484263091500,3.169091552734375,0.033787703311443325,-0.5329688125818968,-0.7556514865472912
1768421484273091600,3.179091552734375,-0.5329423629663884,0.03953706061840057,-0.00959185807928443
1768421484283091500,3.189091552734375,-0.7414860369421541,0.5567576844483614,0.5545831168882549
1768421484293090600,3.199090576171875,-0.4628910677492618,0.963251157671213,0.6919073286503553
1768421484303090700,3.209090576171875,0.13839827073439956,1.1849784306079147,0.4921897890783846
1768421484313090600,3.219090576171875,0.6920702641271055,1.181307633140683,0.08892682220935821
1768421484323090400,3.22909033203125,0.7349215638600289,0.9554016132146119,-0.34512788102552294
1768421484333090600,3.239090576171875,0.35883082768544555,0.5366740968406201,-0.5631001853428781
1768421484343090400,3.24909033203125,0.09731456519588827,0.04987549928128719,-0.6135581606872379
1768421484353090600,3.259090576171875,0.14532821612805127,-0.29312545271813867,-0.5344508678331971
1768421484363090400,3.26909033203125,0.283217076035589,-0.42324411701560016,-0.4069752653904259
1768421484373090000,3.279090087890625,0.3432334455810487,-0.3684720778644085,-0.2899494530305266
1768421484383090000,3.28908984375,0.36038550978153944,-0.15015373658835887,-0.21570728199481962
1768421484393090300,3.29909033203125,0.33401495085880156,0.2055383546799421,-0.10809782501682638
1768421484403090200,3.309090087890625,0.2911085599377751,0.6234440332770347,-0.0729696668818593
1768421484413090300,3.31909033203125,0.31498131069540974,0.9916133288025856,-0.08836991897895932
1768421484423090200,3.329090087890625,0.382800901337713,1.2513795327544213,-0.136948364187032
1768421484433090300,3.33909033203125,0.48766412834748624,1.3985668207526205,-0.2432636897012591
1768421484443089200,3.349089111328125,0.6610403350912034,1.4841770657598972,-0.3995798944421112
1768421484453089300,3.35908935546875,0.8561211547732352,1.5571896950006483,-0.6854941006071865
1768421484463089200,3.369089111328125,0.9924771060250699,1.5714327398866414,-1.0216194677487016
1768421484473089300,3.37908935546875,1.0910556998074055,1.4289052603930235,-1.3808097763963043
1768421484483089200,3.389089111328125,0.9975647845529019,1.0777642565578223,-1.6430895706042647
1768421484493089300,3.39908935546875,0.8234697620153426,0.7948217596799134,-1.6164964549720287
1768421484503089200,3.409089111328125,0.747556881288439,0.5332295093446969,-1.3839816844306885
1768421484513089300,3.41908935546875,0.5739595791399479,0.1999924109905958,-1.1647424289174377
1768421484523089200,3.429089111328125,0.27252412484660743,-0.032092589831352235,-0.9130351743891835
1768421484533089300,3.43908935546875,-0.017622019799798726,-0.054149523338675495,-0.4518314752049744
1768421484543089200,3.449089111328125,-0.2959163986109197,-0.05056406606733799,0.05894435639977455
1768421484553089000,3.459089111328125,-0.5521100047729909,-0.09995733478963374,0.44993981623947615
1768421484563089200,3.469089111328125,-0.601827098622173,-0.06970014369189739,0.7654075952775776
1768421484573089000,3.479089111328125,-0.5599998812399805,0.003033668607473373,0.9299833865806459
1768421484583089200,3.489089111328125,-0.5157354998387396,0.1141676464498043,0.9388418158188462
1768421484593089000,3.499089111328125,-0.5076552153661846,0.22245266460180282,0.8475469493038952
1768421484603089200,3.509089111328125,-0.5749756243146955,0.3221808668106794,0.7545498819809406
1768421484613088300,3.519088134765625,-0.5824352926708758,0.44288755964040755,0.6431249583680182
1768421484623088000,3.529088134765625,-0.4986066703833639,0.5805220063954591,0.5025120072588324
1768421484633088000,3.539087890625,-0.43669162760972974,0.7613368387073278,0.4242817164350301
1768421484643088100,3.549088134765625,-0.44735082265958187,0.9705331313729285,0.366530076951161
1768421484653088000,3.559087890625,-0.6209549929402768,1.101998534104228,0.23920126256793736
1768421484663088000,3.569088134765625,-0.8187563236273825,1.0906605630099773,0.1798260404702276
1768421484673088000,3.579087890625,-1.0376445737458766,1.0579185693591833,0.15229644770547746
1768421484683088100,3.589088134765625,-1.1315598518922925,0.9406769222915172,0.11842866489514708
1768421484693088000,3.599087890625,-1.1452372257195413,0.8049006706237792,0.0633496786866337
1768421484703088000,3.609088134765625,-1.2722842274866997,0.725237351322174,0.039454569966718554
1768421484713088000,3.619087890625,-1.4296458496272564,0.5723877997785807,0.04679506892263889
1768421484723088100,3.629088134765625,-1.4911561109922826,0.3983756332188844,0.13982669610232115
1768421484733088000,3.639087890625,-1.4876559939168392,0.21607085461020467,0.2337704696908593
1768421484743088000,3.649088134765625,-1.6059014111995695,0.11736731927394867,0.33881007618084547
1768421484753088300,3.659088134765625,-1.6556044765233993,0.10349427674412727,0.5201743590690195
1768421484763088100,3.669088134765625,-1.6909049224853514,0.06176759712696075,0.7544593541532755
1768421484773087000,3.6790869140625,-1.7327940991878508,-0.03278407922685146,1.0458545490127056
1768421484783087400,3.68908740234375,-1.7810533954441545,-0.18530629851222039,1.3039759814321994
1768421484793087200,3.699087158203125,-1.8018645666740833,-0.350537192723155,1.5220964620485902
1768421484803087400,3.70908740234375,-1.8461326013371346,-0.48724926393628115,1.6479203517615795
1768421484813087200,3.719087158203125,-1.9140693886183202,-0.6102455290079116,1.6174821050085126
1768421484823087000,3.729087158203125,-1.9288988550901411,-0.6707435445904731,1.4813307364180683
1768421484833087200,3.739087158203125,-1.9806172057591378,-0.785340814629197,1.2509231672890484
1768421484843087000,3.749087158203125,-2.138301483982801,-0.8759276790052651,0.9915492505904286
1768421484853087200,3.759087158203125,-2.477887659102678,-0.8635597803413867,0.8110698607780039
1768421484863087000,3.769087158203125,-2.7236171543955803,-0.7879559655636549,0.4971148243904113
1768421484873087200,3.779087158203125,-1.7512312347628176,-0.4493453574776649,-0.2706517003045417
1768421484883087000,3.789087158203125,0.23912542085275051,-0.603622311475873,-0.6210159293472767
1768421484893087200,3.799087158203125,2.8154887978851795,-3.0673709705889225,-0.9572820201337336
1768421484903087000,3.809087158203125,2.5833915221035477,-6.622504415333271,-3.0114146900892256
1768421484913087200,3.819087158203125,0.5786905531845986,-7.382257784241437,-5.136666722884774
1768421484923087000,3.829087158203125,-0.21415128472447395,-5.02578116684556,-5.147222019168734
1768421484933086200,3.839086181640625,-1.0181493074201047,-2.8279911365836856,-3.7681510492637753
1768421484943086000,3.849086181640625,-0.7806361440695821,-1.4673586174279452,-3.4349054753422736
1768421484953086200,3.859086181640625,0.13148001577854157,0.2691027720957994,-2.988907090204954
1768421484963086000,3.869086181640625,0.11401099458336829,1.6864923667401075,-1.8524127045199275
1768421484973086200,3.879086181640625,-0.25367884686216713,2.361621579068899,-0.4826276320176199
1768421484983086000,3.889086181640625,-0.13971812116131185,2.5263795950710772,0.6349691975064575
1768421484993086200,3.899086181640625,1.023772554129362,2.444595630353689,1.3602744994983076
1768421485003086000,3.909086181640625,2.539875036460161,1.7030010184705255,1.4202343165509401
1768421485013086200,3.919086181640625,3.4817899761140345,0.3344283539652824,1.0907688456900417
1768421485023086000,3.929086181640625,3.4024493128955364,-0.7683803274780512,0.16044943208806214
1768421485033086000,3.9390859375,2.6074492740392685,-1.2762035928875206,-1.4675903803572057
1768421485043086000,3.949086181640625,2.1144062291324137,-1.090491636183858,-2.5060128066077825
1768421485053086000,3.9590859375,1.9470951676465569,-0.7735381486326456,-3.0126626443237066
1768421485063086000,3.969086181640625,1.5153063635170458,-0.5867249526888132,-3.523895425915718
1768421485073086000,3.9790859375,0.7528091027282178,-0.3648766837209463,-3.6376021768555042
1768421485083086300,3.98908642578125,-0.15523045533075927,-0.11205986051559448,-3.3129867763742804
1768421485093085000,3.9990849609375,-0.8135235375404357,0.025053192713856694,-2.9047271702617405
1768421485103085000,4.0090849609375,-0.9028665393352509,0.2544686820656061,-2.4187521640449763
1768421485113085000,4.0190849609375,-0.5700127412103116,0.42684477185606956,-1.9308460436351595
1768421485123085000,4.0290849609375,0.01914659901857376,0.47562312355041503,-1.2610517625935376
1768421485133085200,4.039085205078125,0.6352643810607492,0.5840408281713724,-0.3765293833201751
1768421485143085300,4.049085205078125,1.139802487319708,0.7367693836838006,0.46538493039160966
1768421485153085200,4.059085205078125,1.4364637129485607,0.905052066680789,0.9579474983051419
1768421485163085300,4.069085205078125,1.392331141233444,1.0801000060290098,1.1918765926238148
1768421485173085200,4.079085205078125,1.1361492255091667,1.3036661848306654,1.180464387249574
1768421485183085300,4.089085205078125,0.8085515943467616,1.6047043103694916,1.0067593138776718
1768421485193085200,4.099085205078125,0.4805469898186624,1.8318699749678373,0.8499025725193321
1768421485203085300,4.109085205078125,0.27576807520389557,1.9250772509753702,0.6718070091035216
1768421485213085200,4.119085205078125,0.1375040983736515,1.840689825761318,0.45590464292801913
1768421485223085000,4.1290849609375,0.07247384618893266,1.5764765792727469,0.5285401459520682
1768421485233085200,4.139085205078125,0.18500585426092148,1.2628449296206234,0.6118631202723831
1768421485243084300,4.149084228515625,0.1888904406093061,0.8686965587079525,0.9155527101680636
1768421485253084200,4.159084228515625,0.15936653222218156,0.592861263486743,1.001177495157346
1768421485263084300,4.169084228515625,0.17033450096026062,0.4489999050408601,0.8552967597130685
1768421485273084200,4.179084228515625,-0.04731368596926331,0.43542730676233765,0.71274480336532
1768421485283084000,4.189083984375,-0.20516265323534608,0.5279419243305922,0.4813029592851177
1768421485293084200,4.199084228515625,-0.3832676420666277,0.564445900863409,0.088678601335641
1768421485303084000,4.209083984375,-0.603393909547478,0.6086433545082807,-0.26734721539905293
1768421485313084200,4.219084228515625,-0.6849382202900945,0.5345715716034174,-0.5254986958969384
1768421485323084000,4.229083984375,-0.7760301115788519,0.4667302075207233,-0.6530876955863087
1768421485333084200,4.239084228515625,-0.9184441938258707,0.4609083694994449,-0.5461841583879664
1768421485343084000,4.249083984375,-1.108800761464983,0.5015115980446339,-0.32609785759132354
1768421485353084200,4.259084228515625,-1.2406338284648954,0.46411914823949335,-0.0984270656155888
1768421485363084000,4.269083984375,-1.2136743637382983,0.45258594683408737,0.015401348075643181
1768421485373084700,4.279084716796875,-1.1835668102443218,0.2499772158652544,0.2847228409560397
1768421485383084500,4.28908447265625,-1.0966342305921017,0.01844458822906017,0.16041576728047802
1768421485393084400,4.29908447265625,-1.0392460175931453,-0.15137363377213478,0.029212942741811274
1768421485403083500,4.30908349609375,-1.1403684506393967,-0.2218687272340059,-0.0085334533338435
1768421485413083600,4.319083740234375,-1.4171569549322127,-0.1019593222618103,0.18715101306345314
1768421485423083500,4.32908349609375,-1.4558091955401002,0.023999299746751784,0.5741254372261464
1768421485433083600,4.339083740234375,-0.9943817706026137,0.013894085317850111,0.8088522577937692
1768421485443083500,4.34908349609375,-0.39623701375499365,-0.16824059742093087,0.768995098375529
1768421485453083400,4.35908349609375,-0.23135376393795012,-0.5121539880901574,0.5286037127075717
1768421485463083500,4.36908349609375,-0.6959776468291878,-0.9081932873159646,0.195140477447398
1768421485473083400,4.37908349609375,-1.8069535603761673,-1.3362351600021123,-0.20355700813699512
1768421485483083500,4.38908349609375,-2.9530478413164616,-1.644299238654971,-0.5339307894818485
1768421485493083400,4.39908349609375,-3.6392742017209527,-1.626201271906495,-0.8065642929870634
1768421485503083500,4.40908349609375,-3.164109343332052,-1.4427905778825283,-1.2830052357263861
1768421485513083400,4.41908349609375,-1.754269433414936,-1.084342465904355,-1.6306427614852785
1768421485523083500,4.42908349609375,0.1491338920213282,-1.601549645730853,-1.8261983590722084
1768421485533083400,4.43908349609375,1.86737441906929,-3.3935657492160796,-2.189812767772376
1768421485543083500,4.44908349609375,2.8562615377783773,-4.6227527393847705,-2.2863038877561688
1768421485553082400,4.459082275390625,1.5018039078652858,-5.008287595731019,-0.17863370714681223
1768421485563082500,4.46908251953125,0.9726211896933614,-4.498817147636413,1.5736363874107597
1768421485573082400,4.479082275390625,2.055788035947084,-2.8837106857180594,2.275842699496448
1768421485583082500,4.48908251953125,3.243794874465465,-0.9383744905680418,1.989254539592564
1768421485593082400,4.499082275390625,3.963699048066139,0.8137269511580467,0.9458575397998094
1768421485603082500,4.50908251953125,3.9491654958009716,2.178565689831972,-0.7733258210562169
1768421485613082400,4.519082275390625,3.1816999450802803,3.1124627427250147,-2.610817289167642
1768421485623082500,4.52908251953125,1.985613845002651,3.3964006803810594,-3.8576480725765228
1768421485633082600,4.53908251953125,0.7455996828060597,3.020968115854263,-4.393637986545264
1768421485643082500,4.54908251953125,-0.37303953191041944,2.082698839226365,-4.115517502996325
1768421485653082600,4.55908251953125,-1.2783283299565313,1.0499708252251148,-2.8776114920601246
1768421485663082500,4.56908251953125,-2.0912030481994153,0.21037761140465736,-1.0929825762167573
1768421485673082600,4.57908251953125,-2.2581109357118607,-0.5914455514699221,0.4992356159366667
1768421485683082500,4.58908251953125,-1.2608768444180487,-1.268717036524415,1.497474938750267
1768421485693082600,4.59908251953125,0.48289092259630556,-1.616616866481304,2.030024503006786
1768421485703082500,4.60908251953125,2.070107653200626,-1.714690287220478,1.9361583246991036
1768421485713081600,4.61908154296875,2.943561051046848,-1.5700976918905973,1.3233444065079092
1768421485723081500,4.62908154296875,2.935937716561556,-1.088139520099759,0.30915300640072674
1768421485733081600,4.63908154296875,2.2732770867921412,-0.3185527394413948,-0.8290901591803878
1768421485743081500,4.64908154296875,1.2195428904455154,0.5266232429474592,-1.6464917802631853
1768421485753081600,4.65908154296875,0.23546054166965186,1.3733312572091818,-2.27849613661468
1768421485763081500,4.66908154296875,-0.4603309349376708,2.211818555614352,-2.6521836110398174
1768421485773081600,4.67908154296875,-0.9113011902034283,2.968347701779008,-2.7264199368566273
1768421485783081500,4.68908154296875,-1.0358687231797725,3.4475498528599737,-2.6551485983252525
1768421485793081600,4.69908154296875,-0.9828256997782736,3.5010412045508623,-2.6310850011706353
1768421485803081500,4.70908154296875,-0.8486556411981582,3.1534944258153437,-2.457574062131345
1768421485813081600,4.71908154296875,-0.6290307473681866,2.544550627055764,-2.017926361194998
1768421485823081500,4.72908154296875,-0.4037397906005382,1.8636130207091568,-1.5472442011781036
1768421485833081600,4.73908154296875,-0.2746994230590761,1.186035246184468,-1.1701892230812458
1768421485843081500,4.74908154296875,-0.25149646132178605,0.5561737470805644,-0.7819825902424752
1768421485853081300,4.759081298828125,-0.29948680444359776,0.11874094571471214,-0.3832852142559364
1768421485863080400,4.76908056640625,-0.3687679190058261,-0.08657295255959034,-0.021718385735340417
1768421485873080600,4.77908056640625,-0.4203333441354334,-0.17845511744320391,0.1804742387132719
1768421485883080400,4.78908056640625,-0.5224971029281615,-0.2196077965646982,0.26008363587055355
1768421485893080600,4.79908056640625,-0.6012367315135896,-0.2358423075288534,0.38089831911940125
1768421485903080400,4.80908056640625,-0.7081165590427816,-0.20347733049690722,0.45878604358322916
1768421485913080600,4.81908056640625,-0.8902712616562842,-0.24877894599139688,0.45907096147183324
1768421485923080400,4.82908056640625,-1.1273686838127672,-0.31145605917870994,0.4337803798055276
1768421485933080300,4.839080322265625,-1.3174351824641226,-0.4108282875567674,0.36952659188602116
1768421485943080400,4.84908056640625,-1.4566883164621889,-0.45811493938863274,0.227964596423693
1768421485953080300,4.859080322265625,-1.744927604573965,-0.43937516760528084,0.14162800990324467
1768421485963080400,4.86908056640625,-2.6453052497029304,-0.4834720834851265,0.0023994258245453237
1768421485973080300,4.879080322265625,-3.0415923862099645,-0.45860769134163853,-0.1617423945080489
1768421485983080700,4.889080810546875,-2.363802868630737,-0.12370178299248218,-0.3971932550339028
1768421485993080600,4.89908056640625,-1.4717324485979972,0.2899006454527378,-0.875294057276845
1768421486003080700,4.909080810546875,-1.3237433426976204,0.5292354712724685,-1.1024373639129101
1768421486013079300,4.919079345703125,-2.1185504893302918,0.42962008178830147,-1.0014194141544401
1768421486023079400,4.929079345703125,-2.8023043221414086,0.14597908125221729,-0.9303755277033895
1768421486033079600,4.93907958984375,-2.7799416836857795,-0.1496995630800724,-1.0065158605106175
1768421486043079700,4.94907958984375,-2.5860838299274445,-0.3821311853826046,-1.1998061435140668
1768421486053079600,4.95907958984375,-2.76475931212306,-0.507552047252655,-1.4956199585333465
1768421486063079700,4.96907958984375,-3.163003427916765,-0.4264233315736055,-1.523715587683022
1768421486073079600,4.97907958984375,-2.8000737866103647,0.10689853222966193,-1.2232972745429724
1768421486083079700,4.98907958984375,-1.4560618551269173,0.5549029964923858,-1.2140139709562063
1768421486093079600,4.99907958984375,0.013419307412952185,-0.5379156213343144,-1.1232157288517803
1768421486103079700,5.00907958984375,1.5861292276285588,-2.480978610855341,-2.307802895119786
1768421486113079600,5.01907958984375,1.249962651693821,-3.883056654599309,-3.6834234323099255
1768421486123079400,5.029079345703125,0.2879216004647314,-3.6073195590555667,-3.6665208128258584
1768421486133079600,5.03907958984375,-0.7752398379839956,-2.569769239464402,-2.8651684823334214
1768421486143079400,5.049079345703125,-1.4419592416249214,-1.6125450869977473,-2.570439101549983
1768421486153079600,5.05907958984375,-1.2198970376454292,-0.3358978419959545,-2.6170570603400467
1768421486163078700,5.06907861328125,-0.8573346222162246,0.8559569041222334,-2.0166462582565843
1768421486173078500,5.07907861328125,-0.7161001051425934,1.370076054805517,-1.4201064523875713
1768421486183078400,5.089078369140625,-0.23679230173006652,1.2517664862453937,-1.224971418300271
1768421486193078500,5.09907861328125,0.8392658815622329,0.59350073043406,-0.9966999844171106
1768421486203078400,5.109078369140625,1.6506687736868857,-0.273629894131422,-0.8403184593550861
1768421486213078500,5.11907861328125,1.957658354976028,-0.7423141583293676,-0.6858870454475283
1768421486223078400,5.129078369140625,2.4069781396210193,-1.0256798490554093,-0.31084340717308223
1768421486233078500,5.13907861328125,3.01418532384634,-1.5338941596090794,0.06356123907808214
1768421486243078400,5.149078369140625,3.300474793064594,-2.053910551637411,0.3134260806100443
1768421486253078500,5.15907861328125,3.2137019340187307,-1.7806699490845201,0.3551613819250837
1768421486263078400,5.169078369140625,2.987084550952911,-0.8406225568681955,0.3191244749147445
1768421486273078500,5.17907861328125,2.5451427477300164,-0.05607727653086185,0.323228768428415
1768421486283078400,5.189078369140625,1.8956230468235908,0.30598551881313324,0.2645571645554155
1768421486293078500,5.19907861328125,1.2142669228039682,0.2952729861408472,0.03804894095249474
1768421486303078400,5.209078369140625,0.7650302863977849,0.005067804783582687,-0.47805941078662867
1768421486313077500,5.219077392578125,0.5069359611809253,-0.394450568729639,-1.2928197966456412
1768421486323077400,5.229077392578125,0.4890566056191921,-0.7469903334468603,-2.119943551123887
1768421486333077500,5.239077392578125,0.6130136785469948,-1.035436688438058,-2.7411975270107387
1768421486343077400,5.249077392578125,0.7445240894638001,-1.2043605919480322,-2.964166324441135
1768421486353077500,5.259077392578125,0.8294060201965272,-1.1921534368038176,-2.688894216060638
1768421486363077400,5.269077392578125,0.8607890004537999,-0.9475409628421068,-2.019632872851938
1768421486373077200,5.2790771484375,0.812889769681543,-0.5046183318883181,-1.3124527178764342
1768421486383077000,5.2890771484375,0.7713855006434023,0.021082535517215728,-0.7669201917976141
1768421486393077200,5.2990771484375,0.7171803015947341,0.5036462719857693,-0.41541364258565006
1768421486403077400,5.309077392578125,0.5873755255520343,0.9613654900550842,-0.17841595447659492
1768421486413077200,5.3190771484375,0.4298433691501617,1.4519044431865213,0.04547715472448617
1768421486423077400,5.329077392578125,0.2946696134202182,1.9020172779053448,0.1864448010228574
1768421486433077200,5.3390771484375,0.26328838672861454,2.2766560617059466,0.2825944871578365
1768421486443077400,5.349077392578125,0.25107670153975487,2.479670450866222,0.3458232794111594
1768421486453077200,5.3590771484375,0.260481658744812,2.4422639725357294,0.27366781498901543
1768421486463077400,5.369077392578125,0.33670565124750135,2.3007447933018206,0.3811305569726974
1768421486473076200,5.379076171875,0.35555414410233493,2.1122019970864057,0.5207275725049898
1768421486483076400,5.389076416015625,0.2169850468456745,1.860485244077444,0.5910107037166134
1768421486493076200,5.399076171875,0.05044073194861412,1.6074042169779539,0.6355884984485805
1768421486503076400,5.409076416015625,-0.09109890555143356,1.3599638261139393,0.5868408706860616
1768421486513076200,5.419076171875,-0.27760347393751145,1.2519997104793785,0.4868320614375174
1768421486523076400,5.429076416015625,-0.3762298523843288,1.2008359249532221,0.36924708082489666
1768421486533076200,5.439076171875,-0.3046563160359859,1.2506816136181353,0.32519604991339146
1768421486543076400,5.449076416015625,-0.3768400932371616,1.348266958579421,0.4009988943945616
1768421486553076200,5.459076171875,-0.6190612881481647,1.3658423627585172,0.5500996878638863
1768421486563076400,5.469076416015625,-0.8064066912725567,1.3878490273833275,0.6335131534792483
1768421486573076200,5.479076171875,-1.0143769492745398,1.3428110312610864,0.6503255373965948
1768421486583076400,5.489076416015625,-1.111129642803967,1.2707348060876131,0.6280643134888261
1768421486593076200,5.499076171875,-1.1491126058481633,1.1784066510021687,0.5353192481655628
1768421486603076000,5.509076171875,-1.162399665183574,1.0157786327660083,0.4505708806846291
1768421486613075200,5.5190751953125,-1.1871781326092778,0.8266168278694153,0.38078163393717257
1768421486623075300,5.529075439453125,-1.2231646611392497,0.5620043529301881,0.3729962407579645
1768421486633075200,5.5390751953125,-1.26969611068964,0.20611761587262153,0.28612012226702643
1768421486643075300,5.549075439453125,-1.2413047134637831,-0.1710667607575655,0.0892237958619371
1768421486653075200,5.5590751953125,-1.1597554342851042,-0.5375508796751499,0.02078362563587725
1768421486663075300,5.569075439453125,-1.070931487928331,-0.8501105161815882,0.21868173122834414
1768421486673075200,5.5790751953125,-0.8220834222234785,-1.0053501777321099,0.5868399939032272
1768421486683075000,5.589074951171875,-0.3683519586160779,-1.0085288077682255,1.0987423087872563
1768421486693075200,5.5990751953125,0.24690876820534466,-0.6850882962852716,1.837155806416273
1768421486703075000,5.609074951171875,0.22582973981946705,-0.460792634165287,2.7463267065927384
1768421486713075200,5.6190751953125,0.04530629166960716,-0.7185930910021067,3.0641946786403653
1768421486723075000,5.629074951171875,-0.7731342440068721,-1.667951332399249,1.9762045038834213
1768421486733075200,5.6390751953125,-1.9844681820988654,-2.7246862449318168,0.597186506274715
1768421486743075300,5.649075439453125,-3.3296588019728657,-3.33851021694839,-0.3059626128615811
1768421486753075500,5.659075439453125,-4.419444920235872,-3.402449897417426,-0.8718424555182457
1768421486763075300,5.669075439453125,-4.179869563658535,-2.751081499904394,-1.1797881684884428
1768421486773074200,5.67907421875,-2.1025079938068987,-1.4690700975209474,-1.0453547097317875
1768421486783074300,5.68907421875,0.800464149481058,-1.8237275850445032,-1.287893153898418
1768421486793074400,5.699074462890625,2.6836791117608545,-3.041658437183499,-1.1355677723594009
1768421486803074300,5.70907421875,2.778058354157209,-3.57900181158781,-0.0008194266241043805
1768421486813074400,5.719074462890625,3.055927201032638,-3.5524142489135264,0.5920515545390546
1768421486823074300,5.72907421875,4.12578579903245,-2.7883453548938033,0.5846630151903256
1768421486833074400,5.739074462890625,5.016339969283342,-1.3959890792191028,0.20784918890558182
1768421486843074300,5.74907421875,5.253856932026148,0.0800216312199831,-0.9888762319888919
1768421486853074400,5.759074462890625,4.686571423822641,1.6116139436274766,-2.677369490222633
1768421486863074300,5.76907421875,2.8081647386074065,2.832774279206991,-4.183680646379292
1768421486873074200,5.77907421875,0.22314356947541236,2.987240033775568,-4.922086983615159
1768421486883074300,5.78907421875,-1.5344962171554564,2.2591256657123564,-4.5902644282341
1768421486893074200,5.79907421875,-2.2057832209728656,1.1813099712282418,-3.548535946175456
1768421486903074300,5.80907421875,-2.034347626902908,-0.07700900540053844,-2.100423881009221
1768421486913074200,5.81907421875,-1.2571217296682298,-1.2401830159574747,-0.43060843523852527
1768421486923073300,5.8290732421875,-0.21879940279126167,-1.9961708948522805,1.3547342548973857
1768421486933073400,5.839073486328125,0.7395547766186297,-2.322799973243475,2.860235117584467
1768421486943073300,5.8490732421875,1.6037737515211103,-2.3096751187324522,3.615905308832228
1768421486953073200,5.8590732421875,2.4061807056330142,-2.080102392992377,3.495625316981971
1768421486963073300,5.8690732421875,3.074728639875352,-1.407098502254486,2.5497818057075143
1768421486973073200,5.8790732421875,3.2046190483748913,-0.43138416885137554,1.1417352089479564
1768421486983073300,5.8890732421875,2.594038003802299,0.5169032284438609,-0.19173848698418586
1768421486993073200,5.8990732421875,1.4227508294165134,1.4055080181926487,-1.3072482811011372
1768421487003073300,5.9090732421875,0.18699439772963522,2.227964219251275,-2.194740871824324
1768421487013073200,5.9190732421875,-0.7834931409358978,2.95982069645226,-2.610211724489927
1768421487023073300,5.9290732421875,-1.4487011171005666,3.366565514087677,-2.608180803184211
1768421487033073200,5.9390732421875,-1.6561328843116758,3.3452082532823084,-2.5814789664804936
1768421487043073300,5.9490732421875,-1.4603075298726558,2.970020018905401,-2.46993933044672
1768421487053073200,5.9590732421875,-1.182677240993455,2.397000350964069,-2.313041964817047
1768421487063073300,5.9690732421875,-0.7950012079000472,1.8056605979561804,-2.1424014666475353
1768421487073072000,5.979072021484375,-0.4895476040065288,1.3247948975771664,-1.9474027722910046
1768421487083072300,5.989072265625,-0.22839491413235663,0.9704583125710486,-1.5388878762431442
1768421487093072100,5.999072021484375,-0.16484218715429305,0.7089543250411748,-1.0142748771395533
1768421487103072300,6.009072265625,-0.25174656362533565,0.6297936945647001,-0.5095181231612339
1768421487113072000,6.019072021484375,-0.3909880071856081,0.5752934580922127,-0.21679566175341605
1768421487123072300,6.029072265625,-0.5773850235439837,0.5746119055688381,-0.03726100544519722
1768421487133072400,6.039072265625,-0.8616356804110109,0.6267571033477782,0.024912761329859492
1768421487143072300,6.049072265625,-1.1608327081277965,0.7182306874305009,0.00019066373389214276
1768421487153072400,6.059072265625,-1.4158523020744322,0.8216361168473959,-0.039009894939139485
1768421487163072300,6.069072265625,-1.5272914003431797,0.8605424783468246,-0.02758168827816844
1768421487173072400,6.079072265625,-1.5911051163449883,0.8745511299550532,0.02131532135978341
1768421487183072300,6.089072265625,-1.5712626440167425,1.0187532646626234,0.18484014230519533
1768421487193072400,6.099072265625,-1.513287571040541,1.1753162837713955,0.3457278927452862
1768421487203072300,6.109072265625,-1.4020844734847544,1.2205460030734538,0.4828523806842044
1768421487213072400,6.119072265625,-1.2695792063117026,1.0712678802758455,0.5402713906802237
1768421487223071200,6.1290712890625,-1.0293629214823246,0.7388730779647826,0.5569390323646366
1768421487233071400,6.1390712890625,-0.9883036197327076,0.2717471491247415,0.44097251979932184
1768421487243071200,6.1490712890625,-1.173531884572655,-0.12812076847851275,0.25710103986319155
1768421487253071400,6.1590712890625,-1.2947520798824728,-0.27932313733696934,0.05642386147882789
1768421487263071200,6.1690712890625,-1.173020720180124,-0.29564941823780533,-0.2323597809090279
1768421487273071400,6.1790712890625,-0.8425647769771516,-0.27664953421354294,-0.5520036948543041
1768421487283071200,6.1890712890625,-0.8187184758350252,-0.30848902606666084,-0.7346085523881017
1768421487293071400,6.1990712890625,-1.885580083975941,-0.5964174946635962,-0.7052119236424564
1768421487303071200,6.2090712890625,-3.4558594160437583,-1.2297604061424732,-0.5713139600019902
1768421487313071400,6.2190712890625,-4.184660012805462,-1.9639502947270868,-0.2789734653827734
1768421487323071200,6.2290712890625,-3.9420413430094716,-2.6233739884018896,-0.009497032531592411
1768421487333071000,6.239071044921875,-3.1854011376857754,-2.8221517629057167,0.08094223492993041
1768421487343071200,6.2490712890625,-2.0045314575709403,-1.90489838629961,0.057110957826999945
1768421487353071000,6.259071044921875,-1.804972177300602,-1.388224290436506,-0.2608489211546257
1768421487363071200,6.2690712890625,0.40937005157247186,-2.168520681157708,-0.92839538673684
1768421487373070300,6.2790703125,1.8944718309618531,-3.2596044380158182,-2.1205564223252233
1768421487383070200,6.2890703125,1.3733647210873663,-3.495472464507818,-3.0116534672811626
1768421487393070300,6.2990703125,0.15189020499214528,-2.8063316779613494,-3.4256831812277433
1768421487403070500,6.309070556640625,-0.8218870228685438,-2.0711901877403256,-3.416647934117913
1768421487413070300,6.3190703125,-0.8308198325172066,-1.7698656464755533,-2.8219211690202353
1768421487423070500,6.329070556640625,-0.28773206924200057,-1.8882032720863817,-2.2859889765881
1768421487433070300,6.3390703125,0.4497719123266637,-2.1304946096241473,-1.6486273309871553
1768421487443070500,6.349070556640625,1.0190836656607687,-2.48748901566267,-0.8012995773918926
1768421487453070300,6.3590703125,2.054704186233133,-2.492914547842741,-0.213967269927077
1768421487463070500,6.369070556640625,3.234035696995258,-1.904633597883582,0.3624962183251977
1768421487473070300,6.3790703125,3.7216470722422,-0.9264689487189054,1.1459534111648797
1768421487483070500,6.389070556640625,3.781991066306829,0.04276128336191177,1.7572376355707644
1768421487493070300,6.3990703125,3.817597801738977,0.7596130836546421,2.1472436459816993
1768421487503070500,6.409070556640625,3.821255447463691,1.1933943767756223,2.2076088289648292
1768421487513070300,6.4190703125,3.5659459306597707,1.4517781864583492,1.9573009198404847
1768421487523069400,6.4290693359375,3.078985420536995,1.6207704790294168,1.5739274793118239
1768421487533069300,6.4390693359375,2.518873164963722,1.7443448362499474,1.086423948353529
1768421487543069400,6.4490693359375,1.9801883128225801,1.8038965108931064,0.40401082609426225
1768421487553069300,6.4590693359375,1.3634429004013537,1.7800877652823923,-0.37268330235127356
1768421487563069400,6.4690693359375,0.7803777853943407,1.602832671278715,-1.1224176372766494
1768421487573069300,6.4790693359375,0.35942353288158774,1.307624567067623,-1.8366770829886196
1768421487583069400,6.4890693359375,0.20351284020170568,1.0432926626354455,-2.3481067023269833
1768421487593069300,6.4990693359375,0.1730206713043153,0.6627659898400307,-2.6054297509104014
1768421487603069200,6.509069091796875,0.3635914662159979,0.19611527729630468,-2.4683266345530748
1768421487613069300,6.5190693359375,0.5523334382653237,-0.07539280237555504,-1.94124264222607
1768421487623069200,6.529069091796875,0.5979039338290691,-0.12075696171224116,-1.264238283675164
1768421487633069300,6.5390693359375,0.5263337584815919,-0.06632452977895736,-0.6727842566378415
1768421487643069200,6.549069091796875,0.33175928088650103,0.2902764930278063,-0.20820845067203045
1768421487653069300,6.5590693359375,0.13541019483432173,0.8468927231788634,0.1433469791829586
1768421487663069200,6.569069091796875,0.10768164543136953,1.4899614943802355,0.4409349642679095
1768421487673068300,6.579068359375,0.14446005499139428,1.9560434671252964,0.7053950251244008
1768421487683068200,6.589068115234375,0.1594410587631166,2.1005513067811727,1.0237817603491246
1768421487693068300,6.599068359375,0.1572375573694706,2.0758248618036506,1.3431558991760015
1768421487703068200,6.609068115234375,0.08561126792058348,1.8146371006160973,1.603102574261278
1768421487713068300,6.619068359375,-0.06831994137987495,1.4127397230118512,1.8919141093030571
1768421487723068200,6.629068115234375,-0.1112310084760189,0.9848007261782884,2.0463122054629026
1768421487733068300,6.639068359375,-0.11212415792346,0.5825467902213335,1.9526875808261335
1768421487743068400,6.649068359375,-0.1535071386694908,0.377163918364048,1.7570111333385108
1768421487753068500,6.659068603515625,-0.23466113492026924,0.3059370034962892,1.4453604283705352
1768421487763068400,6.669068359375,-0.3588626841284334,0.362335182544589,1.0686503181885927
1768421487773068500,6.679068603515625,-0.5244540822148323,0.41090193731486796,0.6751786044284701
1768421487783068400,6.689068359375,-0.6553519141912459,0.5006453366041184,0.45464624036476015
1768421487793068300,6.699068359375,-0.7766871141828596,0.4941922149419784,0.32046036316100507
1768421487803068400,6.709068359375,-0.9620914662420749,0.42257016327679153,0.33883133816458283
1768421487813068300,6.719068359375,-1.1764959950752556,0.3426993387043476,0.485267844328098
1768421487823067400,6.7290673828125,-1.3578374816097318,0.2567126616001129,0.6855524066656827
1768421487833067500,6.739067626953125,-1.5293478944815695,0.25970307558774947,0.8011089501906186
1768421487843067400,6.7490673828125,-1.7055602014340459,0.30333880369663235,0.80105049800165
1768421487853067500,6.759067626953125,-1.745447829055786,0.38532735107541083,0.7483506620146334
1768421487863067400,6.7690673828125,-1.5561610826052725,0.4740501751452684,0.7588392497379333
1768421487873067300,6.7790673828125,-1.229421383446455,0.4351420600801706,0.882452185403183
1768421487883067400,6.7890673828125,-0.8110136005461216,0.2941138792335987,1.1115512292169034
1768421487893067300,6.7990673828125,-0.36880408629775047,0.06221592541635036,1.4536578627251089
1768421487903067400,6.8090673828125,-0.20081834042072294,-0.23612872325479983,1.5364394601777196
1768421487913067300,6.8190673828125,-0.19752061404958365,-0.5027525380164385,0.832353179564327
1768421487923067400,6.8290673828125,-0.121544312697649,-0.6351888316065073,-0.2574985512807965
1768421487933067300,6.8390673828125,-0.3941910410106182,-0.8392050912857055,-1.156481600246206
1768421487943067400,6.8490673828125,-1.2910370048820972,-1.1648638633400201,-1.6173292525343597
1768421487953067300,6.8590673828125,-2.6789900771617887,-1.5045534988343714,-1.776496462792158
1768421487963067400,6.8690673828125,-3.8422847914889453,-1.8497119211286306,-1.9192071898981928
1768421487973067300,6.8790673828125,-4.035186075174808,-1.9859101976007223,-1.861253305840492
1768421487983066400,6.88906640625,-3.304400442075729,-1.6941624629765748,-1.473220495198667
1768421487993066200,6.899066162109375,-2.357794275865704,-1.1078016674250364,-0.562948355782032
1768421488003066400,6.90906640625,-0.5123369434416294,-0.8376847498506307,0.32736097286231813
1768421488013066200,6.919066162109375,1.5849521466732024,-1.3307646196365355,1.1737613824795932
1768421488023066400,6.92906640625,3.062380322694778,-2.897624644780159,2.5084669217616318
1768421488033066200,6.939066162109375,3.670740184086561,-4.1143747627019875,4.304985889624059
1768421488043066400,6.94906640625,2.641626268929243,-4.092776678878069,6.125895786899328
1768421488053066200,6.959066162109375,2.03037653131485,-2.8071476705193517,6.653015873453021
1768421488063066400,6.96906640625,2.3095278192162514,-0.6036842707961797,5.27865761128366
1768421488073066200,6.979066162109375,3.1103660627067087,1.3623936836093664,3.656236734698713
1768421488083066000,6.989066162109375,4.203884937757254,2.7110072636693716,1.9217960373476146
1768421488093066500,6.99906640625,4.95175965282321,3.335945334896445,-0.12370945484228431
1768421488103066400,7.00906640625,4.298045568966865,3.0468484070420265,-2.1735170281402767
1768421488113066500,7.01906640625,2.1240252674795688,2.166234031525254,-3.3449469719976186
1768421488123066400,7.02906640625,-0.670008069922775,1.037836735317111,-3.2666610785290597
1768421488133065500,7.0390654296875,-2.6258266422510146,-0.17909867604374885,-2.2558742627009747
1768421488143065300,7.0490654296875,-2.706668357682228,-1.2896060952961443,-0.8085355930600315
1768421488153065500,7.0590654296875,-1.1857611054182051,-2.1338421664863825,0.8040395237497985
1768421488163065300,7.0690654296875,0.6549006632924079,-2.6515561267912386,2.199614615340531
1768421488173065500,7.0790654296875,1.8870448958314954,-2.831557889154553,2.9633471170127392
1768421488183065300,7.0890654296875,2.7583587974309918,-2.6906729161709544,3.019716654488444
1768421488193065500,7.0990654296875,3.4196552992403504,-2.3138749085098502,2.421763036298752
1768421488203065300,7.1090654296875,3.6320845824778076,-1.6779799744606017,1.5546201367735861
1768421488213065500,7.1190654296875,3.5124154160022734,-0.8721136736750602,0.6342142874859273
1768421488223065300,7.1290654296875,2.8653683888196944,0.021297055050730703,-0.3344005161102861
1768421488233065500,7.1390654296875,1.7682020971775054,1.0287158557504414,-0.9988028749804944
1768421488243065300,7.1490654296875,0.6526255579672754,1.9241268183827398,-1.4509493344187736
1768421488253065500,7.1590654296875,-0.2542026515405625,2.537633979535103,-1.6134614711903035
1768421488263065300,7.1690654296875,-0.79607789722085,2.7326351581096646,-1.5952052451401948
1768421488273065200,7.179065185546875,-0.8163749083835631,2.694458279928565,-1.5052511257097123
1768421488283064300,7.189064208984375,-0.6424211940128356,2.476061612719297,-1.3083346150331199
1768421488293064400,7.199064453125,-0.5402724135935306,2.128093393701315,-1.0225233577858657
1768421488303064300,7.209064208984375,-0.5312041409969329,1.7478092974901198,-0.6418177482269704
1768421488313064400,7.219064453125,-0.4425659995358437,1.3831851272255182,-0.23309571223445236
1768421488323064300,7.229064208984375,-0.3405694140035659,1.070634843069315,0.03996566129401326
1768421488333064200,7.239064208984375,-0.3188241037286818,0.8902496343463658,0.10851626962460577
1768421488343064300,7.249064208984375,-0.45751697349548337,0.8195973044961691,0.03399221290759742
1768421488353064200,7.259064208984375,-0.669026219278574,0.8500105629384517,-0.07391578862555324
1768421488363064300,7.269064208984375,-0.876971123643592,0.8652484640806913,-0.10787073826268315
1768421488373064700,7.279064697265625,-1.091295426847413,0.8632061445981264,-0.06451981844455003
1768421488383064800,7.28906494140625,-1.2106758395094424,0.8384896364927291,0.06624247751869261
1768421488393064700,7.299064697265625,-1.3188776363573969,0.8011872030586004,0.235208978061378
1768421488403064800,7.30906494140625,-1.4320049799740313,0.7696276971906423,0.4323909347411245
1768421488413064700,7.319064697265625,-1.5838345408201218,0.8407096506297588,0.5730751244556158
1768421488423064800,7.32906494140625,-1.6607950309038162,1.0758376724094152,0.5799107426293194
1768421488433064700,7.339064697265625,-1.6047323674201965,1.4303618889421224,0.5044097306389361
1768421488443063800,7.349063720703125,-1.4789491019785403,1.6614964571714401,0.425234414049983
1768421488453063700,7.359063720703125,-1.4127343161843717,1.6390315273851155,0.39307467726655304
1768421488463063800,7.369063720703125,-1.2758804984129966,1.4499959792166948,0.4302613023012876
1768421488473063700,7.379063720703125,-0.7708744823813438,1.183102115342021,0.2953885753445327
1768421488483063800,7.389063720703125,0.367604793510586,1.0746008240908385,-0.15100684628635644
1768421488493063700,7.399063720703125,1.4098517464853821,0.7295072837263346,-0.4797092238202691
1768421488503063600,7.4090634765625,0.018716537038236856,-0.4282978932738304,-0.4680624059725553
1768421488513063700,7.419063720703125,-2.5750237989917397,-1.8086966046512125,-0.10233045712914317
1768421488523063600,7.4290634765625,-3.682439974230528,-2.9066613531947136,0.727982558377087
1768421488533063700,7.439063720703125,-3.4598636832490564,-3.7980887991487977,1.7310145222947
1768421488543063800,7.449063720703125,-2.901432220369577,-4.314047440218925,2.188242011324316
1768421488553064000,7.45906396484375,-2.886210101318359,-4.053316775149106,2.2584479125812646
1768421488563063800,7.469063720703125,-3.3226936391353603,-2.55955238135457,1.623284215416014
1768421488573064000,7.47906396484375,-2.5197838500678538,-0.5796703580021858,0.8046877585254609
1768421488583063800,7.489063720703125,-1.0570914708852768,-0.2869844657450914,0.8209921198554336
1768421488593064000,7.49906396484375,1.9398177239894865,-1.8377631246596573,0.7742191166341305
1768421488603062800,7.509062744140625,2.420462036702782,-2.9354888037502764,-1.3827224781498313
1768421488613063000,7.51906298828125,0.7429120511572808,-2.738973713481426,-3.2149507650360465
1768421488623062800,7.529062744140625,0.06936521264910697,-1.6367372789680956,-2.990579699592292
1768421488633063000,7.53906298828125,0.9136858203176409,-1.3769248977869748,-1.6077407554559409
1768421488643062800,7.549062744140625,2.131096813300997,-2.553792502653599,-0.9162130007077008
1768421488653063000,7.55906298828125,2.3395313278138636,-2.845126395779848,-0.5688328472433611
1768421488663062800,7.569062744140625,2.434189825543016,-1.8352730614095925,0.25827636725287884
1768421488673063000,7.57906298828125,2.6922388503134247,-0.38378304424285886,0.8134099210981279
1768421488683062800,7.589062744140625,3.0995231816530224,0.9213526286184788,1.2821717075116932
1768421488693062700,7.599062744140625,3.769935886853933,1.9125480242699384,1.8905302537292241
1768421488703062800,7.609062744140625,3.9503392157554624,2.127923297831416,2.226820894435048
1768421488713062700,7.619062744140625,3.4210511375129222,1.5137480281591416,1.8389318761780857
1768421488723062800,7.629062744140625,2.9154923099040984,0.6307885508209466,1.0124947157245128
1768421488733062700,7.639062744140625,2.6456162153482436,0.03486322358846664,0.30224633228480813
1768421488743062800,7.649062744140625,2.554016959059238,-0.4884072017997503,-0.3952915495984256
1768421488753062700,7.659062744140625,2.232680726379156,-1.066016535618901,-1.0698496840409935
1768421488763061800,7.669061767578125,1.6377590232312678,-1.4257190315723418,-1.4732345237240194
1768421488773061600,7.6790615234375,0.9382358127497136,-1.4407166942179201,-1.6317524762928486
1768421488783061800,7.689061767578125,0.24039149526581166,-1.1705319721043108,-1.6861919224888084
1768421488793061600,7.6990615234375,-0.17272037318348885,-0.6626449938088655,-1.506223477873206
1768421488803061800,7.709061767578125,-0.15200725550055502,-0.06366670874655246,-0.973634750650078
1768421488813061600,7.7190615234375,0.03488879642114043,0.6339478916347027,-0.44852892652824516
1768421488823061800,7.729061767578125,0.2479426412977278,1.248119654175639,-0.08865034335553645
1768421488833061600,7.7390615234375,0.31329423439130183,1.7415969988465307,0.2654010680336505
1768421488843061800,7.749061767578125,0.18673940005525946,2.0938544394910332,0.6024727030493319
1768421488853061600,7.7590615234375,0.15224106425642966,2.3685633610308168,0.9112614427149295
1768421488863061800,7.769061767578125,0.19336334823966025,2.5882997524112463,1.2150535431370137
1768421488873061600,7.7790615234375,0.3004652940869331,2.682857858505845,1.4398488253422081
1768421488883061800,7.789061767578125,0.36222806890830395,2.6856208934783936,1.723159424880147
1768421488893062000,7.799061767578125,0.481844774544239,2.5495132178992033,1.8881335678510367
1768421488903061800,7.809061767578125,0.5620889624737203,2.1876941681832074,1.9802707304090261
1768421488913060600,7.819060546875,0.5033762228727341,1.748799477571249,2.0715560984432697
1768421488923060700,7.829060791015625,0.3271346898257732,1.3554448873847722,2.032090495625883
1768421488933060600,7.839060546875,0.03848360604271293,1.0045902992755174,1.7758033659614623
1768421488943061000,7.84906103515625,-0.3082476185262203,0.7775842091530561,1.3547986984357236
1768421488953060900,7.859060791015625,-0.5799776703856885,0.6971066508591175,1.0866112876191734
1768421488963060700,7.869060791015625,-0.6450479623198508,0.6405676020354032,0.8481265027575194
1768421488973060900,7.879060791015625,-0.5838530505143106,0.5602952109247445,0.6657792732466011
1768421488983060700,7.889060791015625,-0.5495733259022235,0.5228484005838633,0.49567960395552213
1768421488993060900,7.899060791015625,-0.5650481045402587,0.4942687873095274,0.391388258549571
1768421489003060700,7.909060791015625,-0.7351017427325248,0.34867432146072386,0.3396640626616776
1768421489013060900,7.919060791015625,-0.9706605571448802,0.21783260358572004,0.32414960960038003
1768421489023060700,7.929060791015625,-1.140653697321564,0.10875029757618904,0.3110922673676163
1768421489033060900,7.939060791015625,-1.1772105730853974,0.004116203147172927,0.3336692792262882
1768421489043060700,7.949060791015625,-1.170493539790064,-0.12675357177853583,0.3614731588877737
1768421489053060900,7.959060791015625,-1.0756326513566077,-0.33710780230760573,0.35884295651465653
1768421489063060700,7.969060791015625,-0.9368681776583194,-0.5498655868470669,0.43806415807195004
1768421489073059800,7.979059814453125,-0.9412380633056163,-0.6701759738355875,0.6130236154191195
1768421489083059700,7.989059814453125,-1.0445770033575594,-0.6950625778108834,0.8920888324722647
1768421489093059800,7.999059814453125,-1.0714356380581855,-0.6586538783460855,1.209040274196863
1768421489103059700,8.009059814453124,-1.0546773954808712,-0.6394926662802696,1.5571657296031713
1768421489113059800,8.019059814453126,-1.0601743854619563,-0.7304419342279433,1.9023468021206558
1768421489123059700,8.029059814453126,-1.1846188035152851,-0.9245435336142778,2.1184718711361286
1768421489133059800,8.039059814453125,-1.613326154372841,-1.1565671596378087,2.184946184649318
1768421489143059700,8.049059814453125,-2.1662930682361123,-1.1888923891812562,2.405313421279192
1768421489153059800,8.059059814453125,-2.4212615165174007,-1.0382938314348458,2.522880062517524
1768421489163059700,8.069059814453125,-1.9168880993008612,-0.8999719869375228,2.3381578475035725
1768421489173059600,8.0790595703125,-0.40286191178746517,-1.0746610298454762,2.1664137720063326
1768421489183059700,8.089059814453124,1.5522351413331925,-2.0682237391501666,1.6374350519739092
1768421489193059600,8.0990595703125,3.603333119767904,-3.327099765139818,1.4480816700279713
1768421489203059700,8.109059814453126,4.1970238198161125,-4.463526054024696,2.170670114276558
1768421489213059600,8.1190595703125,2.5397253988564015,-4.845158642235398,3.463939262124896
1768421489223059700,8.129059814453125,0.7457412101686001,-4.309814332693815,3.715983055131137
1768421489233058800,8.139058837890625,0.7692201393030583,-2.7800965819865464,3.199902833507955
1768421489243058700,8.14905859375,2.0731309465445578,-1.201578852275014,1.8920041256740687
1768421489253058600,8.15905859375,3.645083180260658,-0.0316799173772335,-0.16332027481663972
1768421489263058700,8.16905859375,4.558216262066364,0.8631687351971864,-2.0622731601826847
1768421489273058600,8.17905859375,4.367374541258812,1.4991595308363437,-3.3846567588344216
1768421489283058700,8.18905859375,3.30191856213212,1.8633967476099729,-4.146330866672098
1768421489293058800,8.199058837890625,1.7627578602969645,2.1022183632105587,-4.131842322592437
1768421489303059000,8.209058837890625,0.2160135714650154,2.0304607024669648,-3.5744130224928257
1768421489313058800,8.219058837890625,-0.9432067330300807,1.5933505571842193,-2.3362542058393356
1768421489323059000,8.229058837890625,-1.3749299245774744,1.218516543072462,-0.42359428216014056
1768421489333058800,8.239058837890624,-1.0414251151978968,0.6610451573967934,1.2182817844685165
1768421489343059000,8.249058837890624,-0.3256581144671887,-0.07312076579034328,2.4191692204132673
1768421489353058800,8.259058837890626,0.6717745681386441,-0.7458639597654342,3.2426006962448355
1768421489363058700,8.26905859375,1.70651750215888,-1.321433312189579,3.4455563409551977
1768421489373058300,8.279058349609375,2.5163784255385395,-1.6214356649398802,3.012867226985097
1768421489383058400,8.289058349609375,2.883819406789541,-1.5079156687438486,2.0297931784689425
1768421489393057000,8.29905712890625,2.6896739682614803,-0.9501824172616005,0.8449515259832143
1768421489403057400,8.309057373046874,2.0479916829824445,-0.18004910863637924,-0.07221577977463603
1768421489413057300,8.319057373046874,1.1857518261332065,0.6025222412794828,-0.7695633997827768
1768421489423057400,8.329057373046876,0.4011129492282867,1.2766922531872986,-1.4906640896916388
1768421489433057300,8.339057373046876,-0.10505378114581107,1.8957149628907441,-2.092961874565482
1768421489443057400,8.349057373046875,-0.4316401894390583,2.420931846171617,-2.3224159423619506
1768421489453057300,8.359057373046875,-0.5909446162104607,2.6808202151983975,-2.31058858031556
1768421489463057200,8.36905712890625,-0.646166737216711,2.7370997363030907,-2.19740599938035
1768421489473057300,8.379057373046875,-0.6983505134403705,2.5191613342553376,-2.0359870646730065
1768421489483057200,8.38905712890625,-0.7135235326528548,2.0411060151219367,-1.853995297536254
1768421489493057300,8.399057373046874,-0.5981915185987949,1.4463070615708826,-1.4898174097344279
1768421489503057200,8.40905712890625,-0.39819728097729384,0.8481190501034259,-1.0500951091919093
1768421489513057300,8.419057373046876,-0.28789456632733346,0.2676192555397749,-0.7786592910386622
1768421489523057200,8.42905712890625,-0.28111411240696904,-0.09000877222716808,-0.6211148596771061
1768421489533057300,8.439057373046875,-0.434589759959653,-0.132227034753561,-0.5002544375903905
1768421489543057200,8.44905712890625,-0.6669968323428184,-0.022214169895648957,-0.42516916679404676
1768421489553056300,8.45905615234375,-0.893341097555682,0.3073071228057146,-0.33685353528559203
1768421489563056000,8.46905615234375,-1.1177752913635224,0.7608271356195211,-0.15386165119558573
1768421489573056300,8.47905615234375,-1.273386781901121,1.0777233400255442,0.070978858390823
1768421489583056100,8.48905615234375,-1.3705308128356932,1.2705828303962945,0.1826519115459174
1768421489593056300,8.49905615234375,-1.4587036018073558,1.3461591726452111,0.21741470696721224
1768421489603056000,8.50905615234375,-1.5386825629293919,1.4009464093655346,0.39860662896316496
1768421489613056300,8.51905615234375,-1.6202198594093322,1.3411825532764197,0.6158529205609112
1768421489623056100,8.52905615234375,-1.6964754160940647,1.172583643937111,0.7702753474444151
1768421489633056300,8.53905615234375,-1.6300035867989062,0.9025830462187528,0.9921903980381787
1768421489643056000,8.54905615234375,-1.3965771082401275,0.5914128182440996,1.0916003280781208
1768421489653056300,8.55905615234375,-0.9648901570498942,0.39864509781002994,0.8162288509763777
1768421489663056100,8.56905615234375,-0.22269472972936927,0.4215887510240078,0.6121355805382133
1768421489673056000,8.579055908203125,0.6637187605202197,0.5821510689020156,0.41610220937170084
1768421489683056000,8.58905615234375,0.36938868125267327,0.3585322831302881,0.11000647164974361
1768421489693056000,8.599055908203125,-1.7044132233560085,-0.37316578863859173,0.226229662389867
1768421489703056400,8.609056396484375,-3.3671944596409795,-1.1909130813539028,0.9515412845246494
1768421489713056300,8.61905615234375,-3.746267426496744,-1.7673557094812393,2.1019275635704395
1768421489723055000,8.62905517578125,-3.4815222650885578,-2.221252154392004,2.9085335768073795
1768421489733055200,8.63905517578125,-3.2898645517230034,-2.452685997828841,3.356434580695629
1768421489743055000,8.64905517578125,-2.6936872955560682,-2.179574574613571,3.4554841529905795
1768421489753055200,8.65905517578125,-1.6915011348128317,-1.5710229900419712,2.9728672250300643
1768421489763055400,8.669055419921875,-0.282319469608739,-1.856040539628267,1.0894603934399782
1768421489773055200,8.67905517578125,2.2435563406586647,-2.642794143664837,-2.157876537546515
1768421489783055400,8.689055419921875,3.3330841002464293,-3.502604216083884,-4.867622110716998
1768421489793055200,8.69905517578125,3.1491362306058406,-4.119571746823191,-6.069460198450088
1768421489803055400,8.709055419921874,1.5142448717653751,-4.080315256711841,-5.743205214068293
1768421489813055200,8.71905517578125,0.6548738483507186,-3.355677040326595,-3.751228556035459
1768421489823055400,8.729055419921876,0.5186603743094951,-2.464961542034149,-2.1526101414509116
1768421489833055200,8.73905517578125,0.917907456600666,-1.2780185333549976,-1.3738894756138325
1768421489843055400,8.749055419921875,1.7784347373783587,-0.13422200796306133,-0.2777597970103845
1768421489853055200,8.75905517578125,2.760624404275417,0.708193277540803,1.197498012702167
1768421489863055000,8.76905517578125,4.178241962456703,1.4711837286740541,3.2004049378111956
1768421489873054200,8.77905419921875,4.547028513097763,1.5507698910862207,4.325178490564227
1768421489883054300,8.789054443359374,4.278381083554029,1.0591302832365035,4.29718719857186
1768421489893054200,8.79905419921875,3.4474294413506983,0.5794985085666179,3.4277398214966057
1768421489903054300,8.809054443359376,2.3272117983363567,0.15637772566974162,1.8922161609895527
1768421489913054200,8.81905419921875,1.8579485652066765,-0.23186989676654338,-0.0017912307983264325
1768421489923054300,8.829054443359375,1.6017501367390155,-0.7248118193864822,-1.94728542952165
1768421489933054200,8.83905419921875,1.014293801035732,-1.3025187683612107,-3.573006955087185
1768421489943054000,8.84905419921875,0.5208825073383748,-1.570627853244543,-4.433571937526763
1768421489953054200,8.85905419921875,0.29134324547648427,-1.3886053987085818,-4.3170194417670364
1768421489963054000,8.86905419921875,0.07636091675534844,-0.6615460926562547,-3.212049198375642
1768421489973054200,8.87905419921875,-0.21851430223956703,0.24514321983754633,-1.7413628978297113
1768421489983054000,8.88905419921875,-0.13352598852291703,1.2958785996943711,-0.3184724407467991
1768421489993054200,8.89905419921875,0.23705650562420486,2.3192010719686746,0.8772655034802853
1768421490003054000,8.90905419921875,0.5662066269256174,2.863052513092756,1.7860110178515314
1768421490013054200,8.91905419921875,0.9490298862256109,3.0066514212101696,2.206697559338808
1768421490023054000,8.92905419921875,0.9751249161425978,2.969184737125039,2.2164152357548472
1768421490033053200,8.93905322265625,0.6835306915797292,2.9312551117032766,2.0233019167535007
1768421490043053000,8.949052978515626,0.7277588326238096,2.921615176698565,1.6976307236090302
1768421490053053200,8.95905322265625,0.8110065862834454,2.6781489501625297,1.103255256167054
1768421490063053000,8.969052978515625,0.8945533228896557,2.1497657118052245,0.5658941269103437
1768421490073053200,8.97905322265625,0.859235341271013,1.3216238663256168,0.14383375805290416
1768421490083053000,8.989052978515625,0.5082957052268088,0.3650198915839195,-0.09462477812264114
1768421490093053200,8.99905322265625,0.09235548148378729,-0.3887976575344801,-0.25474870458338406
1768421490103053300,9.00905322265625,-0.40678047347068785,-0.9736182379066943,-0.4204897037409246
1768421490113053400,9.019053466796874,-0.90178152057752,-1.1684960823625326,-0.2144476555888541
1768421490123053300,9.02905322265625,-1.0386989051043987,-1.1445353610605,0.06577000116873533
1768421490133053200,9.03905322265625,-0.8067781549334525,-0.9082675215959548,0.2812846832009032
1768421490143053300,9.04905322265625,-0.5127110374510288,-0.37435529068410395,0.624888313801214
1768421490153053200,9.05905322265625,-0.34991716112866994,0.2815051575511694,0.9851039469085633
1768421490163053300,9.06905322265625,-0.47593175110816954,0.8075228358209132,1.1475625999271868
1768421490173053200,9.07905322265625,-0.9172866943538188,1.1251321569323538,1.2132886523563413
1768421490183053300,9.08905322265625,-1.299600396696478,1.2003624622225761,1.225992139650136
1768421490193053200,9.09905322265625,-1.3715163167417048,1.058543423259258,1.1432006053254007
1768421490203052300,9.10905224609375,-1.121261306848377,0.7296627665489912,0.9147301417388022
1768421490213052200,9.11905224609375,-0.9144003252625464,0.18066227209866045,0.6174706579558551
1768421490223052300,9.12905224609375,-0.9463782026730477,-0.3144219232469797,0.3931987785702571
1768421490233052200,9.13905224609375,-1.1903190609835088,-0.6060802260220051,0.2749178515827283
1768421490243052300,9.14905224609375,-1.4103519510924816,-0.5304460161060095,0.3641082566317171
1768421490253052200,9.15905224609375,-1.74408852340132,-0.34685178220868107,0.2592021768609062
1768421490263052300,9.16905224609375,-2.1437552193440497,-0.11093874753117561,0.18511976296417415
1768421490273052200,9.17905224609375,-2.414971038071066,0.4980968211650848,0.670177215944603
1768421490283052300,9.18905224609375,-2.5893700119912624,1.1319091037213802,1.3320352240942417
1768421490293052200,9.19905224609375,-2.528603116339445,1.5663526601433753,2.072251825622469
1768421490303052300,9.20905224609375,-2.302569670641422,1.8240993409663437,2.6903800707042214
1768421490313052200,9.21905224609375,-2.027125420564413,1.819143764385581,2.9354420419991016
1768421490323052300,9.22905224609375,-1.7348315963648258,1.4938982493072748,2.748929582567513
1768421490333052200,9.23905224609375,-1.3628303214609623,1.0280512543618678,2.378343581289053
1768421490343052000,9.249052001953125,-0.9875193374872208,0.2219084747225046,1.7411971858739852
1768421490353052200,9.25905224609375,-0.587016702177003,-0.8457961601138114,1.0920381349734962
1768421490363051300,9.26905126953125,0.1668704050462693,-1.6169903759688138,0.9684918348036706
1768421490373051100,9.279051025390626,0.9887656842865049,-2.2979268132716415,0.8848407610401511
1768421490383051300,9.28905126953125,1.3434427532933653,-2.702408362150192,0.8349341359682381
1768421490393051100,9.299051025390625,1.2653237408243119,-2.7499218084752557,0.8103241569772363
1768421490403051300,9.30905126953125,1.6901590725541114,-2.285339718899131,1.078567901090905
1768421490413051100,9.319051025390625,2.852948467707634,-1.6873972066253422,1.2221805454727261
1768421490423051000,9.329051025390624,4.471736248487234,-1.3754898965477942,0.9328597457345574
1768421490433051100,9.339051025390624,5.784165585488081,-1.667626922750473,0.5656018659655004
1768421490443051000,9.349051025390626,5.439349108499289,-2.9084166724294422,-0.4762495848856866
1768421490453051100,9.359051025390626,4.335207132625579,-3.800387723740935,-1.0225181701540946
1768421490463051000,9.369051025390625,4.214624942958355,-3.350941828498244,-0.8325185992591082
1768421490473051100,9.379051025390625,4.641494264733791,-2.1680144852012395,-1.1034759131804108
1768421490483051000,9.389051025390625,4.108839340406656,-0.3419897291302681,-2.2140793401531873
1768421490493051100,9.399051025390625,2.320705046790838,1.4378513679146765,-3.9150791018038986
1768421490503051000,9.409051025390625,-0.08280110587067901,2.2312790428876874,-5.283327356660366
1768421490513051100,9.419051025390624,-2.173299147605896,1.905653588581085,-5.3051405445396895
1768421490523051000,9.429051025390624,-2.4206197114825247,0.6997358303189277,-4.722945928756892
1768421490533050000,9.439050048828125,-1.0921101772964,-0.7076075866073369,-3.6196570625811813
1768421490543050000,9.449050048828125,0.23564064747691152,-1.9115297871381043,-2.2714501636259254
1768421490553050000,9.459050048828125,0.8573205936908721,-2.774591554829478,-1.1603970931895076
1768421490563050000,9.469050048828125,1.013227779239416,-3.118239572560787,-0.283476311493665
1768421490573050000,9.479050048828125,1.2154676768958568,-2.980473023858666,0.29311237404085694
1768421490583050000,9.489050048828124,1.5551625730872154,-2.3425544750273226,0.5056675486803055
1768421490593050000,9.499050048828124,1.6055647265911102,-1.3092483688771723,0.4598022348884493
1768421490603050000,9.509050048828126,1.023884782332182,-0.33865678531527516,0.4143337749270722
1768421490613049900,9.5190498046875,0.2850070281922817,0.4549012380391359,0.4720995890667662
1768421490623050200,9.52905029296875,-0.20164953054785728,1.0784218436837196,0.41463659379854795
1768421490633050000,9.539050048828125,-0.1392985805749893,1.536283685094118,0.2522550246041268
1768421490643050200,9.54905029296875,0.16359131031036375,1.6752578560203313,-0.058284431186318396
1768421490653050000,9.559050048828125,0.446432100379467,1.6274883891075849,-0.5395436974601819
1768421490663050200,9.56905029296875,0.6860860751509666,1.4928379265993832,-1.0715909747503698
1768421490673050000,9.579050048828124,0.8633341548919677,1.3794780894011258,-1.528583193719387
1768421490683050200,9.58905029296875,0.8603110076785087,1.3379974934995174,-1.8235006444208324
1768421490693050000,9.599050048828126,0.6185995158553124,1.3153285655736922,-1.9071688154496251
1768421490703049200,9.60904931640625,0.28637364037036894,1.2980126891136168,-1.7386752661809324
1768421490713049000,9.619049072265625,0.04960720373392105,1.393599553734064,-1.4827037783369421
1768421490723049200,9.62904931640625,-0.24271570042967794,1.596665380820632,-1.4317869533091783
1768421490733049000,9.639049072265625,-0.5786223102539777,1.7461311351448296,-1.29540060691908
1768421490743049200,9.64904931640625,-0.5429126989692449,1.8935247593700886,-1.0542238795597105
1768421490753049000,9.659049072265624,-0.2963087589293718,1.8583043929070233,-0.8686344532571733
1768421490763049200,9.66904931640625,-0.043910453397035594,1.6341571993470192,-0.8173748061411082
1768421490773049000,9.679049072265625,0.08468727581030688,1.341360832452774,-0.8184909506894648
1768421490783049200,9.68904931640625,0.05501404034667648,1.0057663573175668,-0.8241351671215146
1768421490793049000,9.699049072265625,-0.08547227957500145,0.7177203998208046,-0.7368532625749706
1768421490803049000,9.709049072265625,-0.2420207039028406,0.5542787271142006,-0.6628368631191551
1768421490813049000,9.719049072265625,-0.5166746803849935,0.5335749617815018,-0.502562130010873
1768421490823049000,9.729049072265624,-0.6776935098588466,0.6312579218983649,-0.13439272488746792
1768421490833049000,9.739049072265624,-0.7610299647152423,0.7945920425772667,0.40147111501619215
1768421490843049000,9.749049072265626,-0.8351771509438752,1.0122960513472556,0.9487747424207628
1768421490853049000,9.759049072265626,-0.8048591695696115,1.2679407914549112,1.2390103189162909
1768421490863049000,9.769049072265625,-0.5876905828505754,1.5265525646746159,1.3544351258203386
1768421490873048000,9.779048095703125,-0.12078384971916675,1.7439871088534593,1.489776200941205
1768421490883048000,9.7890478515625,0.5002390938907861,1.8858675226151942,1.630238126207143
1768421490893048000,9.799048095703125,1.1786848834216594,1.9013719657391308,1.7351845014557241
1768421490903048000,9.8090478515625,1.4242325924068688,1.7117314374148844,1.757771157925576
1768421490913048000,9.819048095703126,1.0511498058766127,1.3467495397537945,1.6025018318891524
1768421490923048000,9.8290478515625,0.44044601170718667,0.8973954144477844,1.337399527606368
1768421490933048000,9.839048095703125,0.051235681718587875,0.48314533574879165,0.9237016028974204
1768421490943048000,9.8490478515625,0.17844868770241737,0.34965865632295606,0.356682600142993
1768421490953048000,9.859048095703125,0.6079799221634864,0.39405835454165933,-0.28109168137945234
1768421490963048000,9.8690478515625,1.0074760838449002,0.5048375275969506,-0.9613533612258732
1768421490973048300,9.87904833984375,1.1659259396135806,0.5188982016533613,-1.7369462504312394
1768421490983048200,9.889048095703124,1.274423723733425,0.5135790524572134,-2.4520266571372744
1768421490993048000,9.899048095703124,1.5725602826118468,0.48519350045025345,-2.9993408059358595
1768421491003048200,9.909048095703126,2.0734628088474274,0.32954233548939227,-3.4160727645784617
1768421491013048000,9.919048095703126,2.192030736082792,0.23619185161888598,-3.7035245555743574
1768421491023048200,9.929048095703125,1.2795149093925953,0.46326048558354377,-3.6510616701483722
1768421491033048000,9.939048095703125,-0.08079028663807548,1.1701806744486092,-3.365886884173751
1768421491043047200,9.949047119140625,-0.920820713698864,1.910485831043124,-3.0920988768711686
1768421491053047300,9.95904736328125,-0.5934125041613355,2.5172084466218947,-2.7339564698413015
1768421491063047200,9.969047119140624,0.5140624520599841,2.873315548431873,-2.20935581876263
1768421491073047000,9.979047119140626,1.7355039426684378,3.0154525673031807,-1.6096967118293046
1768421491083047200,9.989047119140626,2.655570623129606,3.214246708419919,-0.8976199439186602
1768421491093047000,9.999047119140625,2.9273347233891487,3.559688623830676,-0.07082235265485942
1768421491103047200,10.009047119140625,2.7269302244663236,4.045408193981647,0.801676082554087
1768421491113047000,10.019047119140625,2.787007384288311,3.931727454265952,1.6045418132841587
1768421491123047200,10.029047119140625,3.389657635861635,2.421007249495387,2.2817948858991266
1768421491133047000,10.039047119140625,4.1382489747643465,-0.5144494055509568,3.0375659071728585
1768421491143047200,10.049047119140624,4.1214346180856225,-3.9464305178791284,3.68214683650285
1768421491153047000,10.059047119140626,2.729691505873203,-5.715200770333409,3.8630549000561234
1768421491163047200,10.069047119140626,0.970118120831251,-4.453053759849071,2.368951921956986
1768421491173047000,10.079047119140625,0.5945499472260475,-2.1069114894628522,-0.444676013959758
1768421491183047200,10.089047119140625,1.3726549653828144,-0.7783873422294855,-1.98002537734583
1768421491193047000,10.099047119140625,1.8985504785776137,0.204723531165719,-2.7016987525761125
1768421491203047000,10.109046875,1.4778256509065628,1.0921265439093113,-3.2894279138714073
1768421491213046000,10.1190458984375,0.8734984060317278,1.4873697243213653,-3.3813027722314
1768421491223046100,10.129046142578124,0.30444296554625033,1.0726759935081005,-3.002652122440934
1768421491233046000,10.1390458984375,0.045238487130403515,-0.07674304794073104,-1.9464552623078226
1768421491243046100,10.149046142578126,0.13469196356236934,-1.5573866788774728,-0.4646176723461598
1768421491253046000,10.1590458984375,0.6706704793542623,-2.756732073011994,0.7031618592448532
1768421491263046100,10.169046142578125,1.2856138107895851,-2.9606536401450634,1.746645514407754
1768421491273046000,10.1790458984375,1.8117478089153765,-2.084470525074005,2.4011320439413186
1768421491283046000,10.1890458984375,1.985632549703121,-0.6865601224035024,2.363837501552701
1768421491293046000,10.1990458984375,1.8290794674664734,0.7267980247676372,1.8711324564285576
1768421491303046000,10.2090458984375,1.5865017142027615,1.5140028797030447,1.0307822136957199
1768421491313046000,10.2190458984375,1.3223287997245787,1.6402029092520474,0.1757013252230361
1768421491323046100,10.229046142578126,1.1384465426661075,1.4124649977236985,-0.20283340657018123
1768421491333046300,10.23904638671875,1.2278349910378454,0.9239800545126199,-0.18395550495777277
1768421491343046100,10.249046142578125,1.587966818319261,0.21620821725428102,0.1317922235328704
1768421491353046300,10.25904638671875,1.8939887236200272,-0.5558341398626565,0.6808978588581085
1768421491363046100,10.269046142578125,2.012474817790836,-0.6232470494002104,1.2988332117162644
1768421491373046300,10.27904638671875,2.173912311068177,-0.21121815388202667,1.411595229151845
1768421491383046100,10.289046142578124,2.3114865520685908,0.4130974015325308,0.8332825693689286
1768421491393046000,10.2990458984375,1.9985143892385064,1.1897475447058676,-0.190362650320027
1768421491403045000,10.309045166015625,1.445860048455745,1.9835294399440286,-0.8380427695080638
1768421491413045200,10.319045166015625,1.1238333492934702,2.3287317013800144,-0.7328523563705385
1768421491423045000,10.329045166015625,1.0800479835808277,2.0298656591832636,-0.2735058476266451
1768421491433045200,10.339045166015625,1.275828329834342,1.381510472011566,0.14406793213495983
1768421491443045000,10.349045166015625,1.6190069764882324,0.9933072732388972,0.4118724628474563
1768421491453045200,10.359045166015624,2.0662141528934237,0.8719961847752332,0.5222170804103836
1768421491463045000,10.369045166015624,2.658506676581502,0.7853150956660508,0.4111866360077634
1768421491473045000,10.379044921875,3.1746736997053024,0.84434420773983,0.17009464605608954
1768421491483045000,10.389045166015626,3.340960532709956,1.3860785105794666,0.027761721020191907
1768421491493045000,10.399044921875,3.4491675171896814,1.9877561177283525,0.019473401553835718
1768421491503045000,10.409045166015625,3.562538460303843,2.2014760252982377,0.41897053134962914
1768421491513045000,10.419044921875,2.416952421146631,2.46757084774971,1.4367445757165551
1768421491523045000,10.429045166015625,0.5843365962475537,3.015841274359822,2.4839874372825026
1768421491533045000,10.439044921875,0.40663551204204557,3.052783057788014,2.353658345104754
1768421491543045000,10.449045166015624,1.9818325728982686,1.884823566520214,1.1935538781862705
1768421491553045000,10.459044921875,2.822119614201784,1.235213995373249,0.19548072398612273
1768421491563045000,10.469045166015626,2.4463901125550267,1.741190171611309,-0.30436661237441004
1768421491573044000,10.4790439453125,2.0161521911293265,2.5031898581415413,-0.6040886868786066
1768421491583044000,10.489044189453125,2.227353978398442,2.709916545823216,-0.8037026199456304
1768421491593044000,10.4990439453125,3.034558834311366,2.3806284773558377,-0.697414620829746
1768421491603044000,10.509044189453125,3.5468858408808708,1.781067423969507,-0.5295436604388057
1768421491613044000,10.5190439453125,3.5428017864376304,1.3574579807728528,-0.4086803522752598
1768421491623044000,10.529044189453124,3.0943449022322893,1.911439186245203,-0.27737350110653786
1768421491633044000,10.5390439453125,2.849960391807556,2.534900755178928,-0.21182452227734028
1768421491643044000,10.549044189453125,2.9065660761266945,2.6354133857637643,-0.09918963835276663
1768421491653044000,10.5590439453125,3.559980884775519,2.4729502027004955,-0.2833018682422116
1768421491663044000,10.569044189453125,4.423601455393434,2.1882500485002994,-0.574375868323259
1768421491673044200,10.579044189453125,4.43448174584806,1.8156740424484012,-0.7571637177411467
1768421491683044000,10.589044189453125,4.211095599788427,1.426123520720005,-0.929732115233317
1768421491693044200,10.599044189453124,3.916145269730687,1.5634236209541559,-1.0535961761154233
1768421491703044000,10.609044189453124,4.169581686139106,2.45740659660995,-0.8425604661282151
1768421491713044200,10.619044189453126,4.273071286708117,3.49821036503911,-0.493596660201624
1768421491723044000,10.629044189453126,3.6768320712208746,3.7623505462914704,0.118501072544232
1768421491733044200,10.639044189453125,3.4862218210816383,3.4345945096969603,-0.06176715873554348
1768421491743044000,10.649044189453125,3.323669790691137,3.04210442738533,-0.4493821823567152
1768421491753043200,10.659043212890625,3.3159500100940464,2.0328426291674373,-0.43787316554449496
1768421491763043000,10.66904296875,4.079456009534001,0.5943231527328491,-0.4797613193336874
1768421491773043200,10.679043212890624,4.5872839511185886,-0.21994448117315768,0.7540997270606458
1768421491783043000,10.68904296875,3.0680326493680474,-0.15791794084906577,3.876142929688096
1768421491793043200,10.699043212890626,-0.3586187923699617,-0.37309856862127777,5.892295120817423
1768421491803043000,10.70904296875,-1.8255121303737163,-1.6103852786153554,6.387854532459378
1768421491813043200,10.719043212890625,-0.894197495189309,-3.715923141637444,4.91046727297008
1768421491823043000,10.72904296875,-1.7418682170033455,-5.857191658732295,0.5059232770070433
1768421491833043200,10.739043212890625,-4.365313517075776,-7.260451605737209,-3.3355545820131898
1768421491843043000,10.74904296875,-4.387797151562571,-8.35048965293467,-4.992966692480445
1768421491853043200,10.759043212890624,1.430495159932971,-9.136003486043215,-4.154638968551159
1768421491863043000,10.76904296875,5.272534159967303,-9.034177434772252,-2.1696514387533066
1768421491873043000,10.77904296875,2.6386218264162538,-8.683285437262057,-0.4243095542900264
1768421491883043000,10.78904296875,-1.7364508681297302,-7.932232092159986,1.3345400465220212
1768421491893043000,10.79904296875,-3.3049200820356606,-7.480791808229684,3.1662381720542907
1768421491903043000,10.80904296875,-8.75514188220501,-7.323602181655168,0.43993572409749027
1768421491913043000,10.81904296875,-15.519742399877309,-6.276624108505248,-5.711045404219627
1768421491923043000,10.82904296875,-15.14845292650461,-4.450675340279936,-11.994288638603686
1768421491933042200,10.839042236328124,-2.5471640244245526,-4.072034335100651,-16.683324406713247
1768421491943042000,10.8490419921875,-1.884413232153654,-3.1252362995803353,-10.099967760419846
1768421491953042000,10.8590419921875,-9.056346596482395,-0.6103061731539666,-2.622275379510224
1768421491963042000,10.8690419921875,-12.304361134469508,2.4819728825896976,-0.21819223067834972
1768421491973042000,10.8790419921875,-12.263633987283706,6.382437183585763,-1.1253205191113054
1768421491983042000,10.8890419921875,-8.175207320308685,8.23995071837604,-4.660052542470395
1768421491993042000,10.8990419921875,-9.583007833352685,9.151628340676426,-5.74610327359736
1768421492003042000,10.9090419921875,-13.426328689891099,11.196832438766956,-3.2521254804372783
1768421492013042200,10.919042236328124,-15.518111583805084,13.546125282138584,-2.226642615258694
1768421492023042300,10.929042236328126,-13.226060969090462,16.771300796329975,-0.8147616279680281
1768421492033042200,10.939042236328126,-2.893122657185793,16.898976743650437,3.9773441270589824
1768421492043042300,10.949042236328125,6.384974593108892,10.246593907403945,5.873852286154031
1768421492053042200,10.959042236328125,9.4098508223176,2.0435218440920115,5.603935275065899
1768421492063042000,10.9690419921875,6.420694725787639,-1.3839349226795137,6.531330106458068
1768421492073042200,10.979042236328125,2.1435621809899805,-0.7306612760670482,7.434144623345136
1768421492083042000,10.9890419921875,-0.04174596883952617,0.6194577401198447,5.330502364811301
1768421492093042200,10.999042236328124,0.07726093433499336,1.6238815967872737,1.5843781461775301
1768421492103042000,11.0090419921875,1.4577438168644905,2.460908467251062,-1.4552012927748261
1768421492113042200,11.019042236328126,2.486933135345578,2.6419398649230597,-3.4503532198429108
1768421492123041300,11.029041259765625,2.678182267910242,2.1250933351024983,-3.7824008161514997
1768421492133041200,11.039041259765625,2.2126713730514047,1.3097364446550608,-3.106719230636954
1768421492143041000,11.049041015625,1.0603525185078382,0.7544749901138246,-2.2418778860524293
1768421492153041200,11.059041259765625,0.22914719380438325,0.5644632903896272,-1.352037709289789
1768421492163041000,11.069041015625,-0.0094242464274168,0.626003216240555,-0.9804016144365072
1768421492173041200,11.079041259765624,-0.6131079327017068,0.8326969515006989,-1.1644536751039325
1768421492183041000,11.089041015625,-1.5389105264663696,0.994070658826828,-1.4568028827525674
1768421492193041200,11.099041259765626,-2.0628280175864697,1.231902824998647,-1.1998502749167381
1768421492203041000,11.109041015625,-2.375892096483707,1.4613656606234608,-0.3640452013328671
1768421492213041200,11.119041259765625,-2.4834599062770604,1.684720534761995,0.4911177759326994
1768421492223041000,11.129041015625,-2.0337568214029074,1.9247933194674551,0.8676382818266749
1768421492233041200,11.139041259765625,-1.3620225122094154,2.100770502489805,0.8541879947535693
1768421492243041000,11.149041015625,-0.845841752821207,2.209877358418703,0.6070430797047913
1768421492253041200,11.159041259765624,-0.21062311059832572,1.9670240030840038,0.21559037761688232
1768421492263041000,11.169041015625,0.07812544220983982,1.3423629952326417,-0.051769350203871724
1768421492273041000,11.179041015625,0.11400924101769923,0.8161147961426526,0.02842880662679672
1768421492283041000,11.189041015625,0.5943535478711128,0.6760111097298562,0.3062660893201828
1768421492293041000,11.199041015625,0.5709703341960907,1.0828975277930497,0.5520233494028449
1768421492303040000,11.2090400390625,0.3535135781854391,1.4930220509946346,0.5810049676068126
1768421492313040100,11.2190400390625,0.25026772324442864,1.9470358386747537,0.46395460532754657
1768421492323040000,11.2290400390625,0.032252748829126356,2.2819451080247757,0.7321271108359098
1768421492333039900,11.239039794921876,-0.052423430198431015,2.4073848207257686,0.9865931625530123
1768421492343040000,11.2490400390625,0.11673194397985935,2.367532410547882,1.0989943838521838
1768421492353040000,11.259039794921875,0.5284937129944562,2.2988846985183655,0.9472598078131675
1768421492363040300,11.269040283203125,0.823489635759592,2.2522503731153902,0.7810846184894442
1768421492373040600,11.27904052734375,0.9865987155109643,1.9036974860772489,0.566327769087255
1768421492383040800,11.289040771484375,1.1921294714063406,1.6049819582670926,0.5044409294947981
1768421492393040600,11.29904052734375,1.1921364856690169,1.6013848105579613,0.5911015603378414
1768421492403040800,11.309040771484375,0.9223270266085862,1.6319439072117208,0.7734808654874563
1768421492413040600,11.31904052734375,0.7116150686830282,1.5623900401227175,0.9404244088351726
1768421492423040500,11.32904052734375,0.43805882430970666,1.458741449599713,0.9107786276340484
1768421492433040600,11.33904052734375,0.1736895104765892,1.3244330785274505,0.6923007118821144
1768421492443040500,11.34904052734375,-0.0355623117685318,1.2100888334017246,0.5066112592712044
1768421492453040600,11.35904052734375,-0.13839783234298228,1.054812858428806,0.40327947961241006
1768421492463040500,11.36904052734375,-0.20145546928048133,0.8240876016527414,0.435671052390337
1768421492473040600,11.37904052734375,-0.11659575037956237,0.5621011643681675,0.6611606004700065
1768421492483040500,11.38904052734375,-0.0351005394756794,0.3294616714686155,0.8497931207954883
1768421492493040600,11.39904052734375,-0.009091653472185135,0.1509672540614847,0.7823805035188793
1768421492503039500,11.40903955078125,-0.10182546674907207,-0.05515584170385263,0.5333972671270371
1768421492513039600,11.41903955078125,-0.2691507028907537,-0.22413570405161007,0.21504180382341145
1768421492523039500,11.42903955078125,-0.3356248702734709,-0.3345877092454582,0.03570201250016689
1768421492533039600,11.43903955078125,-0.34394027867615223,-0.3496642458135262,0.04671966559886932
1768421492543039500,11.44903955078125,-0.24487200168073175,-0.3660466773483902,0.07626169416457414
1768421492553039600,11.45903955078125,-0.05773205800056457,-0.4111353076793253,-0.03125789257287979
1768421492563039500,11.46903955078125,-0.003398410266637802,-0.3549536209259182,-0.19562427890896797
1768421492573039600,11.47903955078125,-0.013311316993832588,-0.20634711377955972,-0.19977409206479788
1768421492583039500,11.48903955078125,0.07638005984723567,-0.17224888321422038,-0.1202677168905735
1768421492593039600,11.49903955078125,0.04703238480985164,-0.21835978753129018,-0.1316550800845027
1768421492603039500,11.50903955078125,-0.0838683697760105,-0.1831107794956304,-0.3314391090214252
1768421492613039600,11.51903955078125,-0.3123614835858345,-0.09391345151551067,-0.5099553090021014
1768421492623039500,11.52903955078125,-0.327860666012764,-0.004257036389969289,-0.22458850758671758
1768421492633039600,11.53903955078125,-0.14035598067343233,0.07065762707982212,0.30740999865829943
1768421492643039700,11.549039794921875,0.07368307584822177,0.14767474272157996,0.6907707258358597
1768421492653039600,11.55903955078125,0.17779110057651995,0.19921865013912318,0.8373848901212215
1768421492663039700,11.569039794921874,0.28708441898822784,0.18476999967843294,0.8614487795367837
1768421492673039600,11.57903955078125,0.30670681882500644,0.1376513248246163,0.7095362165823579
1768421492683038700,11.589038818359375,0.13727613483667372,0.14744444109704344,0.4306561468377709
1768421492693038600,11.59903857421875,-0.12067395960390567,0.19575561367105693,0.17235446248054503
1768421492703038700,11.609038818359375,-0.32695874873697756,0.1870583298113197,0.15614946987181902
1768421492713038600,11.61903857421875,-0.24586685793697832,0.15597962973024695,0.4629442592412233
1768421492723038700,11.629038818359374,0.13773206191062926,0.18194643015768378,0.8360013268083334
1768421492733038600,11.63903857421875,0.4708317976206541,0.15342906846459953,0.9798398889005183
1768421492743038700,11.649038818359376,0.5321452212393284,-0.07469130304269492,0.8910372775927186
1768421492753038600,11.65903857421875,0.3614326807469129,-0.26343020635209974,0.8183204164281487
1768421492763038700,11.669038818359375,0.16889058576226235,-0.3526914481475949,0.7957812523618341
1768421492773038600,11.67903857421875,-0.007412906605005264,-0.369396572298184,0.5051978853419423
1768421492783038700,11.689038818359375,-0.07670622306168079,-0.2832026091188192,0.1036193644285202
1768421492793038600,11.69903857421875,-0.08323182543814182,-0.17744995898865162,-0.13741817365586756
1768421492803038700,11.709038818359375,-0.0757604666441679,-0.07076638468392193,0.020894027207791804
1768421492813038600,11.71903857421875,0.15440613333582878,0.045552813776582476,0.3814519709467888
1768421492823038500,11.72903857421875,0.4155956480890512,0.039276144659891724,0.5698951061800122
1768421492833038600,11.73903857421875,0.3244108178198337,-0.07907572867199777,0.5517413175910711
1768421492843038500,11.74903857421875,0.03275719121992588,-0.10995141699425875,0.6246490251526237
1768421492853038600,11.75903857421875,-0.09916939928233623,-0.08923910302892327,0.47453211344331503
1768421492863038500,11.76903857421875,-0.23096564140319822,-0.07813771716952324,0.24551176088899374
1768421492873038600,11.77903857421875,-0.4029173683017492,0.06998290615603327,0.004177285684645176
1768421492883037400,11.789037353515624,-0.31701369330585,0.2536066584087908,-0.2596662507086992
1768421492893037600,11.79903759765625,-0.09859481426477432,0.19388203835152087,-0.4127659776210785
1768421492903037400,11.809037353515626,0.09320435339808464,-0.07526267318986356,-0.324266733174026
1768421492913037600,11.81903759765625,0.3258376357525587,-0.36781792480461295,-0.15579320378005504
1768421492923037400,11.829037353515625,0.3607750936210155,-0.5653360546361654,-0.05017097509652376
1768421492933037600,11.83903759765625,-0.07067512620389461,-0.4885752518430352,0.05595218884646892
1768421492943037400,11.849037353515625,-0.5611410140991211,-0.08412585166841745,0.0446881597712636
1768421492953037600,11.85903759765625,-0.5575631556123495,0.41567843100167806,-0.18153730136752128
1768421492963037400,11.869037353515624,-0.2614835292637348,0.8278401591192931,-0.3506052895233035
1768421492973037600,11.87903759765625,-0.2012427033126354,0.7905267658997327,-0.6250204888135195
1768421492983037700,11.88903759765625,-0.01886953564286232,0.4635827032752335,-0.799907538511604
1768421492993037800,11.899037841796876,0.39569618487656116,0.17057758900113404,-0.5627811825215816
1768421493003037700,11.90903759765625,0.6390811628699302,-0.0035058161638677116,-0.08950506048873066
1768421493013037600,11.91903759765625,0.6060398940116166,-0.036220702612027526,0.30766309663653374
1768421493023037700,11.92903759765625,0.13851765933036803,0.06227576584480703,0.36806276641115543
1768421493033037600,11.93903759765625,-0.5951899986952542,0.3649032064016908,-0.049401744289696216
1768421493043037700,11.94903759765625,-1.2760749980717896,0.7749015459403396,-0.2999333791673183
1768421493053037600,11.95903759765625,-1.029136711511016,0.8673884717840701,0.1768558655530214
1768421493063037700,11.96903759765625,-0.37637306024730205,0.5704483561486006,0.6681381843976676
1768421493073037600,11.97903759765625,0.0316799173772335,0.2358652500130236,0.8181026820242404
1768421493083036700,11.98903662109375,0.29247254176735876,0.13317264504060147,0.5644347949475049
1768421493093036500,11.99903662109375,-0.08139175052940845,0.3033101621240377,0.028475276117026806
1768421493103036700,12.00903662109375,-0.4035270246326923,0.4771783901683986,-0.5604891260616481
1768421493113036500,12.01903662109375,-0.5352683216959238,0.4994983585260808,-0.9331368821755051
1768421493123036700,12.02903662109375,-0.6021785424083471,0.28146994010731574,-1.138782642752677
1768421493133036500,12.03903662109375,-0.5236123706936836,0.019982465320825576,-1.062259959564358
1768421493143036700,12.04903662109375,-0.25467969446778294,-0.22003595884889363,-0.5841375665441155
1768421493153036500,12.05903662109375,0.2843675612449646,-0.44926118632555007,0.034694150631874796
1768421493163036700,12.06903662109375,0.6310615225434303,-0.3771986974164843,0.4911880646899342
1768421493173036500,12.07903662109375,0.7525941448032856,-0.4270598759114742,0.48401335075497626
1768421493183036700,12.08903662109375,0.616988573527336,-0.8181370226852596,-0.05643222744837403
1768421493193036500,12.09903662109375,0.5116396088272332,-1.0275944505050778,-1.0965345696099102
1768421493203036700,12.10903662109375,0.192211255595088,-2.0286540914364157,-1.4718560749776661
1768421493213036500,12.11903662109375,0.09915420171320438,-2.0271002861231566,-0.6354916139453649
1768421493223036400,12.129036376953126,0.41152094599604605,-1.612923418790847,0.6357622475802898
1768421493233036500,12.13903662109375,1.3758008621931075,-2.0508172617971896,0.2940625874377787
1768421493243036400,12.149036376953125,2.3165660472899674,-2.1532411328308285,-0.6047501464620232
1768421493253036500,12.15903662109375,0.8772475294321775,-1.4483442664869128,-1.2825836493134497
1768421493263036400,12.169036376953125,-0.5690314750880002,-0.8854119850568473,-1.176027208519727
1768421493273035500,12.179035400390624,-0.25639643525779243,-0.7696540006756782,-0.8249814817525446
1768421493283035400,12.189035400390624,0.5266466238230466,-1.084800292674452,-0.6470259843945503
1768421493293035500,12.199035400390626,0.7791326076388359,-1.3462223010092973,-0.4541229471430182
1768421493303035400,12.209035400390626,0.48851943000257014,-1.3754822977632284,-0.1779454143553972
1768421493313035500,12.219035400390625,-0.20345511866509913,-1.2917309784956275,-0.027496932604163884
1768421493323035400,12.229035400390625,-0.6994236956298351,-1.071743169637397,0.011200170058757066
1768421493333035800,12.239035888671875,-0.7906067723333835,-0.7966078393790871,0.03290712108463049
1768421493343035600,12.24903564453125,-0.6088257253378629,-0.552229977890849,-0.026253362283855674
1768421493353035800,12.259035888671875,-0.34836803199052807,-0.3190409613497555,-0.04186988748013973
1768421493363035600,12.26903564453125,-0.182115978038311,-0.0624517799988389,-0.03795768247246742
1768421493373035800,12.279035888671874,-0.1414560508698225,0.29108254871368405,-0.09356368822976946
1768421493383035400,12.289035400390626,-0.16337854434251783,0.7011201973494142,-0.11126505687609314
1768421493393035500,12.299035400390625,-0.23929390928745267,1.0147002629447728,-0.12222191969826816
1768421493403035400,12.309035400390625,-0.19117606732845305,1.1935239945046603,-0.21463409980535506
1768421493413035500,12.319035400390625,-0.07055646826028823,1.2453691864237189,-0.3384747067466378
1768421493423035400,12.329035400390625,0.06132628310024738,1.2050740009143948,-0.458899660025537
1768421493433035300,12.33903515625,0.21227555398046968,1.0487123495966195,-0.5830694989211856
1768421493443035400,12.349035400390624,0.1508925722569227,0.8619528566014021,-0.6727398329742252
1768421493453035300,12.35903515625,-0.0028898762226104734,0.6471706535622477,-0.6957118354998528
1768421493463035400,12.369035400390626,-0.1032879405170679,0.4162956861171871,-0.5677637932397425
1768421493473034500,12.379034423828125,-0.14148527696430682,0.3698222503643483,-0.3145781367219984
1768421493483034400,12.389034423828125,-0.16555764194726943,0.3770802586685866,-0.04849763505682349
1768421493493034200,12.3990341796875,-0.16771335867643355,0.37102322365194557,0.3208576553829014
1768421493503034400,12.409034423828125,-0.12006430327296257,0.33940468107312916,0.7246477148659527
1768421493513034200,12.4190341796875,-0.002235211706161499,0.22702201834395527,1.0414287684597074
1768421493523034400,12.429034423828124,0.18726210875511168,0.028422742212191224,1.2238840614549815
1768421493533034200,12.4390341796875,0.4099298774123192,-0.2096197787746787,1.241020051303506
1768421493543034400,12.449034423828126,0.4307113841563463,-0.3169940387573093,1.1080432210959494
1768421493553034200,12.4590341796875,0.2693763283401728,-0.18401450513601303,0.842318839392066
1768421493563034400,12.469034423828125,0.15201660785079002,-0.011962021276727318,0.6425299881495535
1768421493573034200,12.4790341796875,0.12697978174984453,0.05946567686013877,0.49673400837928056
1768421493583034400,12.489034423828125,0.1581090795069933,0.13242292265184222,0.3680544369742274
1768421493593034200,12.4990341796875,0.16571370929181575,0.17032529474049807,0.24515198766589164
