time,seconds_elapsed,z,y,x
1768421481143108400,0.0491083984375,0.087677001953125,-0.997100830078125,-0.091156005859375
1768421481153108500,0.0591083984375,0.089691162109375,-1.0036163330078125,-0.092681884765625
1768421481163108600,0.069108642578125,0.091217041015625,-1.0015411376953125,-0.0816650390625
1768421481173108500,0.0791083984375,0.0858612060546875,-0.9987640380859375,-0.075836181640625
1768421481183108600,0.089108642578125,0.0797271728515625,-1.0134429931640625,-0.0818634033203125
1768421481193108500,0.0991083984375,0.0791015625,-1.0290069580078125,-0.0811920166015625
1768421481203108600,0.109108642578125,0.0780487060546875,-1.0313262939453125,-0.0791778564453125
1768421481213108500,0.1191083984375,0.07098388671875,-1.025177001953125,-0.07891845703125
1768421481223108600,0.129108642578125,0.0636444091796875,-1.0100860595703125,-0.072113037109375
1768421481233108500,0.1391083984375,0.0636749267578125,-0.9929656982421875,-0.0669708251953125
1768421481243108600,0.149108642578125,0.069091796875,-0.981719970703125,-0.0641326904296875
1768421481253108500,0.1591083984375,0.0739288330078125,-0.9740447998046875,-0.059722900390625
1768421481263108600,0.169108642578125,0.0830078125,-0.97314453125,-0.0593719482421875
1768421481273108500,0.1791083984375,0.08929443359375,-0.9774322509765625,-0.0624542236328125
1768421481283108400,0.1891083984375,0.0879974365234375,-0.9809417724609375,-0.062042236328125
1768421481293108500,0.1991083984375,0.0864105224609375,-0.9875335693359375,-0.06256103515625
1768421481303108400,0.2091083984375,0.0888214111328125,-0.9907073974609375,-0.0610809326171875
1768421481313107500,0.219107421875,0.093505859375,-0.99371337890625,-0.0571746826171875
1768421481323107600,0.229107666015625,0.09234619140625,-0.999847412109375,-0.0594482421875
1768421481333107500,0.239107421875,0.09149169921875,-0.999298095703125,-0.056396484375
1768421481343107600,0.249107666015625,0.09136962890625,-0.99652099609375,-0.055419921875
1768421481353107500,0.259107421875,0.0861663818359375,-0.9940338134765625,-0.057281494140625
1768421481363107300,0.269107421875,0.0830230712890625,-0.989654541015625,-0.0567169189453125
1768421481373107200,0.279107177734375,0.0829620361328125,-0.987518310546875,-0.0570831298828125
1768421481383107000,0.289107177734375,0.088043212890625,-0.986907958984375,-0.0585784912109375
1768421481393107200,0.299107177734375,0.0914154052734375,-0.98699951171875,-0.062408447265625
1768421481403107000,0.309107177734375,0.0948028564453125,-0.9882965087890625,-0.0683135986328125
1768421481413107200,0.319107177734375,0.0965423583984375,-0.9865570068359375,-0.0713043212890625
1768421481423107000,0.329107177734375,0.1001434326171875,-0.9852752685546875,-0.07427978515625
1768421481433107200,0.339107177734375,0.10076904296875,-0.983184814453125,-0.074859619140625
1768421481443107000,0.349107177734375,0.098785400390625,-0.9835205078125,-0.07122802734375
1768421481453107200,0.359107177734375,0.0982666015625,-0.9855194091796875,-0.0663299560546875
1768421481463107000,0.369107177734375,0.1026458740234375,-0.9886627197265625,-0.0626373291015625
1768421481473107500,0.379107421875,0.1071929931640625,-0.991546630859375,-0.0636749267578125
1768421481483107300,0.389107421875,0.1051025390625,-0.9961700439453125,-0.0666351318359375
1768421481493106200,0.399106201171875,0.1033782958984375,-0.9963836669921875,-0.0699005126953125
1768421481503106000,0.40910595703125,0.0989837646484375,-1.0018157958984375,-0.0724639892578125
1768421481513106200,0.419106201171875,0.09246826171875,-1.00262451171875,-0.072662353515625
1768421481523106300,0.429106201171875,0.090576171875,-1.001953125,-0.0738525390625
1768421481533106400,0.4391064453125,0.0891876220703125,-0.9991302490234375,-0.0750274658203125
1768421481543106300,0.449106201171875,0.08941650390625,-0.9935150146484375,-0.07421875
1768421481553106400,0.4591064453125,0.0904083251953125,-0.989166259765625,-0.07501220703125
1768421481563106300,0.469106201171875,0.0961151123046875,-0.9879150390625,-0.0775604248046875
1768421481573106200,0.479106201171875,0.1013336181640625,-0.9853973388671875,-0.0800933837890625
1768421481583106300,0.489106201171875,0.102813720703125,-0.984466552734375,-0.0837554931640625
1768421481593106200,0.499106201171875,0.1014556884765625,-0.9848480224609375,-0.0876617431640625
1768421481603106300,0.509106201171875,0.1000213623046875,-0.9899749755859375,-0.0886383056640625
1768421481613106200,0.519106201171875,0.0999298095703125,-0.99609375,-0.0890350341796875
1768421481623106300,0.529106201171875,0.0975341796875,-1.0001220703125,-0.089569091796875
1768421481633106200,0.539106201171875,0.09765625,-1.0040283203125,-0.0896148681640625
1768421481643106300,0.549106201171875,0.0976715087890625,-1.00238037109375,-0.0862884521484375
1768421481653106200,0.559106201171875,0.0977020263671875,-0.9991455078125,-0.0875701904296875
1768421481663106300,0.569106201171875,0.0983123779296875,-0.9947357177734375,-0.09014892578125
1768421481673105200,0.579105224609375,0.09765625,-0.9903106689453125,-0.08880615234375
1768421481683105300,0.589105224609375,0.098785400390625,-0.99090576171875,-0.08880615234375
1768421481693105200,0.599105224609375,0.103363037109375,-0.99493408203125,-0.0926666259765625
1768421481703105300,0.609105224609375,0.1088409423828125,-0.9961090087890625,-0.0940093994140625
1768421481713105200,0.619105224609375,0.11090087890625,-0.9932708740234375,-0.0975189208984375
1768421481723105300,0.629105224609375,0.1093292236328125,-0.9879608154296875,-0.0957794189453125
1768421481733105200,0.639105224609375,0.105255126953125,-0.97967529296875,-0.0897369384765625
1768421481743105300,0.649105224609375,0.10321044921875,-0.9730072021484375,-0.0847625732421875
1768421481753105200,0.659105224609375,0.1038360595703125,-0.972259521484375,-0.0792388916015625
1768421481763105300,0.669105224609375,0.10198974609375,-0.9764404296875,-0.0760498046875
1768421481773105200,0.679105224609375,0.10205078125,-0.9827728271484375,-0.076446533203125
1768421481783105000,0.68910498046875,0.10443115234375,-0.988067626953125,-0.0789794921875
1768421481793105200,0.699105224609375,0.1048736572265625,-0.9935150146484375,-0.079803466796875
1768421481803105000,0.70910498046875,0.104644775390625,-0.9985198974609375,-0.0800323486328125
1768421481813105200,0.719105224609375,0.1063232421875,-1.0037994384765625,-0.0770416259765625
1768421481823105300,0.729105224609375,0.1041107177734375,-1.0080108642578125,-0.0740203857421875
1768421481833105400,0.73910546875,0.09967041015625,-1.008758544921875,-0.0677947998046875
1768421481843104000,0.74910400390625,0.0975341796875,-1.0092315673828125,-0.0641021728515625
1768421481853104000,0.759104248046875,0.097747802734375,-1.006805419921875,-0.0634918212890625
1768421481863104000,0.76910400390625,0.0978546142578125,-1.002044677734375,-0.0634613037109375
1768421481873104400,0.7791044921875,0.099639892578125,-0.9989166259765625,-0.0647735595703125
1768421481883104300,0.789104248046875,0.10076904296875,-0.99761962890625,-0.0694580078125
1768421481893104400,0.7991044921875,0.1019134521484375,-0.9983367919921875,-0.0750885009765625
1768421481903104300,0.809104248046875,0.1011505126953125,-1.0005950927734375,-0.0784149169921875
1768421481913104400,0.8191044921875,0.1045684814453125,-1.001953125,-0.08148193359375
1768421481923104300,0.829104248046875,0.1061248779296875,-1.00128173828125,-0.0838775634765625
1768421481933104400,0.8391044921875,0.10528564453125,-0.99749755859375,-0.0852508544921875
1768421481943104300,0.849104248046875,0.1038055419921875,-0.993255615234375,-0.0868377685546875
1768421481953104400,0.8591044921875,0.1011199951171875,-0.9891204833984375,-0.0850372314453125
1768421481963104300,0.869104248046875,0.10101318359375,-0.9868621826171875,-0.085113525390625
1768421481973104000,0.879104248046875,0.1012725830078125,-0.9883270263671875,-0.0880126953125
1768421481983104300,0.889104248046875,0.101318359375,-0.9937286376953125,-0.08782958984375
1768421481993104100,0.899104248046875,0.1039886474609375,-1,-0.0879058837890625
1768421482003104300,0.909104248046875,0.106964111328125,-1.0024566650390625,-0.088165283203125
1768421482013104000,0.919104248046875,0.1113739013671875,-1.00054931640625,-0.088958740234375
1768421482023103200,0.929103271484375,0.1133880615234375,-0.99871826171875,-0.08880615234375
1768421482033103000,0.93910302734375,0.1124725341796875,-0.9961090087890625,-0.091461181640625
1768421482043103200,0.949103271484375,0.1092987060546875,-0.99310302734375,-0.09100341796875
1768421482053103000,0.95910302734375,0.1095428466796875,-0.9915008544921875,-0.0907440185546875
1768421482063103200,0.969103271484375,0.10888671875,-0.9877166748046875,-0.0899810791015625
1768421482073103000,0.97910302734375,0.1115264892578125,-0.9845428466796875,-0.08843994140625
1768421482083103200,0.989103271484375,0.114013671875,-0.98638916015625,-0.086029052734375
1768421482093103000,0.99910302734375,0.114471435546875,-0.9891815185546875,-0.082183837890625
1768421482103103200,1.009103271484375,0.116485595703125,-0.9937744140625,-0.083221435546875
1768421482113103000,1.01910302734375,0.117156982421875,-0.9962310791015625,-0.0799560546875
1768421482123103200,1.029103271484375,0.119293212890625,-0.998199462890625,-0.0775299072265625
1768421482133103000,1.03910302734375,0.1201019287109375,-0.994415283203125,-0.0770721435546875
1768421482143103200,1.049103271484375,0.116973876953125,-0.9903564453125,-0.0779266357421875
1768421482153103000,1.05910302734375,0.115203857421875,-0.9887237548828125,-0.0808258056640625
1768421482163103000,1.06910302734375,0.115234375,-0.9875946044921875,-0.084716796875
1768421482173103400,1.079103271484375,0.115936279296875,-0.9907684326171875,-0.0868377685546875
1768421482183103200,1.089103271484375,0.114410400390625,-0.9911041259765625,-0.0871734619140625
1768421482193103400,1.099103271484375,0.11102294921875,-0.993896484375,-0.0887908935546875
1768421482203103200,1.109103271484375,0.11328125,-0.9967041015625,-0.0863800048828125
1768421482213102000,1.11910205078125,0.11956787109375,-0.9944915771484375,-0.0854034423828125
1768421482223102200,1.129102294921875,0.11956787109375,-0.9907684326171875,-0.0868682861328125
1768421482233102300,1.139102294921875,0.11334228515625,-0.989349365234375,-0.088409423828125
1768421482243102200,1.149102294921875,0.10791015625,-0.98968505859375,-0.0917205810546875
1768421482253102300,1.159102294921875,0.10845947265625,-0.9911346435546875,-0.0946807861328125
1768421482263102200,1.169102294921875,0.1118316650390625,-0.992156982421875,-0.09661865234375
1768421482273102300,1.179102294921875,0.1125030517578125,-0.991912841796875,-0.0995941162109375
1768421482283102200,1.189102294921875,0.114013671875,-0.989501953125,-0.097808837890625
1768421482293102300,1.199102294921875,0.1110992431640625,-0.98876953125,-0.092315673828125
1768421482303102200,1.209102294921875,0.1060791015625,-0.9898681640625,-0.090301513671875
1768421482313102300,1.219102294921875,0.1031951904296875,-0.992340087890625,-0.0918121337890625
1768421482323102200,1.229102294921875,0.102813720703125,-0.997406005859375,-0.0924072265625
1768421482333102300,1.239102294921875,0.105194091796875,-1.00146484375,-0.091156005859375
1768421482343102200,1.249102294921875,0.10882568359375,-0.999969482421875,-0.0901031494140625
1768421482353102000,1.25910205078125,0.1108551025390625,-0.9980926513671875,-0.091064453125
1768421482363102200,1.269102294921875,0.110382080078125,-0.993896484375,-0.0901641845703125
1768421482373102600,1.2791025390625,0.1082763671875,-0.9909820556640625,-0.0879058837890625
1768421482383102700,1.289102783203125,0.1065521240234375,-0.989715576171875,-0.0870208740234375
1768421482393101600,1.2991015625,0.1068572998046875,-0.990997314453125,-0.0843505859375
1768421482403101700,1.309101806640625,0.1064910888671875,-0.993072509765625,-0.080718994140625
1768421482413101600,1.3191015625,0.1087646484375,-0.993682861328125,-0.082427978515625
1768421482423101700,1.329101806640625,0.1136016845703125,-0.99505615234375,-0.0831756591796875
1768421482433101600,1.3391015625,0.11541748046875,-0.992279052734375,-0.082855224609375
1768421482443101700,1.349101806640625,0.116180419921875,-0.9889068603515625,-0.0833892822265625
1768421482453101600,1.3591015625,0.115325927734375,-0.9868316650390625,-0.0805511474609375
1768421482463101700,1.369101806640625,0.1174774169921875,-0.987823486328125,-0.0778045654296875
1768421482473101600,1.3791015625,0.1180419921875,-0.9910888671875,-0.076812744140625
1768421482483101700,1.389101806640625,0.118743896484375,-0.9897003173828125,-0.075103759765625
1768421482493101600,1.3991015625,0.1187896728515625,-0.9882049560546875,-0.0765380859375
1768421482503101700,1.409101806640625,0.1173248291015625,-0.9840850830078125,-0.07623291015625
1768421482513101600,1.4191015625,0.11309814453125,-0.9834442138671875,-0.075836181640625
1768421482523101700,1.429101806640625,0.1143798828125,-0.984222412109375,-0.07635498046875
1768421482533101600,1.4391015625,0.1181182861328125,-0.984283447265625,-0.077972412109375
1768421482543101400,1.449101318359375,0.121185302734375,-0.9914703369140625,-0.07757568359375
1768421482553101600,1.4591015625,0.123077392578125,-0.9969329833984375,-0.0770416259765625
1768421482563101400,1.469101318359375,0.1225128173828125,-1.0013885498046875,-0.07958984375
1768421482573100500,1.4791005859375,0.1192626953125,-1.0007476806640625,-0.0796051025390625
1768421482583100700,1.4891005859375,0.115875244140625,-0.9995574951171875,-0.0789642333984375
1768421482593100500,1.4991005859375,0.11163330078125,-0.9973602294921875,-0.0769500732421875
1768421482603100400,1.509100341796875,0.1113739013671875,-0.9955291748046875,-0.0761566162109375
1768421482613100500,1.5191005859375,0.1127777099609375,-0.99334716796875,-0.0748138427734375
1768421482623100400,1.529100341796875,0.1127166748046875,-0.992095947265625,-0.07415771484375
1768421482633100500,1.5391005859375,0.111328125,-0.99359130859375,-0.075347900390625
1768421482643100400,1.549100341796875,0.1069183349609375,-0.994964599609375,-0.0756683349609375
1768421482653100500,1.5591005859375,0.1055755615234375,-0.994873046875,-0.0780487060546875
1768421482663100400,1.569100341796875,0.1071014404296875,-0.995880126953125,-0.0784149169921875
1768421482673100800,1.579100830078125,0.10894775390625,-0.9951171875,-0.079498291015625
1768421482683100700,1.5891005859375,0.1102447509765625,-0.99609375,-0.0809783935546875
1768421482693100800,1.599100830078125,0.109466552734375,-0.996978759765625,-0.0793914794921875
1768421482703100700,1.6091005859375,0.1089630126953125,-0.9975433349609375,-0.0789794921875
1768421482713100500,1.6191005859375,0.111297607421875,-0.9969024658203125,-0.078369140625
1768421482723100700,1.6291005859375,0.1125030517578125,-0.9940185546875,-0.07940673828125
1768421482733100500,1.6391005859375,0.112701416015625,-0.9926300048828125,-0.0797882080078125
1768421482743100700,1.6491005859375,0.10986328125,-0.9921417236328125,-0.0797576904296875
1768421482753099800,1.659099853515625,0.1065216064453125,-0.9920806884765625,-0.07763671875
1768421482763099600,1.669099609375,0.1064453125,-0.9920196533203125,-0.0760498046875
1768421482773099800,1.679099853515625,0.10589599609375,-0.9934234619140625,-0.0750274658203125
1768421482783099600,1.689099609375,0.1053314208984375,-0.9935150146484375,-0.0753173828125
1768421482793099500,1.699099609375,0.1088409423828125,-0.9929046630859375,-0.0752716064453125
1768421482803099600,1.709099609375,0.1086883544921875,-0.9933624267578125,-0.0763397216796875
1768421482813099500,1.719099609375,0.10418701171875,-0.9954071044921875,-0.07666015625
1768421482823099600,1.729099609375,0.101470947265625,-0.9968109130859375,-0.0734100341796875
1768421482833099500,1.739099609375,0.102691650390625,-0.999542236328125,-0.07318115234375
1768421482843099600,1.749099609375,0.10577392578125,-0.99932861328125,-0.0712432861328125
1768421482853099500,1.759099609375,0.1092987060546875,-0.997314453125,-0.07171630859375
1768421482863099600,1.769099609375,0.107086181640625,-0.9968719482421875,-0.07220458984375
1768421482873099500,1.779099609375,0.1076507568359375,-0.9954833984375,-0.073883056640625
1768421482883099600,1.789099609375,0.112762451171875,-0.9929962158203125,-0.0774993896484375
1768421482893099500,1.799099609375,0.1175994873046875,-0.9877166748046875,-0.082916259765625
1768421482903099600,1.809099609375,0.1131744384765625,-0.9856109619140625,-0.0852508544921875
1768421482913099500,1.819099609375,0.1017608642578125,-0.98541259765625,-0.0850067138671875
1768421482923098600,1.8290986328125,0.099273681640625,-0.9892578125,-0.084259033203125
1768421482933098500,1.839098388671875,0.100189208984375,-0.9915313720703125,-0.0799560546875
1768421482943098600,1.8490986328125,0.10369873046875,-0.995025634765625,-0.0740966796875
1768421482953098500,1.859098388671875,0.104949951171875,-0.9970855712890625,-0.068206787109375
1768421482963098600,1.8690986328125,0.107025146484375,-0.99896240234375,-0.06390380859375
1768421482973098500,1.879098388671875,0.104339599609375,-0.9973297119140625,-0.06439208984375
1768421482983098600,1.8890986328125,0.097747802734375,-0.998870849609375,-0.0653076171875
1768421482993098500,1.899098388671875,0.09442138671875,-0.999969482421875,-0.0671234130859375
1768421483003098400,1.909098388671875,0.0947113037109375,-0.9981536865234375,-0.0721893310546875
1768421483013098500,1.919098388671875,0.0989532470703125,-0.996490478515625,-0.0749359130859375
1768421483023098600,1.9290986328125,0.1012115478515625,-0.9938201904296875,-0.0769500732421875
1768421483033098800,1.9390986328125,0.0986175537109375,-0.9934539794921875,-0.076873779296875
1768421483043098600,1.9490986328125,0.0952911376953125,-0.9919586181640625,-0.0768280029296875
1768421483053098800,1.9590986328125,0.0941314697265625,-0.99462890625,-0.0775299072265625
1768421483063098600,1.9690986328125,0.094940185546875,-0.993408203125,-0.07745361328125
1768421483073098800,1.9790986328125,0.093963623046875,-0.993133544921875,-0.078369140625
1768421483083098600,1.9890986328125,0.0953521728515625,-0.9922332763671875,-0.0770263671875
1768421483093098800,1.9990986328125,0.0954132080078125,-0.9903411865234375,-0.0768280029296875
1768421483103097600,2.00909765625,0.0943145751953125,-0.988494873046875,-0.07513427734375
1768421483113097700,2.01909765625,0.092437744140625,-0.9878387451171875,-0.0732269287109375
1768421483123097600,2.02909765625,0.09185791015625,-0.98919677734375,-0.0702056884765625
1768421483133097700,2.03909765625,0.0920257568359375,-0.990509033203125,-0.0709075927734375
1768421483143097600,2.04909765625,0.0908966064453125,-0.994598388671875,-0.0688934326171875
1768421483153097700,2.05909765625,0.086669921875,-0.99761962890625,-0.06561279296875
1768421483163097600,2.06909765625,0.086395263671875,-1.00152587890625,-0.0603790283203125
1768421483173097700,2.07909765625,0.088165283203125,-1.0022735595703125,-0.046844482421875
1768421483183097600,2.08909765625,0.0902252197265625,-1.001068115234375,-0.0330810546875
1768421483193097500,2.099097412109375,0.0905609130859375,-1.0027008056640625,-0.02587890625
1768421483203097600,2.10909765625,0.0870208740234375,-1.0055694580078125,-0.02398681640625
1768421483213097500,2.119097412109375,0.0860748291015625,-1.0092315673828125,-0.0313873291015625
1768421483223097600,2.12909765625,0.0872955322265625,-1.014739990234375,-0.043121337890625
1768421483233097500,2.139097412109375,0.0902252197265625,-1.018096923828125,-0.0505523681640625
1768421483243097600,2.14909765625,0.087860107421875,-1.013214111328125,-0.0503387451171875
1768421483253097500,2.159097412109375,0.080291748046875,-1.006256103515625,-0.053314208984375
1768421483263097600,2.16909765625,0.073333740234375,-0.9976348876953125,-0.0546112060546875
1768421483273096400,2.179096435546875,0.07135009765625,-0.9895477294921875,-0.0532684326171875
1768421483283096600,2.1890966796875,0.072998046875,-0.987945556640625,-0.05517578125
1768421483293096400,2.199096435546875,0.0743865966796875,-0.9903411865234375,-0.0587158203125
1768421483303096600,2.2090966796875,0.0682373046875,-0.9926605224609375,-0.0649261474609375
1768421483313096400,2.219096435546875,0.059814453125,-0.9935150146484375,-0.075286865234375
1768421483323096600,2.2290966796875,0.0540924072265625,-0.9968109130859375,-0.0843963623046875
1768421483333096400,2.239096435546875,0.0534210205078125,-1.002410888671875,-0.0886077880859375
1768421483343096600,2.2490966796875,0.0576629638671875,-1.0116119384765625,-0.090667724609375
1768421483353096400,2.259096435546875,0.068084716796875,-1.0185546875,-0.090362548828125
1768421483363096600,2.2690966796875,0.0777130126953125,-1.0196533203125,-0.0831298828125
1768421483373096400,2.279096435546875,0.0825347900390625,-1.01409912109375,-0.070953369140625
1768421483383096600,2.2890966796875,0.086212158203125,-1.001800537109375,-0.0623321533203125
1768421483393096400,2.299096435546875,0.086578369140625,-0.988189697265625,-0.051971435546875
1768421483403096300,2.309096435546875,0.0847930908203125,-0.9746551513671875,-0.0463104248046875
1768421483413096400,2.319096435546875,0.0837554931640625,-0.9645843505859375,-0.0396881103515625
1768421483423096300,2.329096435546875,0.082122802734375,-0.96356201171875,-0.03509521484375
1768421483433096400,2.339096435546875,0.085418701171875,-0.965667724609375,-0.0289459228515625
1768421483443096300,2.349096435546875,0.0876007080078125,-0.9787445068359375,-0.02783203125
1768421483453095400,2.359095458984375,0.0950775146484375,-0.9864959716796875,-0.0217132568359375
1768421483463095600,2.369095458984375,0.10906982421875,-0.9849853515625,-0.01409912109375
1768421483473095400,2.379095458984375,0.12042236328125,-0.9781494140625,-0.0063934326171875
1768421483483095300,2.38909521484375,0.1298828125,-0.967254638671875,0.01361083984375
1768421483493095400,2.399095458984375,0.1449127197265625,-0.9543609619140625,0.0371551513671875
1768421483503095600,2.409095458984375,0.1615142822265625,-0.944610595703125,0.058746337890625
1768421483513095700,2.419095703125,0.1590576171875,-0.9424896240234375,0.0711822509765625
1768421483523095600,2.429095458984375,0.1447601318359375,-0.9500579833984375,0.0649261474609375
1768421483533095700,2.439095703125,0.121368408203125,-0.9593048095703125,0.0470428466796875
1768421483543095600,2.449095458984375,0.0885467529296875,-0.9739990234375,0.01654052734375
1768421483553095700,2.459095703125,0.0587310791015625,-0.992645263671875,-0.015106201171875
1768421483563095600,2.469095458984375,0.0393829345703125,-1.0013427734375,-0.031890869140625
1768421483573095700,2.479095703125,0.0238494873046875,-1.0166778564453125,-0.049774169921875
1768421483583095600,2.489095458984375,0.0030059814453125,-1.036407470703125,-0.076995849609375
1768421483593095400,2.499095458984375,-0.0095062255859375,-1.049774169921875,-0.1020660400390625
1768421483603095600,2.509095458984375,-0.0065765380859375,-1.0596771240234375,-0.1228485107421875
1768421483613094700,2.5190947265625,0.00653076171875,-1.0595855712890625,-0.123748779296875
1768421483623094500,2.529094482421875,0.0194854736328125,-1.0522918701171875,-0.110504150390625
1768421483633094700,2.5390947265625,0.0210113525390625,-1.0351104736328125,-0.0820465087890625
1768421483643094500,2.549094482421875,0.0198974609375,-1.016265869140625,-0.0464019775390625
1768421483653094700,2.5590947265625,0.0219268798828125,-1.00311279296875,-0.010955810546875
1768421483663094500,2.569094482421875,0.02374267578125,-0.99017333984375,0.0284576416015625
1768421483673094400,2.579094482421875,0.018463134765625,-0.98492431640625,0.0568084716796875
1768421483683094500,2.589094482421875,0.018707275390625,-0.9840850830078125,0.0751495361328125
1768421483693094400,2.599094482421875,0.0298919677734375,-0.9840850830078125,0.0794677734375
1768421483703094500,2.609094482421875,0.047607421875,-0.9884033203125,0.0723114013671875
1768421483713094400,2.619094482421875,0.071990966796875,-0.9922027587890625,0.058837890625
1768421483723094500,2.629094482421875,0.0928802490234375,-0.9949493408203125,0.0443267822265625
1768421483733094400,2.639094482421875,0.09954833984375,-0.9889678955078125,0.0342864990234375
1768421483743094500,2.649094482421875,0.092254638671875,-0.9843292236328125,0.02239990234375
1768421483753094400,2.659094482421875,0.083221435546875,-0.983551025390625,0.009033203125
1768421483763094500,2.669094482421875,0.0794219970703125,-0.98504638671875,0.0067901611328125
1768421483773094400,2.679094482421875,0.0754547119140625,-0.9851226806640625,0.0167999267578125
1768421483783094500,2.689094482421875,0.0826568603515625,-0.9821929931640625,0.006927490234375
1768421483793093400,2.69909326171875,0.084564208984375,-0.9802093505859375,0.0147247314453125
1768421483803093500,2.709093505859375,0.0981597900390625,-0.9998931884765625,0.0103302001953125
1768421483813093400,2.71909326171875,0.1200714111328125,-1.00115966796875,-0.0142669677734375
1768421483823093500,2.729093505859375,0.1142425537109375,-1,-0.0047149658203125
1768421483833093400,2.73909326171875,0.104949951171875,-1.0049591064453125,-0.0101776123046875
1768421483843093500,2.749093505859375,0.0918731689453125,-1.00152587890625,-0.003753662109375
1768421483853093600,2.75909375,0.0849456787109375,-0.9961090087890625,0.0074920654296875
1768421483863093500,2.769093505859375,0.0870513916015625,-0.988433837890625,0.007568359375
1768421483873093600,2.77909375,0.0902099609375,-0.983367919921875,0.00360107421875
1768421483883093500,2.789093505859375,0.096649169921875,-0.98297119140625,0.0046539306640625
1768421483893093600,2.79909375,0.0951995849609375,-0.9880828857421875,0.00677490234375
1768421483903093500,2.809093505859375,0.0857086181640625,-0.992645263671875,0.0164031982421875
1768421483913093600,2.81909375,0.076385498046875,-0.9984588623046875,0.026885986328125
1768421483923093500,2.829093505859375,0.0745849609375,-1.0025482177734375,0.038177490234375
1768421483933093600,2.83909375,0.0811614990234375,-0.9982452392578125,0.051483154296875
1768421483943093500,2.849093505859375,0.081787109375,-0.9886932373046875,0.0672149658203125
1768421483953093600,2.85909375,0.078125,-0.9802398681640625,0.086395263671875
1768421483963092500,2.869092529296875,0.0725860595703125,-0.9745635986328125,0.1003570556640625
1768421483973092600,2.879092529296875,0.073944091796875,-0.972808837890625,0.1143951416015625
1768421483983092500,2.889092529296875,0.0898284912109375,-0.9734344482421875,0.1302032470703125
1768421483993092600,2.899092529296875,0.1165771484375,-0.975494384765625,0.135498046875
1768421484003092500,2.909092529296875,0.1244354248046875,-0.97467041015625,0.1290740966796875
1768421484013092600,2.919092529296875,0.11199951171875,-0.9652099609375,0.11468505859375
1768421484023092500,2.929092529296875,0.0993804931640625,-0.95489501953125,0.0991058349609375
1768421484033092600,2.939092529296875,0.0933990478515625,-0.94647216796875,0.08477783203125
1768421484043092500,2.949092529296875,0.0931549072265625,-0.9414215087890625,0.080474853515625
1768421484053092400,2.95909228515625,0.0986175537109375,-0.939544677734375,0.090087890625
1768421484063092500,2.969092529296875,0.104736328125,-0.9373321533203125,0.1089935302734375
1768421484073092400,2.97909228515625,0.1090087890625,-0.9362640380859375,0.1334381103515625
1768421484083092500,2.989092529296875,0.12298583984375,-0.93572998046875,0.1579437255859375
1768421484093092400,2.99909228515625,0.1491851806640625,-0.9296875,0.1729278564453125
1768421484103092500,3.009092529296875,0.2066650390625,-0.9343719482421875,0.1491546630859375
1768421484113092400,3.01909228515625,0.3593597412109375,-0.964813232421875,0.0933837890625
1768421484123091500,3.029091552734375,0.53125,-1.0836029052734375,0.0110321044921875
1768421484133091300,3.03909130859375,0.5792083740234375,-1.2735443115234375,-0.0398101806640625
1768421484143091500,3.049091552734375,0.46136474609375,-1.4007415771484375,0.027923583984375
1768421484153091300,3.05909130859375,0.2420806884765625,-1.4072265625,0.114837646484375
1768421484163091500,3.069091552734375,0.097564697265625,-1.3413543701171875,0.087921142578125
1768421484173091300,3.07909130859375,0.0533905029296875,-1.2476348876953125,0.0495758056640625
1768421484183091500,3.089091552734375,0.052520751953125,-1.1337127685546875,0.044281005859375
1768421484193091300,3.09909130859375,0.0761566162109375,-1.045166015625,0.0062103271484375
1768421484203091700,3.109091796875,0.134521484375,-1.0139923095703125,-0.073089599609375
1768421484213091600,3.119091552734375,0.19622802734375,-1.04107666015625,-0.161651611328125
1768421484223091700,3.129091796875,0.22705078125,-1.0854644775390625,-0.22491455078125
1768421484233091600,3.139091552734375,0.260040283203125,-1.1157684326171875,-0.257171630859375
1768421484243091500,3.149091552734375,0.29052734375,-1.122894287109375,-0.27471923828125
1768421484253091600,3.159091552734375,0.271881103515625,-1.10162353515625,-0.2715911865234375
1768421484263091500,3.169091552734375,0.2040863037109375,-1.053466796875,-0.2284393310546875
1768421484273091600,3.179091552734375,0.1331329345703125,-0.9955902099609375,-0.1582489013671875
1768421484283091500,3.189091552734375,0.0933380126953125,-0.93994140625,-0.09161376953125
1768421484293090600,3.199090576171875,0.1003875732421875,-0.8934478759765625,-0.0611419677734375
1768421484303090700,3.209090576171875,0.1525421142578125,-0.8618927001953125,-0.0725860595703125
1768421484313090600,3.219090576171875,0.2160491943359375,-0.854248046875,-0.1066741943359375
1768421484323090400,3.22909033203125,0.24322509765625,-0.8689117431640625,-0.154815673828125
1768421484333090600,3.239090576171875,0.21441650390625,-0.9051971435546875,-0.18609619140625
1768421484343090400,3.24909033203125,0.176605224609375,-0.9542694091796875,-0.197845458984375
1768421484353090600,3.259090576171875,0.1711273193359375,-0.99658203125,-0.1960906982421875
1768421484363090400,3.26909033203125,0.1852874755859375,-1.018280029296875,-0.1842041015625
1768421484373090000,3.279090087890625,0.1938934326171875,-1.0191802978515625,-0.17169189453125
1768421484383090000,3.28908984375,0.1955413818359375,-1.004119873046875,-0.164398193359375
1768421484393090300,3.29909033203125,0.194122314453125,-0.9714202880859375,-0.15374755859375
1768421484403090200,3.309090087890625,0.18695068359375,-0.9294586181640625,-0.1458282470703125
1768421484413090300,3.31909033203125,0.1848297119140625,-0.8897247314453125,-0.146392822265625
1768421484423090200,3.329090087890625,0.1889190673828125,-0.8599853515625,-0.1489715576171875
1768421484433090300,3.33909033203125,0.197113037109375,-0.8405303955078125,-0.1576995849609375
1768421484443089200,3.349089111328125,0.21038818359375,-0.8303680419921875,-0.1710052490234375
1768421484453089300,3.35908935546875,0.2317352294921875,-0.822540283203125,-0.1936492919921875
1768421484463089200,3.369089111328125,0.2452545166015625,-0.8187103271484375,-0.2285308837890625
1768421484473089300,3.37908935546875,0.2589569091796875,-0.8244476318359375,-0.2618865966796875
1768421484483089200,3.389089111328125,0.2566680908203125,-0.8548583984375,-0.2981719970703125
1768421484493089300,3.39908935546875,0.2386322021484375,-0.8885498046875,-0.306365966796875
1768421484503089200,3.409089111328125,0.2272491455078125,-0.9150390625,-0.2888641357421875
1768421484513089300,3.41908935546875,0.214874267578125,-0.9452362060546875,-0.26373291015625
1768421484523089200,3.429089111328125,0.1864013671875,-0.9765625,-0.242034912109375
1768421484533089300,3.43908935546875,0.1540374755859375,-0.9867401123046875,-0.2026214599609375
1768421484543089200,3.449089111328125,0.1260528564453125,-0.98455810546875,-0.1478118896484375
1768421484553089000,3.459089111328125,0.0941162109375,-0.9896087646484375,-0.1022796630859375
1768421484563089200,3.469089111328125,0.0787200927734375,-0.990020751953125,-0.065155029296875
1768421484573089000,3.479089111328125,0.0790557861328125,-0.984588623046875,-0.0404052734375
1768421484583089200,3.489089111328125,0.0830535888671875,-0.974639892578125,-0.0320281982421875
1768421484593089000,3.499089111328125,0.0831146240234375,-0.9649810791015625,-0.036041259765625
1768421484603089200,3.509089111328125,0.078277587890625,-0.9543609619140625,-0.0436859130859375
1768421484613088300,3.519088134765625,0.0722503662109375,-0.9426727294921875,-0.0514984130859375
1768421484623088000,3.529088134765625,0.0780487060546875,-0.9299468994140625,-0.06256103515625
1768421484633088000,3.539087890625,0.08489990234375,-0.9136199951171875,-0.0704193115234375
1768421484643088100,3.549088134765625,0.089019775390625,-0.8946075439453125,-0.0725860595703125
1768421484653088000,3.559087890625,0.07464599609375,-0.87530517578125,-0.080352783203125
1768421484663088000,3.569088134765625,0.0555572509765625,-0.8733367919921875,-0.0874481201171875
1768421484673088000,3.579087890625,0.033111572265625,-0.875640869140625,-0.0867462158203125
1768421484683088100,3.589088134765625,0.016937255859375,-0.885009765625,-0.08673095703125
1768421484693088000,3.599087890625,0.01580810546875,-0.9001007080078125,-0.0877838134765625
1768421484703088000,3.609088134765625,0.008697509765625,-0.9101409912109375,-0.087860107421875
1768421484713088000,3.619087890625,-0.0078125,-0.9223480224609375,-0.0855865478515625
1768421484723088100,3.629088134765625,-0.0198516845703125,-0.939788818359375,-0.0750579833984375
1768421484733088000,3.639087890625,-0.0177001953125,-0.9597320556640625,-0.0601654052734375
1768421484743088000,3.649088134765625,-0.0262451171875,-0.9737548828125,-0.0454864501953125
1768421484753088300,3.659088134765625,-0.0339202880859375,-0.9774169921875,-0.0261383056640625
1768421484763088100,3.669088134765625,-0.0378875732421875,-0.9804534912109375,0.0019378662109375
1768421484773087000,3.6790869140625,-0.041107177734375,-0.9871826171875,0.0339508056640625
1768421484783087400,3.68908740234375,-0.0449371337890625,-1.0015716552734375,0.067962646484375
1768421484793087200,3.699087158203125,-0.0477142333984375,-1.019287109375,0.09661865234375
1768421484803087400,3.70908740234375,-0.0498046875,-1.034210205078125,0.1201324462890625
1768421484813087200,3.719087158203125,-0.05645751953125,-1.04791259765625,0.1280517578125
1768421484823087000,3.729087158203125,-0.0576324462890625,-1.0551605224609375,0.1232757568359375
1768421484833087200,3.739087158203125,-0.058837890625,-1.064910888671875,0.10906982421875
1768421484843087000,3.749087158203125,-0.0706024169921875,-1.076873779296875,0.0875396728515625
1768421484853087200,3.759087158203125,-0.09906005859375,-1.0805816650390625,0.0694580078125
1768421484863087000,3.769087158203125,-0.1357879638671875,-1.0737762451171875,0.054718017578125
1768421484873087200,3.779087158203125,-0.1022186279296875,-1.0531463623046875,-0.0069427490234375
1768421484883087000,3.789087158203125,0.08355712890625,-1.0263519287109375,-0.0719757080078125
1768421484893087200,3.799087158203125,0.3353729248046875,-1.17755126953125,-0.0753326416015625
1768421484903087000,3.809087158203125,0.4752960205078125,-1.5418548583984375,-0.229766845703125
1768421484913087200,3.819087158203125,0.2760772705078125,-1.75958251953125,-0.4825897216796875
1768421484923087000,3.829087158203125,0.1592254638671875,-1.6078948974609375,-0.5820770263671875
1768421484933086200,3.839086181640625,0.07550048828125,-1.3440399169921875,-0.4607391357421875
1768421484943086000,3.849086181640625,0.0405120849609375,-1.192230224609375,-0.3866119384765625
1768421484953086200,3.859086181640625,0.12884521484375,-1.030731201171875,-0.36669921875
1768421484963086000,3.869086181640625,0.1629486083984375,-0.8623199462890625,-0.273681640625
1768421484973086200,3.879086181640625,0.1243896484375,-0.76605224609375,-0.1363525390625
1768421484983086000,3.889086181640625,0.1097412109375,-0.73541259765625,-0.009613037109375
1768421484993086200,3.899086181640625,0.1905670166015625,-0.7334747314453125,0.08245849609375
1768421485003086000,3.909086181640625,0.3542633056640625,-0.7745208740234375,0.118133544921875
1768421485013086200,3.919086181640625,0.4815216064453125,-0.901641845703125,0.0919342041015625
1768421485023086000,3.929086181640625,0.52117919921875,-1.0275726318359375,0.0310516357421875
1768421485033086000,3.9390859375,0.454864501953125,-1.10748291015625,-0.1260223388671875
1768421485043086000,3.949086181640625,0.387176513671875,-1.1092529296875,-0.26800537109375
1768421485053086000,3.9590859375,0.3623046875,-1.0758819580078125,-0.332855224609375
1768421485063086000,3.969086181640625,0.3320770263671875,-1.0527801513671875,-0.388092041015625
1768421485073086000,3.9790859375,0.25762939453125,-1.03515625,-0.42462158203125
1768421485083086300,3.98908642578125,0.16314697265625,-1.0073699951171875,-0.403961181640625
1768421485093085000,3.9990849609375,0.0742645263671875,-0.9925079345703125,-0.3628997802734375
1768421485103085000,4.0090849609375,0.0404815673828125,-0.97412109375,-0.31536865234375
1768421485113085000,4.0190849609375,0.0590057373046875,-0.9514617919921875,-0.26239013671875
1768421485123085000,4.0290849609375,0.1122894287109375,-0.942779541015625,-0.20159912109375
1768421485133085200,4.039085205078125,0.17724609375,-0.93603515625,-0.1118927001953125
1768421485143085300,4.049085205078125,0.2363739013671875,-0.9197998046875,-0.02032470703125
1768421485153085200,4.059085205078125,0.2758331298828125,-0.905303955078125,0.054412841796875
1768421485163085300,4.069085205078125,0.28704833984375,-0.886627197265625,0.0838623046875
1768421485173085200,4.079085205078125,0.2648468017578125,-0.8672637939453125,0.0999908447265625
1768421485183085300,4.089085205078125,0.236175537109375,-0.8377227783203125,0.08709716796875
1768421485193085200,4.099085205078125,0.1996002197265625,-0.8102569580078125,0.073638916015625
1768421485203085300,4.109085205078125,0.1736297607421875,-0.79534912109375,0.0599365234375
1768421485213085200,4.119085205078125,0.1604461669921875,-0.796051025390625,0.03717041015625
1768421485223085000,4.1290849609375,0.14886474609375,-0.8173980712890625,0.038238525390625
1768421485233085200,4.139085205078125,0.1585693359375,-0.847686767578125,0.0466461181640625
1768421485243084300,4.149084228515625,0.16656494140625,-0.886260986328125,0.07354736328125
1768421485253084200,4.159084228515625,0.164703369140625,-0.9202728271484375,0.0980072021484375
1768421485263084300,4.169084228515625,0.1702880859375,-0.93878173828125,0.088043212890625
1768421485273084200,4.179084228515625,0.1574249267578125,-0.9448699951171875,0.076263427734375
1768421485283084000,4.189083984375,0.135955810546875,-0.9378204345703125,0.0561370849609375
1768421485293084200,4.199084228515625,0.123138427734375,-0.9312744140625,0.0220794677734375
1768421485303084000,4.209083984375,0.10076904296875,-0.9260711669921875,-0.017486572265625
1768421485313084200,4.219084228515625,0.0865936279296875,-0.93011474609375,-0.0485382080078125
1768421485323084000,4.229083984375,0.0792388916015625,-0.93841552734375,-0.068756103515625
1768421485333084200,4.239084228515625,0.0677032470703125,-0.9413909912109375,-0.0684051513671875
1768421485343084000,4.249083984375,0.0471038818359375,-0.937469482421875,-0.0487518310546875
1768421485353084200,4.259084228515625,0.0312347412109375,-0.938568115234375,-0.02685546875
1768421485363084000,4.269083984375,0.028289794921875,-0.940704345703125,-0.0134124755859375
1768421485373084700,4.279084716796875,0.0306396484375,-0.9525909423828125,0.010467529296875
1768421485383084500,4.28908447265625,0.0382537841796875,-0.9787445068359375,0.011322021484375
1768421485393084400,4.29908447265625,0.0447845458984375,-0.9979095458984375,-0.008575439453125
1768421485403083500,4.30908349609375,0.041351318359375,-1.01129150390625,-0.0181884765625
1768421485413083600,4.319083740234375,0.014801025390625,-1.00555419921875,-0.0121917724609375
1768421485423083500,4.32908349609375,-0.004791259765625,-0.990234375,0.021881103515625
1768421485433083600,4.339083740234375,0.0222625732421875,-0.9845733642578125,0.053192138671875
1768421485443083500,4.34908349609375,0.0869598388671875,-0.9977569580078125,0.058013916015625
1768421485453083400,4.35908349609375,0.1233367919921875,-1.025909423828125,0.0369415283203125
1768421485463083500,4.36908349609375,0.100799560546875,-1.0662841796875,0.003753662109375
1768421485473083400,4.37908349609375,0.003448486328125,-1.10845947265625,-0.0366058349609375
1768421485483083500,4.38908349609375,-0.1252593994140625,-1.1491851806640625,-0.0758209228515625
1768421485493083400,4.39908349609375,-0.22625732421875,-1.16241455078125,-0.1036376953125
1768421485503083500,4.40908349609375,-0.2298583984375,-1.1465301513671875,-0.1412506103515625
1768421485513083400,4.41908349609375,-0.1290435791015625,-1.1168670654296875,-0.191192626953125
1768421485523083500,4.42908349609375,0.061737060546875,-1.114654541015625,-0.2061767578125
1768421485533083400,4.43908349609375,0.23651123046875,-1.267669677734375,-0.2421875
1768421485543083500,4.44908349609375,0.3933868408203125,-1.4302520751953125,-0.27764892578125
1768421485553082400,4.459082275390625,0.3261871337890625,-1.49932861328125,-0.1373291015625
1768421485563082500,4.46908251953125,0.20050048828125,-1.485870361328125,0.0937957763671875
1768421485573082400,4.479082275390625,0.2645721435546875,-1.360137939453125,0.2077789306640625
1768421485583082500,4.48908251953125,0.3960723876953125,-1.1629180908203125,0.2224578857421875
1768421485593082400,4.499082275390625,0.489105224609375,-0.974853515625,0.145477294921875
1768421485603082500,4.50908251953125,0.5154571533203125,-0.8201751708984375,-0.0050506591796875
1768421485613082400,4.519082275390625,0.461334228515625,-0.7063751220703125,-0.20068359375
1768421485623082500,4.52908251953125,0.3475494384765625,-0.65087890625,-0.3583526611328125
1768421485633082600,4.53908251953125,0.2145843505859375,-0.665802001953125,-0.442962646484375
1768421485643082500,4.54908251953125,0.0916900634765625,-0.7438507080078125,-0.4536590576171875
1768421485653082600,4.55908251953125,-0.0112457275390625,-0.8521575927734375,-0.366241455078125
1768421485663082500,4.56908251953125,-0.09979248046875,-0.9445343017578125,-0.200531005859375
1768421485673082600,4.57908251953125,-0.1520843505859375,-1.0259552001953125,-0.023101806640625
1768421485683082500,4.58908251953125,-0.0902252197265625,-1.1030731201171875,0.0981903076171875
1768421485693082600,4.59908251953125,0.075103759765625,-1.150604248046875,0.16876220703125
1768421485703082500,4.60908251953125,0.2606964111328125,-1.1682586669921875,0.1829071044921875
1768421485713081600,4.61908154296875,0.38629150390625,-1.1627655029296875,0.1348724365234375
1768421485723081500,4.62908154296875,0.423309326171875,-1.12677001953125,0.0429534912109375
1768421485733081600,4.63908154296875,0.3753814697265625,-1.0571746826171875,-0.079193115234375
1768421485743081500,4.64908154296875,0.277496337890625,-0.971343994140625,-0.1785430908203125
1768421485753081600,4.65908154296875,0.164520263671875,-0.886444091796875,-0.2528076171875
1768421485763081500,4.66908154296875,0.0802459716796875,-0.8001861572265625,-0.3045806884765625
1768421485773081600,4.67908154296875,0.020599365234375,-0.716949462890625,-0.32470703125
1768421485783081500,4.68908154296875,-0.00555419921875,-0.6564788818359375,-0.321929931640625
1768421485793081600,4.69908154296875,-0.0039520263671875,-0.6331787109375,-0.319854736328125
1768421485803081500,4.70908154296875,0.007781982421875,-0.655059814453125,-0.31231689453125
1768421485813081600,4.71908154296875,0.030029296875,-0.708282470703125,-0.2773590087890625
1768421485823081500,4.72908154296875,0.0583038330078125,-0.7774505615234375,-0.228363037109375
1768421485833081600,4.73908154296875,0.0797882080078125,-0.8450469970703125,-0.18975830078125
1768421485843081500,4.74908154296875,0.089630126953125,-0.91241455078125,-0.15313720703125
1768421485853081300,4.759081298828125,0.090301513671875,-0.9652099609375,-0.11175537109375
1768421485863080400,4.76908056640625,0.0860748291015625,-0.993133544921875,-0.074432373046875
1768421485873080600,4.77908056640625,0.0845489501953125,-1.00628662109375,-0.045684814453125
1768421485883080400,4.78908056640625,0.07733154296875,-1.0113525390625,-0.0364227294921875
1768421485893080600,4.79908056640625,0.069610595703125,-1.014556884765625,-0.02471923828125
1768421485903080400,4.80908056640625,0.06396484375,-1.011627197265625,-0.01519775390625
1768421485913080600,4.81908056640625,0.048583984375,-1.0119476318359375,-0.010894775390625
1768421485923080400,4.82908056640625,0.0275115966796875,-1.0184478759765625,-0.01263427734375
1768421485933080300,4.839080322265625,0.0040740966796875,-1.0279541015625,-0.014801025390625
1768421485943080400,4.84908056640625,-0.01220703125,-1.0355987548828125,-0.0250701904296875
1768421485953080300,4.859080322265625,-0.0304107666015625,-1.0357666015625,-0.033843994140625
1768421485963080400,4.86908056640625,-0.1041412353515625,-1.036895751953125,-0.04034423828125
1768421485973080300,4.879080322265625,-0.1829681396484375,-1.0430908203125,-0.0558319091796875
1768421485983080700,4.889080810546875,-0.1482696533203125,-1.018798828125,-0.067535400390625
1768421485993080600,4.89908056640625,-0.05224609375,-0.9771881103515625,-0.107421875
1768421486003080700,4.909080810546875,0.00103759765625,-0.9421844482421875,-0.1405792236328125
1768421486013079300,4.919079345703125,-0.0512237548828125,-0.93939208984375,-0.13525390625
1768421486023079400,4.929079345703125,-0.1400909423828125,-0.9647064208984375,-0.120208740234375
1768421486033079600,4.93907958984375,-0.1625823974609375,-0.9955596923828125,-0.119232177734375
1768421486043079700,4.94907958984375,-0.1388092041015625,-1.0226898193359375,-0.1325836181640625
1768421486053079600,4.95907958984375,-0.1419525146484375,-1.0402069091796875,-0.1572418212890625
1768421486063079700,4.96907958984375,-0.17852783203125,-1.0413970947265625,-0.1753997802734375
1768421486073079600,4.97907958984375,-0.1921844482421875,-1.00909423828125,-0.147918701171875
1768421486083079700,4.98907958984375,-0.064605712890625,-0.936065673828125,-0.1334381103515625
1768421486093079600,4.99907958984375,0.0667266845703125,-0.98858642578125,-0.1261138916015625
1768421486103079700,5.00907958984375,0.2632598876953125,-1.166534423828125,-0.1847686767578125
1768421486113079600,5.01907958984375,0.305511474609375,-1.3492889404296875,-0.35565185546875
1768421486123079400,5.029079345703125,0.2180938720703125,-1.384552001953125,-0.4103851318359375
1768421486133079600,5.03907958984375,0.113739013671875,-1.2897491455078125,-0.3442230224609375
1768421486143079400,5.049079345703125,0.017822265625,-1.1905364990234375,-0.288970947265625
1768421486153079600,5.05907958984375,0.0081329345703125,-1.075164794921875,-0.297637939453125
1768421486163078700,5.06907861328125,0.049346923828125,-0.940887451171875,-0.264678955078125
1768421486173078500,5.07907861328125,0.06689453125,-0.8598175048828125,-0.1930999755859375
1768421486183078400,5.089078369140625,0.0967864990234375,-0.8489990234375,-0.1639556884765625
1768421486193078500,5.09907861328125,0.1903228759765625,-0.8968048095703125,-0.146087646484375
1768421486203078400,5.109078369140625,0.3011016845703125,-0.9849090576171875,-0.1241912841796875
1768421486213078500,5.11907861328125,0.3469085693359375,-1.049896240234375,-0.115203857421875
1768421486223078400,5.129078369140625,0.38824462890625,-1.07855224609375,-0.0832977294921875
1768421486233078500,5.13907861328125,0.4499053955078125,-1.11920166015625,-0.0440521240234375
1768421486243078400,5.149078369140625,0.5005645751953125,-1.179901123046875,-0.0107574462890625
1768421486253078500,5.15907861328125,0.50213623046875,-1.1895904541015625,0.000091552734375
1768421486263078400,5.169078369140625,0.4853363037109375,-1.1080780029296875,-0.0034027099609375
1768421486273078500,5.17907861328125,0.447967529296875,-1.015380859375,-0.0052490234375
1768421486283078400,5.189078369140625,0.3890533447265625,-0.9630279541015625,-0.0067291259765625
1768421486293078500,5.19907861328125,0.31524658203125,-0.950531005859375,-0.0233612060546875
1768421486303078400,5.209078369140625,0.2601470947265625,-0.9713134765625,-0.0643157958984375
1768421486313077500,5.219077392578125,0.225738525390625,-1.010101318359375,-0.138458251953125
1768421486323077400,5.229077392578125,0.214508056640625,-1.0492095947265625,-0.22796630859375
1768421486333077500,5.239077392578125,0.22589111328125,-1.08050537109375,-0.3018646240234375
1768421486343077400,5.249077392578125,0.2400360107421875,-1.1023712158203125,-0.3425750732421875
1768421486353077500,5.259077392578125,0.251434326171875,-1.1100311279296875,-0.33331298828125
1768421486363077400,5.269077392578125,0.2573394775390625,-1.0930023193359375,-0.27618408203125
1768421486373077200,5.2790771484375,0.2545318603515625,-1.0545806884765625,-0.20001220703125
1768421486383077000,5.2890771484375,0.24853515625,-1.0032501220703125,-0.13604736328125
1768421486393077200,5.2990771484375,0.2428131103515625,-0.9514312744140625,-0.091217041015625
1768421486403077400,5.309077392578125,0.23065185546875,-0.90521240234375,-0.0639801025390625
1768421486413077200,5.3190771484375,0.2138671875,-0.8554229736328125,-0.0388336181640625
1768421486423077400,5.329077392578125,0.196441650390625,-0.8083038330078125,-0.019683837890625
1768421486433077200,5.3390771484375,0.1906280517578125,-0.7674407958984375,-0.0095977783203125
1768421486443077400,5.349077392578125,0.1895751953125,-0.7381134033203125,0.002166748046875
1768421486453077200,5.3590771484375,0.189788818359375,-0.7332000732421875,-0.002532958984375
1768421486463077400,5.369077392578125,0.1977691650390625,-0.7458953857421875,-0.000823974609375
1768421486473076200,5.379076171875,0.2049407958984375,-0.761810302734375,0.017364501953125
1768421486483076400,5.389076416015625,0.1983795166015625,-0.785614013671875,0.026123046875
1768421486493076200,5.399076171875,0.1829681396484375,-0.8118896484375,0.03271484375
1768421486503076400,5.409076416015625,0.1691436767578125,-0.8368682861328125,0.03155517578125
1768421486513076200,5.419076171875,0.1550140380859375,-0.853729248046875,0.0233001708984375
1768421486523076400,5.429076416015625,0.13970947265625,-0.8600921630859375,0.011199951171875
1768421486533076200,5.439076171875,0.1442413330078125,-0.8600006103515625,0.00286865234375
1768421486543076400,5.449076416015625,0.147308349609375,-0.84771728515625,0.0063323974609375
1768421486553076200,5.459076171875,0.1269683837890625,-0.8444061279296875,0.019378662109375
1768421486563076400,5.469076416015625,0.1080169677734375,-0.84124755859375,0.0331268310546875
1768421486573076200,5.479076171875,0.08673095703125,-0.84356689453125,0.03594970703125
1768421486583076400,5.489076416015625,0.073150634765625,-0.849639892578125,0.0366973876953125
1768421486593076200,5.499076171875,0.0686492919921875,-0.8577423095703125,0.0299224853515625
1768421486603076000,5.509076171875,0.069091796875,-0.872039794921875,0.020660400390625
1768421486613075200,5.5190751953125,0.0691680908203125,-0.88970947265625,0.0110626220703125
1768421486623075300,5.529075439453125,0.0684967041015625,-0.9126434326171875,0.008056640625
1768421486633075200,5.5390751953125,0.06512451171875,-0.9454803466796875,0.0042877197265625
1768421486643075300,5.549075439453125,0.0667877197265625,-0.9847564697265625,-0.014129638671875
1768421486653075200,5.5590751953125,0.075439453125,-1.0202789306640625,-0.030792236328125
1768421486663075300,5.569075439453125,0.08355712890625,-1.056427001953125,-0.022369384765625
1768421486673075200,5.5790751953125,0.103179931640625,-1.0771331787109375,0.0074005126953125
1768421486683075000,5.589074951171875,0.1389312744140625,-1.08441162109375,0.0518035888671875
1768421486693075200,5.5990751953125,0.2032928466796875,-1.064971923828125,0.115997314453125
1768421486703075000,5.609074951171875,0.2288818359375,-1.0302581787109375,0.2037353515625
1768421486713075200,5.6190751953125,0.213165283203125,-1.0347137451171875,0.2719573974609375
1768421486723075000,5.629074951171875,0.160675048828125,-1.1060333251953125,0.2102508544921875
1768421486733075200,5.6390751953125,0.04241943359375,-1.2202301025390625,0.0618133544921875
1768421486743075300,5.649075439453125,-0.0950164794921875,-1.3044891357421875,-0.0494537353515625
1768421486753075500,5.659075439453125,-0.2330474853515625,-1.331512451171875,-0.11578369140625
1768421486763075300,5.669075439453125,-0.277130126953125,-1.302093505859375,-0.1613311767578125
1768421486773074200,5.67907421875,-0.13836669921875,-1.1736907958984375,-0.15594482421875
1768421486783074300,5.68907421875,0.1457366943359375,-1.13311767578125,-0.1608428955078125
1768421486793074400,5.699074462890625,0.3977813720703125,-1.2526092529296875,-0.1790313720703125
1768421486803074300,5.70907421875,0.4649658203125,-1.336090087890625,-0.086822509765625
1768421486813074400,5.719074462890625,0.45599365234375,-1.355438232421875,0.0181732177734375
1768421486823074300,5.72907421875,0.5462799072265625,-1.308837890625,0.0301361083984375
1768421486833074400,5.739074462890625,0.6508636474609375,-1.1850433349609375,0.0236968994140625
1768421486843074300,5.74907421875,0.6992950439453125,-1.0349884033203125,-0.0676116943359375
1768421486853074400,5.759074462890625,0.6711883544921875,-0.881744384765625,-0.2211761474609375
1768421486863074300,5.76907421875,0.5243377685546875,-0.736602783203125,-0.391876220703125
1768421486873074200,5.77907421875,0.2607574462890625,-0.67742919921875,-0.50262451171875
1768421486883074300,5.78907421875,0.0312652587890625,-0.726287841796875,-0.511871337890625
1768421486893074200,5.79907421875,-0.0800323486328125,-0.827362060546875,-0.430084228515625
1768421486903074300,5.80907421875,-0.0940704345703125,-0.950927734375,-0.296295166015625
1768421486913074200,5.81907421875,-0.0320892333984375,-1.077423095703125,-0.1334686279296875
1768421486923073300,5.8290732421875,0.0711822509765625,-1.1702423095703125,0.04559326171875
1768421486933073400,5.839073486328125,0.1763153076171875,-1.2190093994140625,0.21759033203125
1768421486943073300,5.8490732421875,0.2727813720703125,-1.228302001953125,0.328399658203125
1768421486953073200,5.8590732421875,0.359375,-1.2135467529296875,0.3506622314453125
1768421486963073300,5.8690732421875,0.4376983642578125,-1.1640167236328125,0.2816314697265625
1768421486973073200,5.8790732421875,0.4754638671875,-1.0704193115234375,0.14874267578125
1768421486983073300,5.8890732421875,0.4386138916015625,-0.9708099365234375,0.0018310546875
1768421486993073200,5.8990732421875,0.332733154296875,-0.8807830810546875,-0.1212921142578125
1768421487003073300,5.9090732421875,0.1947784423828125,-0.793731689453125,-0.22412109375
1768421487013073200,5.9190732421875,0.0806121826171875,-0.7158660888671875,-0.289886474609375
1768421487023073300,5.9290732421875,-0.004608154296875,-0.6584320068359375,-0.300933837890625
1768421487033073200,5.9390732421875,-0.049072265625,-0.64654541015625,-0.30035400390625
1768421487043073300,5.9490732421875,-0.0400543212890625,-0.6722869873046875,-0.295379638671875
1768421487053073200,5.9590732421875,-0.0145721435546875,-0.724151611328125,-0.2815704345703125
1768421487063073300,5.9690732421875,0.02392578125,-0.7855224609375,-0.2663116455078125
1768421487073072000,5.979072021484375,0.0619659423828125,-0.83941650390625,-0.2509918212890625
1768421487083072300,5.989072265625,0.0938262939453125,-0.879913330078125,-0.2192535400390625
1768421487093072100,5.999072021484375,0.111602783203125,-0.9096527099609375,-0.1703033447265625
1768421487103072300,6.009072265625,0.1112060546875,-0.92498779296875,-0.1154327392578125
1768421487113072000,6.019072021484375,0.0985870361328125,-0.9290771484375,-0.0775909423828125
1768421487123072300,6.029072265625,0.085479736328125,-0.932281494140625,-0.0554962158203125
1768421487133072400,6.039072265625,0.060394287109375,-0.927642822265625,-0.0445098876953125
1768421487143072300,6.049072265625,0.030731201171875,-0.921112060546875,-0.0442047119140625
1768421487153072400,6.059072265625,0.0025482177734375,-0.908416748046875,-0.0489654541015625
1768421487163072300,6.069072265625,-0.0125885009765625,-0.902191162109375,-0.04754638671875
1768421487173072400,6.079072265625,-0.01983642578125,-0.900726318359375,-0.0443115234375
1768421487183072300,6.089072265625,-0.0193939208984375,-0.8917236328125,-0.030731201171875
1768421487193072400,6.099072265625,-0.012451171875,-0.8744049072265625,-0.01104736328125
1768421487203072300,6.109072265625,-0.001251220703125,-0.8633575439453125,0.0061492919921875
1768421487213072400,6.119072265625,0.0111846923828125,-0.8707427978515625,0.016632080078125
1768421487223071200,6.1290712890625,0.0338897705078125,-0.8975067138671875,0.021240234375
1768421487233071400,6.1390712890625,0.0514373779296875,-0.9420928955078125,0.0184326171875
1768421487243071200,6.1490712890625,0.0373382568359375,-0.9891204833984375,0.002960205078125
1768421487253071400,6.1590712890625,0.0194244384765625,-1.0140380859375,-0.012451171875
1768421487263071200,6.1690712890625,0.0206756591796875,-1.019378662109375,-0.0347137451171875
1768421487273071400,6.1790712890625,0.04974365234375,-1.0173187255859375,-0.064361572265625
1768421487283071200,6.1890712890625,0.073699951171875,-1.0169525146484375,-0.0864715576171875
1768421487293071400,6.1990712890625,0.010711669921875,-1.034423828125,-0.0863037109375
1768421487303071200,6.2090712890625,-0.1492919921875,-1.087310791015625,-0.0716705322265625
1768421487313071400,6.2190712890625,-0.26751708984375,-1.1620635986328125,-0.0443572998046875
1768421487323071200,6.2290712890625,-0.2763214111328125,-1.23419189453125,-0.00872802734375
1768421487333071000,6.239071044921875,-0.220001220703125,-1.2811737060546875,0.0078277587890625
1768421487343071200,6.2490712890625,-0.10552978515625,-1.229095458984375,0.0096588134765625
1768421487353071000,6.259071044921875,-0.0576934814453125,-1.133941650390625,-0.010040283203125
1768421487363071200,6.2690712890625,0.07110595703125,-1.1721954345703125,-0.0659942626953125
1768421487373070300,6.2790703125,0.315765380859375,-1.2832183837890625,-0.1747589111328125
1768421487383070200,6.2890703125,0.3190765380859375,-1.3516387939453125,-0.294952392578125
1768421487393070300,6.2990703125,0.218414306640625,-1.3053436279296875,-0.3550872802734375
1768421487403070500,6.309070556640625,0.0888671875,-1.2244720458984375,-0.38043212890625
1768421487413070300,6.3190703125,0.0576171875,-1.173858642578125,-0.341217041015625
1768421487423070500,6.329070556640625,0.0924530029296875,-1.1745758056640625,-0.286102294921875
1768421487433070300,6.3390703125,0.1695556640625,-1.1952362060546875,-0.2360076904296875
1768421487443070500,6.349070556640625,0.2320404052734375,-1.228973388671875,-0.156524658203125
1768421487453070300,6.3590703125,0.3168792724609375,-1.247406005859375,-0.0870208740234375
1768421487463070500,6.369070556640625,0.4496612548828125,-1.2104949951171875,-0.036285400390625
1768421487473070300,6.3790703125,0.53143310546875,-1.118804931640625,0.0410919189453125
1768421487483070500,6.389070556640625,0.55108642578125,-1.0161285400390625,0.1139373779296875
1768421487493070300,6.3990703125,0.5556793212890625,-0.931732177734375,0.1629638671875
1768421487503070500,6.409070556640625,0.5604400634765625,-0.8770294189453125,0.1840972900390625
1768421487513070300,6.4190703125,0.54815673828125,-0.8451995849609375,0.168487548828125
1768421487523069400,6.4290693359375,0.5075225830078125,-0.824371337890625,0.1330718994140625
1768421487533069300,6.4390693359375,0.4518890380859375,-0.81060791015625,0.0867767333984375
1768421487543069400,6.4490693359375,0.39935302734375,-0.8005523681640625,0.02392578125
1768421487553069300,6.4590693359375,0.3410491943359375,-0.7990875244140625,-0.055206298828125
1768421487563069400,6.4690693359375,0.2795257568359375,-0.8103790283203125,-0.1345977783203125
1768421487573069300,6.4790693359375,0.2289276123046875,-0.8377227783203125,-0.21142578125
1768421487583069400,6.4890693359375,0.205352783203125,-0.86572265625,-0.2751922607421875
1768421487593069300,6.4990693359375,0.2025909423828125,-0.897369384765625,-0.3126220703125
1768421487603069200,6.509069091796875,0.2125091552734375,-0.944427490234375,-0.318572998046875
1768421487613069300,6.5190693359375,0.238525390625,-0.9814300537109375,-0.2784271240234375
1768421487623069200,6.529069091796875,0.247833251953125,-0.9922637939453125,-0.212158203125
1768421487633069300,6.5390693359375,0.2454681396484375,-0.991729736328125,-0.148193359375
1768421487643069200,6.549069091796875,0.229156494140625,-0.9678192138671875,-0.0953826904296875
1768421487653069300,6.5590693359375,0.204559326171875,-0.917724609375,-0.056488037109375
1768421487663069200,6.569069091796875,0.194610595703125,-0.853485107421875,-0.023529052734375
1768421487673068300,6.579068359375,0.195953369140625,-0.7968292236328125,0.00457763671875
1768421487683068200,6.589068115234375,0.1988983154296875,-0.7701263427734375,0.03387451171875
1768421487693068300,6.599068359375,0.1983184814453125,-0.766632080078125,0.0695343017578125
1768421487703068200,6.609068115234375,0.1960296630859375,-0.7839508056640625,0.0984344482421875
1768421487713068300,6.619068359375,0.182403564453125,-0.822235107421875,0.126922607421875
1768421487723068200,6.629068115234375,0.1733551025390625,-0.8628692626953125,0.153778076171875
1768421487733068300,6.639068359375,0.1752471923828125,-0.90887451171875,0.1519927978515625
1768421487743068400,6.649068359375,0.173553466796875,-0.93621826171875,0.1355438232421875
1768421487753068500,6.659068603515625,0.16949462890625,-0.94769287109375,0.1077423095703125
1768421487763068400,6.669068359375,0.1584014892578125,-0.946258544921875,0.070037841796875
1768421487773068500,6.679068603515625,0.142913818359375,-0.9408416748046875,0.0276947021484375
1768421487783068400,6.689068359375,0.12725830078125,-0.9328765869140625,-0.0025482177734375
1768421487793068300,6.699068359375,0.1165008544921875,-0.927703857421875,-0.0194854736328125
1768421487803068400,6.709068359375,0.0982666015625,-0.9344024658203125,-0.0261993408203125
1768421487813068300,6.719068359375,0.075958251953125,-0.9415283203125,-0.0160675048828125
1768421487823067400,6.7290673828125,0.0543670654296875,-0.9529876708984375,0.002716064453125
1768421487833067500,6.739067626953125,0.0369415283203125,-0.95556640625,0.0162200927734375
1768421487843067400,6.7490673828125,0.0150604248046875,-0.951690673828125,0.0184173583984375
1768421487853067500,6.759067626953125,0.0023651123046875,-0.9449462890625,0.011199951171875
1768421487863067400,6.7690673828125,0.01190185546875,-0.9351348876953125,0.0054779052734375
1768421487873067300,6.7790673828125,0.0394744873046875,-0.93402099609375,0.0107269287109375
1768421487883067400,6.7890673828125,0.0776824951171875,-0.9443206787109375,0.027679443359375
1768421487893067300,6.7990673828125,0.123870849609375,-0.964141845703125,0.055389404296875
1768421487903067400,6.8090673828125,0.1533050537109375,-0.993682861328125,0.0800628662109375
1768421487913067300,6.8190673828125,0.1539154052734375,-1.023101806640625,0.03533935546875
1768421487923067400,6.8290673828125,0.159942626953125,-1.041748046875,-0.07489013671875
1768421487933067300,6.8390673828125,0.146453857421875,-1.056732177734375,-0.1840972900390625
1768421487943067400,6.8490673828125,0.0756072998046875,-1.087066650390625,-0.2547149658203125
1768421487953067300,6.8590673828125,-0.06146240234375,-1.1223602294921875,-0.2829132080078125
1768421487963067400,6.8690673828125,-0.205047607421875,-1.1583404541015625,-0.302093505859375
1768421487973067300,6.8790673828125,-0.2760009765625,-1.1854705810546875,-0.3092803955078125
1768421487983066400,6.88906640625,-0.2336578369140625,-1.173248291015625,-0.2847900390625
1768421487993066200,6.899066162109375,-0.1503448486328125,-1.1196136474609375,-0.2077484130859375
1768421488003066400,6.90906640625,-0.0131988525390625,-1.07489013671875,-0.1122283935546875
1768421488013066200,6.919066162109375,0.21417236328125,-1.0883331298828125,-0.0241546630859375
1768421488023066400,6.92906640625,0.3797149658203125,-1.215911865234375,0.0889434814453125
1768421488033066200,6.939066162109375,0.4984588623046875,-1.3726959228515625,0.2628631591796875
1768421488043066400,6.94906640625,0.4410400390625,-1.4205169677734375,0.462646484375
1768421488053066200,6.959066162109375,0.340057373046875,-1.3395538330078125,0.5943756103515625
1768421488063066400,6.96906640625,0.33953857421875,-1.1382293701171875,0.516937255859375
1768421488073066200,6.979066162109375,0.4002227783203125,-0.9185333251953125,0.3515472412109375
1768421488083066000,6.989066162109375,0.5048675537109375,-0.7570037841796875,0.189849853515625
1768421488093066500,6.99906640625,0.6052703857421875,-0.663543701171875,-0.00885009765625
1768421488103066400,7.00906640625,0.5970001220703125,-0.6588287353515625,-0.226043701171875
1768421488113066500,7.01906640625,0.4217681884765625,-0.732513427734375,-0.3925933837890625
1768421488123066400,7.02906640625,0.1364898681640625,-0.8406829833984375,-0.4326019287109375
1768421488133065500,7.0390654296875,-0.1161651611328125,-0.963592529296875,-0.3592376708984375
1768421488143065300,7.0490654296875,-0.2023468017578125,-1.0837860107421875,-0.2257080078125
1768421488153065500,7.0590654296875,-0.0951690673828125,-1.1799163818359375,-0.06512451171875
1768421488163065300,7.0690654296875,0.102203369140625,-1.246063232421875,0.0906524658203125
1768421488173065500,7.0790654296875,0.2574005126953125,-1.276947021484375,0.1966400146484375
1768421488183065300,7.0890654296875,0.3597564697265625,-1.27398681640625,0.22662353515625
1768421488193065500,7.0990654296875,0.4413909912109375,-1.242828369140625,0.1890716552734375
1768421488203065300,7.1090654296875,0.4817047119140625,-1.1871490478515625,0.1021575927734375
1768421488213065500,7.1190654296875,0.4810028076171875,-1.1089324951171875,0.0111541748046875
1768421488223065300,7.1290654296875,0.43365478515625,-1.023284912109375,-0.0926666259765625
1768421488233065500,7.1390654296875,0.3312225341796875,-0.923126220703125,-0.173797607421875
1768421488243065300,7.1490654296875,0.207000732421875,-0.8265228271484375,-0.2297210693359375
1768421488253065500,7.1590654296875,0.1012115478515625,-0.750213623046875,-0.2586669921875
1768421488263065300,7.1690654296875,0.023712158203125,-0.7162933349609375,-0.2645263671875
1768421488273065200,7.179065185546875,0.0011444091796875,-0.71160888671875,-0.2596588134765625
1768421488283064300,7.189064208984375,0.0153656005859375,-0.7282867431640625,-0.2467193603515625
1768421488293064400,7.199064453125,0.030731201171875,-0.7592315673828125,-0.2228546142578125
1768421488303064300,7.209064208984375,0.0334014892578125,-0.7982940673828125,-0.1901702880859375
1768421488313064400,7.219064453125,0.0410003662109375,-0.83477783203125,-0.14892578125
1768421488323064300,7.229064208984375,0.0532073974609375,-0.87066650390625,-0.1146392822265625
1768421488333064200,7.239064208984375,0.063201904296875,-0.8932342529296875,-0.0999755859375
1768421488343064300,7.249064208984375,0.054962158203125,-0.9047698974609375,-0.103271484375
1768421488353064200,7.259064208984375,0.0369873046875,-0.9037628173828125,-0.1142425537109375
1768421488363064300,7.269064208984375,0.0163421630859375,-0.90167236328125,-0.1203155517578125
1768421488373064700,7.279064697265625,-0.0063323974609375,-0.9011383056640625,-0.1165924072265625
1768421488383064800,7.28906494140625,-0.020843505859375,-0.902679443359375,-0.1049652099609375
1768421488393064700,7.299064697265625,-0.0301666259765625,-0.9072265625,-0.0861053466796875
1768421488403064800,7.30906494140625,-0.04241943359375,-0.9107818603515625,-0.0662078857421875
1768421488413064700,7.319064697265625,-0.0553741455078125,-0.908843994140625,-0.04443359375
1768421488423064800,7.32906494140625,-0.068572998046875,-0.892333984375,-0.0346527099609375
1768421488433064700,7.339064697265625,-0.0665283203125,-0.857940673828125,-0.0372161865234375
1768421488443063800,7.349063720703125,-0.05487060546875,-0.826904296875,-0.04168701171875
1768421488453063700,7.359063720703125,-0.043182373046875,-0.8207855224609375,-0.044036865234375
1768421488463063800,7.369063720703125,-0.0327606201171875,-0.834808349609375,-0.0388641357421875
1768421488473063700,7.379063720703125,0.003082275390625,-0.861419677734375,-0.037567138671875
1768421488483063800,7.389063720703125,0.0961761474609375,-0.8787841796875,-0.0699310302734375
1768421488493063700,7.399063720703125,0.233978271484375,-0.895233154296875,-0.109222412109375
1768421488503063600,7.4090634765625,0.2042999267578125,-0.98211669921875,-0.1171417236328125
1768421488513063700,7.419063720703125,-0.0565032958984375,-1.1271514892578125,-0.0896453857421875
1768421488523063600,7.4290634765625,-0.238494873046875,-1.2493438720703125,-0.019134521484375
1768421488533063700,7.439063720703125,-0.256866455078125,-1.34808349609375,0.0896759033203125
1768421488543063800,7.449063720703125,-0.200653076171875,-1.418487548828125,0.1649627685546875
1768421488553064000,7.45906396484375,-0.174163818359375,-1.4280242919921875,0.1856689453125
1768421488563063800,7.469063720703125,-0.21923828125,-1.3277587890625,0.1591339111328125
1768421488573064000,7.47906396484375,-0.197998046875,-1.1180419921875,0.05670166015625
1768421488583063800,7.489063720703125,-0.07275390625,-1.0040740966796875,0.0384521484375
1768421488593064000,7.49906396484375,0.1894989013671875,-1.1166229248046875,0.0512542724609375
1768421488603062800,7.509062744140625,0.3896942138671875,-1.26416015625,-0.08380126953125
1768421488613063000,7.51906298828125,0.2490234375,-1.29364013671875,-0.3305816650390625
1768421488623062800,7.529062744140625,0.126861572265625,-1.205291748046875,-0.385955810546875
1768421488633063000,7.53906298828125,0.1540374755859375,-1.118865966796875,-0.265228271484375
1768421488643062800,7.549062744140625,0.292510986328125,-1.2067413330078125,-0.1595306396484375
1768421488653063000,7.55906298828125,0.351531982421875,-1.2899322509765625,-0.1280975341796875
1768421488663062800,7.569062744140625,0.3527069091796875,-1.2288665771484375,-0.060882568359375
1768421488673063000,7.57906298828125,0.37933349609375,-1.0853729248046875,0.0123291015625
1768421488683062800,7.589062744140625,0.4127655029296875,-0.9456787109375,0.0543975830078125
1768421488693062700,7.599062744140625,0.47943115234375,-0.8274078369140625,0.1125946044921875
1768421488703062800,7.609062744140625,0.5308990478515625,-0.7698516845703125,0.1642303466796875
1768421488713062700,7.619062744140625,0.4990081787109375,-0.80487060546875,0.1513671875
1768421488723062800,7.629062744140625,0.4444427490234375,-0.8938446044921875,0.0736236572265625
1768421488733062700,7.639062744140625,0.410919189453125,-0.9668426513671875,-0.0076904296875
1768421488743062800,7.649062744140625,0.401641845703125,-1.016937255859375,-0.079742431640625
1768421488753062700,7.659062744140625,0.385894775390625,-1.074676513671875,-0.15618896484375
1768421488763061800,7.669061767578125,0.33441162109375,-1.1230621337890625,-0.2119140625
1768421488773061600,7.6790615234375,0.2665863037109375,-1.1364898681640625,-0.2354888916015625
1768421488783061800,7.689061767578125,0.194122314453125,-1.119781494140625,-0.2462615966796875
1768421488793061600,7.6990615234375,0.1347808837890625,-1.074188232421875,-0.239044189453125
1768421488803061800,7.709061767578125,0.1247100830078125,-1.0175628662109375,-0.1947021484375
1768421488813061600,7.7190615234375,0.140228271484375,-0.949005126953125,-0.1335906982421875
1768421488823061800,7.729061767578125,0.162322998046875,-0.88153076171875,-0.089508056640625
1768421488833061600,7.7390615234375,0.179229736328125,-0.82598876953125,-0.0525360107421875
1768421488843061800,7.749061767578125,0.170257568359375,-0.7858734130859375,-0.0144500732421875
1768421488853061600,7.7590615234375,0.164520263671875,-0.7547760009765625,0.0184478759765625
1768421488863061800,7.769061767578125,0.1675262451171875,-0.7297210693359375,0.0521697998046875
1768421488873061600,7.7790615234375,0.1788330078125,-0.714508056640625,0.0777740478515625
1768421488883061800,7.789061767578125,0.1899566650390625,-0.7124176025390625,0.10614013671875
1768421488893062000,7.799061767578125,0.201324462890625,-0.71771240234375,0.1303558349609375
1768421488903061800,7.809061767578125,0.2166900634765625,-0.7468719482421875,0.14093017578125
1768421488913060600,7.819060546875,0.218353271484375,-0.7899932861328125,0.150726318359375
1768421488923060700,7.829060791015625,0.2057342529296875,-0.8326416015625,0.15313720703125
1768421488933060600,7.839060546875,0.183837890625,-0.8683929443359375,0.134918212890625
1768421488943061000,7.84906103515625,0.149749755859375,-0.8981781005859375,0.092132568359375
1768421488953060900,7.859060791015625,0.118377685546875,-0.91009521484375,0.055938720703125
1768421488963060700,7.869060791015625,0.10308837890625,-0.9164886474609375,0.0288848876953125
1768421488973060900,7.879060791015625,0.1071014404296875,-0.9225311279296875,0.005615234375
1768421488983060700,7.889060791015625,0.1104736328125,-0.9296417236328125,-0.0148162841796875
1768421488993060900,7.899060791015625,0.1123046875,-0.930389404296875,-0.030426025390625
1768421489003060700,7.909060791015625,0.0983734130859375,-0.9414825439453125,-0.0401611328125
1768421489013060900,7.919060791015625,0.0763092041015625,-0.9554443359375,-0.045196533203125
1768421489023060700,7.929060791015625,0.05218505859375,-0.9680938720703125,-0.0490264892578125
1768421489033060900,7.939060791015625,0.0413665771484375,-0.97802734375,-0.051910400390625
1768421489043060700,7.949060791015625,0.039764404296875,-0.990386962890625,-0.0504302978515625
1768421489053060900,7.959060791015625,0.0419921875,-1.00860595703125,-0.0535125732421875
1768421489063060700,7.969060791015625,0.0547332763671875,-1.0324554443359375,-0.0511016845703125
1768421489073059800,7.979059814453125,0.0570831298828125,-1.04925537109375,-0.0403289794921875
1768421489083059700,7.989059814453125,0.0447998046875,-1.0552215576171875,-0.0166168212890625
1768421489093059800,7.999059814453125,0.034332275390625,-1.054046630859375,0.012939453125
1768421489103059700,8.009059814453124,0.0335845947265625,-1.049713134765625,0.045684814453125
1768421489113059800,8.019059814453126,0.0314178466796875,-1.0548858642578125,0.082489013671875
1768421489123059700,8.029059814453126,0.0229339599609375,-1.0716705322265625,0.11090087890625
1768421489133059800,8.039059814453125,-0.0098419189453125,-1.0961456298828125,0.122314453125
1768421489143059700,8.049059814453125,-0.0714263916015625,-1.11004638671875,0.137237548828125
1768421489153059800,8.059059814453125,-0.1154632568359375,-1.099365234375,0.163970947265625
1768421489163059700,8.069059814453125,-0.106109619140625,-1.0850067138671875,0.152252197265625
1768421489173059600,8.0790595703125,0.012969970703125,-1.0827178955078125,0.139892578125
1768421489183059700,8.089059814453124,0.1968841552734375,-1.1543731689453125,0.09979248046875
1768421489193059600,8.0990595703125,0.4125213623046875,-1.28021240234375,0.0601806640625
1768421489203059700,8.109059814453126,0.555267333984375,-1.40692138671875,0.0969390869140625
1768421489213059600,8.1190595703125,0.4590911865234375,-1.48046875,0.2321929931640625
1768421489223059700,8.129059814453125,0.2456512451171875,-1.46221923828125,0.3160552978515625
1768421489233058800,8.139058837890625,0.1685943603515625,-1.3420867919921875,0.290771484375
1768421489243058700,8.14905859375,0.2653045654296875,-1.169464111328125,0.2019500732421875
1768421489253058600,8.15905859375,0.4235687255859375,-1.036376953125,0.0165863037109375
1768421489263058700,8.16905859375,0.5496673583984375,-0.9368133544921875,-0.19244384765625
1768421489273058600,8.17905859375,0.5684967041015625,-0.8620758056640625,-0.346038818359375
1768421489283058700,8.18905859375,0.4842376708984375,-0.8156585693359375,-0.449371337890625
1768421489293058800,8.199058837890625,0.3326263427734375,-0.7873992919921875,-0.478363037109375
1768421489303059000,8.209058837890625,0.16168212890625,-0.77972412109375,-0.4405364990234375
1768421489313058800,8.219058837890625,0.018096923828125,-0.8159637451171875,-0.3443145751953125
1768421489323059000,8.229058837890625,-0.0615081787109375,-0.8583526611328125,-0.16790771484375
1768421489333058800,8.239058837890624,-0.051605224609375,-0.903289794921875,0.020263671875
1768421489343059000,8.249058837890624,0.0115203857421875,-0.9752197265625,0.1555938720703125
1768421489353058800,8.259058837890626,0.1090240478515625,-1.046539306640625,0.2575531005859375
1768421489363058700,8.26905859375,0.2206878662109375,-1.10968017578125,0.302459716796875
1768421489373058300,8.279058349609375,0.31976318359375,-1.1534423828125,0.2807159423828125
1768421489383058400,8.289058349609375,0.377685546875,-1.1577301025390625,0.1983642578125
1768421489393057000,8.29905712890625,0.3795623779296875,-1.1161041259765625,0.0756072998046875
1768421489403057400,8.309057373046874,0.3263702392578125,-1.044097900390625,-0.0335693359375
1768421489413057300,8.319057373046874,0.23944091796875,-0.9617156982421875,-0.1123809814453125
1768421489423057400,8.329057373046876,0.148193359375,-0.8891754150390625,-0.1871185302734375
1768421489433057300,8.339057373046876,0.080902099609375,-0.8248138427734375,-0.258758544921875
1768421489443057400,8.349057373046875,0.0389862060546875,-0.76605224609375,-0.2983856201171875
1768421489453057300,8.359057373046875,0.0132904052734375,-0.728485107421875,-0.306976318359375
1768421489463057200,8.36905712890625,0.0037078857421875,-0.7158203125,-0.29779052734375
1768421489473057300,8.379057373046875,-0.0001373291015625,-0.7264862060546875,-0.2852630615234375
1768421489483057200,8.38905712890625,-0.004791259765625,-0.7660675048828125,-0.2697296142578125
1768421489493057300,8.399057373046874,0.004638671875,-0.8240814208984375,-0.2425079345703125
1768421489503057200,8.40905712890625,0.026092529296875,-0.885162353515625,-0.1972808837890625
1768421489513057300,8.419057373046876,0.0435028076171875,-0.9461212158203125,-0.1616973876953125
1768421489523057200,8.42905712890625,0.0495758056640625,-0.9935455322265625,-0.143218994140625
1768421489533057300,8.439057373046875,0.0406341552734375,-1.0087890625,-0.1292266845703125
1768421489543057200,8.44905712890625,0.01947021484375,-1.0022125244140625,-0.1189727783203125
1768421489553056300,8.45905615234375,-0.0056304931640625,-0.978515625,-0.1114501953125
1768421489563056000,8.46905615234375,-0.0281982421875,-0.9329681396484375,-0.0953826904296875
1768421489573056300,8.47905615234375,-0.04840087890625,-0.895721435546875,-0.06939697265625
1768421489583056100,8.48905615234375,-0.0597686767578125,-0.87139892578125,-0.0516815185546875
1768421489593056300,8.49905615234375,-0.069793701171875,-0.8600006103515625,-0.0428314208984375
1768421489603056000,8.50905615234375,-0.078582763671875,-0.853515625,-0.02923583984375
1768421489613056300,8.51905615234375,-0.0856475830078125,-0.85479736328125,-0.0006866455078125
1768421489623056100,8.52905615234375,-0.0930328369140625,-0.8678436279296875,0.0200042724609375
1768421489633056300,8.53905615234375,-0.0915679931640625,-0.8927001953125,0.0457763671875
1768421489643056000,8.54905615234375,-0.073974609375,-0.9244537353515625,0.069488525390625
1768421489653056300,8.55905615234375,-0.03570556640625,-0.9507904052734375,0.0626373291015625
1768421489663056100,8.56905615234375,0.0274658203125,-0.9569549560546875,0.035125732421875
1768421489673056000,8.579055908203125,0.122161865234375,-0.940948486328125,0.0300140380859375
1768421489683056000,8.58905615234375,0.160888671875,-0.94415283203125,-0.0009002685546875
1768421489693056000,8.599055908203125,-0.0016326904296875,-1.00250244140625,-0.001068115234375
1768421489703056400,8.609056396484375,-0.211456298828125,-1.0897674560546875,0.0489501953125
1768421489713056300,8.61905615234375,-0.2965240478515625,-1.157012939453125,0.166473388671875
1768421489723055000,8.62905517578125,-0.2840728759765625,-1.207916259765625,0.2688446044921875
1768421489733055200,8.63905517578125,-0.2599029541015625,-1.241607666015625,0.3310089111328125
1768421489743055000,8.64905517578125,-0.2303009033203125,-1.237823486328125,0.3568878173828125
1768421489753055200,8.65905517578125,-0.1225433349609375,-1.17449951171875,0.340911865234375
1768421489763055400,8.669055419921875,-0.0270843505859375,-1.1644439697265625,0.2075347900390625
1768421489773055200,8.67905517578125,0.2237091064453125,-1.23358154296875,-0.087799072265625
1768421489783055400,8.689055419921875,0.395233154296875,-1.3226165771484375,-0.416748046875
1768421489793055200,8.69905517578125,0.43499755859375,-1.396240234375,-0.5999908447265625
1768421489803055400,8.709055419921874,0.3003692626953125,-1.4257049560546875,-0.6419830322265625
1768421489813055200,8.71905517578125,0.1633453369140625,-1.3690185546875,-0.4892730712890625
1768421489823055400,8.729055419921876,0.1285400390625,-1.2859344482421875,-0.2923431396484375
1768421489833055200,8.73905517578125,0.139007568359375,-1.1739044189453125,-0.1971588134765625
1768421489843055400,8.749055419921875,0.2203826904296875,-1.0517120361328125,-0.1070098876953125
1768421489853055200,8.75905517578125,0.308441162109375,-0.9540252685546875,0.0266571044921875
1768421489863055000,8.76905517578125,0.45770263671875,-0.87384033203125,0.218597412109375
1768421489873054200,8.77905419921875,0.548370361328125,-0.83001708984375,0.3872528076171875
1768421489883054300,8.789054443359374,0.54034423828125,-0.867218017578125,0.422637939453125
1768421489893054200,8.79905419921875,0.48614501953125,-0.91790771484375,0.3660736083984375
1768421489903054300,8.809054443359376,0.372528076171875,-0.9630279541015625,0.234283447265625
1768421489913054200,8.81905419921875,0.29974365234375,-1.003692626953125,0.0460968017578125
1768421489923054300,8.829054443359375,0.281280517578125,-1.0466156005859375,-0.1549072265625
1768421489933054200,8.83905419921875,0.234222412109375,-1.1064605712890625,-0.344268798828125
1768421489943054000,8.84905419921875,0.17449951171875,-1.1477813720703125,-0.46759033203125
1768421489953054200,8.85905419921875,0.1415557861328125,-1.1495208740234375,-0.4969482421875
1768421489963054000,8.86905419921875,0.120513916015625,-1.093109130859375,-0.418792724609375
1768421489973054200,8.87905419921875,0.091766357421875,-1.0048828125,-0.2710723876953125
1768421489983054000,8.88905419921875,0.0802001953125,-0.9044647216796875,-0.1187286376953125
1768421489993054200,8.89905419921875,0.1178131103515625,-0.7912445068359375,0.0178985595703125
1768421490003054000,8.90905419921875,0.1531829833984375,-0.716796875,0.12579345703125
1768421490013054200,8.91905419921875,0.1975555419921875,-0.68768310546875,0.19244384765625
1768421490023054000,8.92905419921875,0.2236480712890625,-0.68798828125,0.207672119140625
1768421490033053200,8.93905322265625,0.201690673828125,-0.6925506591796875,0.1955108642578125
1768421490043053000,8.949052978515626,0.197601318359375,-0.6917877197265625,0.170166015625
1768421490053053200,8.95905322265625,0.21478271484375,-0.7047271728515625,0.1195526123046875
1768421490063053000,8.969052978515625,0.226898193359375,-0.74798583984375,0.0581817626953125
1768421490073053200,8.97905322265625,0.2386627197265625,-0.819366455078125,0.01141357421875
1768421490083053000,8.989052978515625,0.21636962890625,-0.9158782958984375,-0.0215606689453125
1768421490093053200,8.99905322265625,0.1797637939453125,-1.0011749267578125,-0.038177490234375
1768421490103053300,9.00905322265625,0.1315155029296875,-1.0666656494140625,-0.0584259033203125
1768421490113053400,9.019053466796874,0.0805206298828125,-1.1038055419921875,-0.0562896728515625
1768421490123053300,9.02905322265625,0.0484161376953125,-1.10693359375,-0.02288818359375
1768421490133053200,9.03905322265625,0.0639801025390625,-1.0925140380859375,0.0006103515625
1768421490143053300,9.04905322265625,0.0943450927734375,-1.0489501953125,0.0308990478515625
1768421490153053200,9.05905322265625,0.118438720703125,-0.9838104248046875,0.07122802734375
1768421490163053300,9.06905322265625,0.1185455322265625,-0.9233245849609375,0.0977935791015625
1768421490173053200,9.07905322265625,0.08209228515625,-0.8817596435546875,0.1077423095703125
1768421490183053300,9.08905322265625,0.0347137451171875,-0.864990234375,0.1128387451171875
1768421490193053200,9.09905322265625,0.0146942138671875,-0.871368408203125,0.1097564697265625
1768421490203052300,9.10905224609375,0.0309906005859375,-0.8976593017578125,0.091400146484375
1768421490213052200,9.11905224609375,0.0576171875,-0.9469146728515625,0.0630035400390625
1768421490223052300,9.12905224609375,0.062957763671875,-1.0029144287109375,0.0362091064453125
1768421490233052200,9.13905224609375,0.0419464111328125,-1.042755126953125,0.018157958984375
1768421490243052300,9.14905224609375,0.013275146484375,-1.049835205078125,0.0196990966796875
1768421490253052200,9.15905224609375,-0.0181121826171875,-1.0298919677734375,0.0211029052734375
1768421490263052300,9.16905224609375,-0.065521240234375,-1.0149383544921875,0.000640869140625
1768421490273052200,9.17905224609375,-0.10430908203125,-0.9659576416015625,0.031402587890625
1768421490283052300,9.18905224609375,-0.1339569091796875,-0.8982391357421875,0.09637451171875
1768421490293052200,9.19905224609375,-0.141876220703125,-0.8475341796875,0.170135498046875
1768421490303052300,9.20905224609375,-0.1284027099609375,-0.8147125244140625,0.2425079345703125
1768421490313052200,9.21905224609375,-0.1034088134765625,-0.8029937744140625,0.28338623046875
1768421490323052300,9.22905224609375,-0.0783538818359375,-0.82696533203125,0.2765045166015625
1768421490333052200,9.23905224609375,-0.0444183349609375,-0.8686981201171875,0.2413787841796875
1768421490343052000,9.249052001953125,-0.0065765380859375,-0.9357757568359375,0.181671142578125
1768421490353052200,9.25905224609375,0.028076171875,-1.0403900146484375,0.09844970703125
1768421490363051300,9.26905126953125,0.0910797119140625,-1.1328582763671875,0.0628509521484375
1768421490373051100,9.279051025390626,0.1779327392578125,-1.20306396484375,0.049346923828125
1768421490383051300,9.28905126953125,0.2368927001953125,-1.2566070556640625,0.0389251708984375
1768421490393051100,9.299051025390625,0.2353668212890625,-1.276641845703125,0.02606201171875
1768421490403051300,9.30905126953125,0.24652099609375,-1.2481842041015625,0.0390472412109375
1768421490413051100,9.319051025390625,0.3370819091796875,-1.187164306640625,0.063323974609375
1768421490423051000,9.329051025390624,0.485565185546875,-1.1388702392578125,0.0445098876953125
1768421490433051100,9.339051025390624,0.643890380859375,-1.143798828125,0.0050201416015625
1768421490443051000,9.349051025390626,0.679931640625,-1.231536865234375,-0.0714263916015625
1768421490453051100,9.359051025390626,0.5681610107421875,-1.36529541015625,-0.168060302734375
1768421490463051000,9.369051025390625,0.5113067626953125,-1.3635406494140625,-0.1535491943359375
1768421490473051100,9.379051025390625,0.547576904296875,-1.268768310546875,-0.1461181640625
1768421490483051000,9.389051025390625,0.534576416015625,-1.1064300537109375,-0.223846435546875
1768421490493051100,9.399051025390625,0.381622314453125,-0.9096221923828125,-0.3756256103515625
1768421490503051000,9.409051025390625,0.138458251953125,-0.7869110107421875,-0.5468292236328125
1768421490513051100,9.419051025390624,-0.1148834228515625,-0.77813720703125,-0.60076904296875
1768421490523051000,9.429051025390624,-0.2278289794921875,-0.8742828369140625,-0.55780029296875
1768421490533050000,9.439050048828125,-0.1385650634765625,-1.018280029296875,-0.4687957763671875
1768421490543050000,9.449050048828125,0.0110321044921875,-1.1502227783203125,-0.333404541015625
1768421490553050000,9.459050048828125,0.1001434326171875,-1.2538909912109375,-0.210113525390625
1768421490563050000,9.469050048828125,0.1272125244140625,-1.3092041015625,-0.112884521484375
1768421490573050000,9.479050048828125,0.1375732421875,-1.3127288818359375,-0.0396881103515625
1768421490583050000,9.489050048828124,0.16802978515625,-1.2686614990234375,-0.005096435546875
1768421490593050000,9.499050048828124,0.188385009765625,-1.1730194091796875,-0.0016021728515625
1768421490603050000,9.509050048828126,0.14697265625,-1.0684967041015625,-0.009674072265625
1768421490613049900,9.5190498046875,0.0681304931640625,-0.9806976318359375,-0.0052642822265625
1768421490623050200,9.52905029296875,0.000396728515625,-0.9111175537109375,-0.0057373046875
1768421490633050000,9.539050048828125,-0.0156402587890625,-0.85699462890625,-0.0174102783203125
1768421490643050200,9.54905029296875,0.010101318359375,-0.8290557861328125,-0.0424041748046875
1768421490653050000,9.559050048828125,0.0418853759765625,-0.829376220703125,-0.0843963623046875
1768421490663050200,9.56905029296875,0.0687713623046875,-0.8411865234375,-0.1399688720703125
1768421490673050000,9.579050048828124,0.090545654296875,-0.8541412353515625,-0.1900787353515625
1768421490683050200,9.58905029296875,0.099151611328125,-0.8616943359375,-0.2277069091796875
1768421490693050000,9.599050048828126,0.0819244384765625,-0.8625640869140625,-0.24346923828125
1768421490703049200,9.60904931640625,0.0465850830078125,-0.866363525390625,-0.236083984375
1768421490713049000,9.619049072265625,0.0168304443359375,-0.8622589111328125,-0.20660400390625
1768421490723049200,9.62904931640625,-0.01116943359375,-0.8436279296875,-0.192352294921875
1768421490733049000,9.639049072265625,-0.0504608154296875,-0.825836181640625,-0.183349609375
1768421490743049200,9.64904931640625,-0.064666748046875,-0.81048583984375,-0.157318115234375
1768421490753049000,9.659049072265624,-0.04437255859375,-0.804779052734375,-0.1302490234375
1768421490763049200,9.66904931640625,-0.0177001953125,-0.8238983154296875,-0.1177520751953125
1768421490773049000,9.679049072265625,-0.0009765625,-0.851287841796875,-0.1125335693359375
1768421490783049200,9.68904931640625,0.0008087158203125,-0.88397216796875,-0.11053466796875
1768421490793049000,9.699049072265625,-0.01434326171875,-0.916046142578125,-0.1019744873046875
1768421490803049000,9.709049072265625,-0.031585693359375,-0.938568115234375,-0.0891876220703125
1768421490813049000,9.719049072265625,-0.0581512451171875,-0.9462738037109375,-0.0727081298828125
1768421490823049000,9.729049072265624,-0.0844573974609375,-0.9398040771484375,-0.038543701171875
1768421490833049000,9.739049072265624,-0.0946502685546875,-0.9259490966796875,0.0174102783203125
1768421490843049000,9.749049072265626,-0.105194091796875,-0.90533447265625,0.081787109375
1768421490853049000,9.759049072265626,-0.10595703125,-0.880584716796875,0.129608154296875
1768421490863049000,9.769049072265625,-0.090728759765625,-0.8525543212890625,0.1522369384765625
1768421490873048000,9.779048095703125,-0.0485382080078125,-0.828826904296875,0.170684814453125
1768421490883048000,9.7890478515625,0.012603759765625,-0.8101806640625,0.1912384033203125
1768421490893048000,9.799048095703125,0.0880126953125,-0.8043212890625,0.209381103515625
1768421490903048000,9.8090478515625,0.13970947265625,-0.8147735595703125,0.221099853515625
1768421490913048000,9.819048095703126,0.1231536865234375,-0.8471832275390625,0.2169647216796875
1768421490923048000,9.8290478515625,0.067291259765625,-0.888153076171875,0.1973419189453125
1768421490933048000,9.839048095703125,0.0148162841796875,-0.9370269775390625,0.165771484375
1768421490943048000,9.8490478515625,0.0107574462890625,-0.9598236083984375,0.1165771484375
1768421490953048000,9.859048095703125,0.04913330078125,-0.9617156982421875,0.0547332763671875
1768421490963048000,9.8690478515625,0.0992431640625,-0.950225830078125,-0.00897216796875
1768421490973048300,9.87904833984375,0.12591552734375,-0.9442138671875,-0.0852508544921875
1768421490983048200,9.889048095703124,0.1386871337890625,-0.94622802734375,-0.1618194580078125
1768421490993048000,9.899048095703124,0.1602783203125,-0.9457244873046875,-0.225128173828125
1768421491003048200,9.909048095703126,0.20684814453125,-0.9578399658203125,-0.269805908203125
1768421491013048000,9.919048095703126,0.24462890625,-0.97259521484375,-0.3071136474609375
1768421491023048200,9.929048095703125,0.1896209716796875,-0.9645538330078125,-0.3135528564453125
1768421491033048000,9.939048095703125,0.053741455078125,-0.9095611572265625,-0.29046630859375
1768421491043047200,9.949047119140625,-0.0615386962890625,-0.8288726806640625,-0.2608795166015625
1768421491053047300,9.95904736328125,-0.0725555419921875,-0.7627410888671875,-0.2286529541015625
1768421491063047200,9.969047119140624,0.024200439453125,-0.71435546875,-0.1802825927734375
1768421491073047000,9.979047119140626,0.15478515625,-0.6951751708984375,-0.1230316162109375
1768421491083047200,9.989047119140626,0.270233154296875,-0.678253173828125,-0.0547027587890625
1768421491093047000,9.999047119140625,0.3284759521484375,-0.651214599609375,0.02484130859375
1768421491103047200,10.009047119140625,0.3209075927734375,-0.6019744873046875,0.11297607421875
1768421491113047000,10.019047119140625,0.3109130859375,-0.57794189453125,0.2005767822265625
1768421491123047200,10.029047119140625,0.3563385009765625,-0.673675537109375,0.2729644775390625
1768421491133047000,10.039047119140625,0.4370574951171875,-0.9228057861328125,0.346160888671875
1768421491143047200,10.049047119140624,0.471923828125,-1.2746429443359375,0.4183502197265625
1768421491153047000,10.059047119140626,0.3751220703125,-1.5451812744140625,0.4590301513671875
1768421491163047200,10.069047119140626,0.175567626953125,-1.5341033935546875,0.3855438232421875
1768421491173047000,10.079047119140625,0.06793212890625,-1.2929229736328125,0.1061553955078125
1768421491183047200,10.089047119140625,0.1082763671875,-1.1215667724609375,-0.1175079345703125
1768421491193047000,10.099047119140625,0.1839141845703125,-1.01458740234375,-0.2125244140625
1768421491203047000,10.109046875,0.163818359375,-0.9186859130859375,-0.2833709716796875
1768421491213046000,10.1190458984375,0.0971832275390625,-0.8534393310546875,-0.3189239501953125
1768421491223046100,10.129046142578124,0.028656005859375,-0.863525390625,-0.296905517578125
1768421491233046000,10.1390458984375,-0.017486572265625,-0.9564208984375,-0.2222900390625
1768421491243046100,10.149046142578126,-0.0310211181640625,-1.1010589599609375,-0.075225830078125
1768421491253046000,10.1590458984375,0.0018463134765625,-1.2410736083984375,0.055999755859375
1768421491263046100,10.169046142578125,0.0577850341796875,-1.307159423828125,0.1665496826171875
1768421491273046000,10.1790458984375,0.1092529296875,-1.25323486328125,0.2558135986328125
1768421491283046000,10.1890458984375,0.135955810546875,-1.124359130859375,0.2786865234375
1768421491293046000,10.1990458984375,0.1213836669921875,-0.971466064453125,0.2458648681640625
1768421491303046000,10.2090458984375,0.089111328125,-0.86328125,0.1741943359375
1768421491313046000,10.2190458984375,0.05548095703125,-0.82611083984375,0.0811614990234375
1768421491323046100,10.229046142578126,0.0229949951171875,-0.83868408203125,0.0244293212890625
1768421491333046300,10.23904638671875,0.00958251953125,-0.8773040771484375,0.0139007568359375
1768421491343046100,10.249046142578125,0.0313568115234375,-0.9421539306640625,0.0341339111328125
1768421491353046300,10.25904638671875,0.056884765625,-1.0225067138671875,0.0819549560546875
1768421491363046100,10.269046142578125,0.066070556640625,-1.060516357421875,0.14715576171875
1768421491373046300,10.27904638671875,0.066986083984375,-1.029205322265625,0.181243896484375
1768421491383046100,10.289046142578124,0.0789337158203125,-0.97113037109375,0.146392822265625
1768421491393046000,10.2990458984375,0.054351806640625,-0.8961181640625,0.0511627197265625
1768421491403045000,10.309045166015625,-0.0093231201171875,-0.8094024658203125,-0.041290283203125
1768421491413045200,10.319045166015625,-0.06591796875,-0.7489166259765625,-0.0587921142578125
1768421491423045000,10.329045166015625,-0.090667724609375,-0.753814697265625,-0.020263671875
1768421491433045200,10.339045166015625,-0.092193603515625,-0.811431884765625,0.0252532958984375
1768421491443045000,10.349045166015625,-0.0718994140625,-0.863189697265625,0.056854248046875
1768421491453045200,10.359045166015624,-0.0440216064453125,-0.8794097900390625,0.0743255615234375
1768421491463045000,10.369045166015624,0.0015869140625,-0.885040283203125,0.0690765380859375
1768421491473045000,10.379044921875,0.0480194091796875,-0.8865814208984375,0.0468597412109375
1768421491483045000,10.389045166015626,0.0667572021484375,-0.84649658203125,0.0230560302734375
1768421491493045000,10.399044921875,0.060516357421875,-0.7750091552734375,0.0177001953125
1768421491503045000,10.409045166015625,0.065673828125,-0.7339324951171875,0.0372161865234375
1768421491513045000,10.419044921875,-0.0016326904296875,-0.71380615234375,0.115081787109375
1768421491523045000,10.429045166015625,-0.2076873779296875,-0.658599853515625,0.2326812744140625
1768421491533045000,10.439044921875,-0.3197021484375,-0.6143035888671875,0.2711944580078125
1768421491543045000,10.449045166015624,-0.217376708984375,-0.6926422119140625,0.1710205078125
1768421491553045000,10.459044921875,-0.0884857177734375,-0.796142578125,0.0476226806640625
1768421491563045000,10.469045166015626,-0.1059112548828125,-0.777862548828125,-0.0288543701171875
1768421491573044000,10.4790439453125,-0.1699371337890625,-0.69122314453125,-0.0664825439453125
1768421491583044000,10.489044189453125,-0.1905364990234375,-0.6394500732421875,-0.10113525390625
1768421491593044000,10.4990439453125,-0.1347808837890625,-0.651824951171875,-0.103363037109375
1768421491603044000,10.509044189453125,-0.07366943359375,-0.69781494140625,-0.089324951171875
1768421491613044000,10.5190439453125,-0.0721435546875,-0.7527618408203125,-0.0807647705078125
1768421491623044000,10.529044189453124,-0.11688232421875,-0.72540283203125,-0.07086181640625
1768421491633044000,10.5390439453125,-0.1783905029296875,-0.6392669677734375,-0.06787109375
1768421491643044000,10.549044189453125,-0.19232177734375,-0.6030426025390625,-0.059783935546875
1768421491653044000,10.5590439453125,-0.179473876953125,-0.6009674072265625,-0.0707855224609375
1768421491663044000,10.569044189453125,-0.0952606201171875,-0.6162261962890625,-0.1053314208984375
1768421491673044200,10.579044189453125,-0.0861663818359375,-0.63543701171875,-0.131866455078125
1768421491683044000,10.589044189453125,-0.1258392333984375,-0.6647491455078125,-0.1495513916015625
1768421491693044200,10.599044189453124,-0.17889404296875,-0.6622314453125,-0.1751708984375
1768421491703044000,10.609044189453124,-0.201904296875,-0.5792999267578125,-0.16571044921875
1768421491713044200,10.619044189453126,-0.1898956298828125,-0.4483642578125,-0.1431121826171875
1768421491723044000,10.629044189453126,-0.2570953369140625,-0.365142822265625,-0.084503173828125
1768421491733044200,10.639044189453125,-0.3227386474609375,-0.366455078125,-0.0710601806640625
1768421491743044000,10.649044189453125,-0.351806640625,-0.38043212890625,-0.121337890625
1768421491753043200,10.659043212890625,-0.3945465087890625,-0.4283447265625,-0.132171630859375
1768421491763043000,10.66904296875,-0.359893798828125,-0.5511932373046875,-0.1363677978515625
1768421491773043200,10.679043212890624,-0.3059539794921875,-0.6401824951171875,-0.0856170654296875
1768421491783043000,10.68904296875,-0.3751678466796875,-0.6381988525390625,0.179534912109375
1768421491793043200,10.699043212890626,-0.718048095703125,-0.5996551513671875,0.4541015625
1768421491803043000,10.70904296875,-0.9866485595703125,-0.6638946533203125,0.5425872802734375
1768421491813043200,10.719043212890625,-0.9951019287109375,-0.8134613037109375,0.4923248291015625
1768421491823043000,10.72904296875,-0.9434967041015625,-1.0222930908203125,0.1342620849609375
1768421491833043200,10.739043212890625,-1.2441253662109375,-1.164886474609375,-0.3396148681640625
1768421491843043000,10.74904296875,-1.3917236328125,-1.252105712890625,-0.5779266357421875
1768421491853043200,10.759043212890624,-1.0190277099609375,-1.335723876953125,-0.6092071533203125
1768421491863043000,10.76904296875,-0.4393768310546875,-1.3178558349609375,-0.4065399169921875
1768421491873043000,10.77904296875,-0.5018463134765625,-1.2604522705078125,-0.247344970703125
1768421491883043000,10.78904296875,-0.9697418212890625,-1.15203857421875,-0.042388916015625
1768421491893043000,10.79904296875,-1.2338714599609375,-1.06207275390625,0.10498046875
1768421491903043000,10.80904296875,-1.593475341796875,-0.9989013671875,0.12445068359375
1768421491913043000,10.81904296875,-2.293701171875,-0.9283905029296875,-0.5318450927734375
1768421491923043000,10.82904296875,-2.74114990234375,-0.7223358154296875,-1.09564208984375
1768421491933042200,10.839042236328124,-1.6876983642578125,-0.6234130859375,-1.784576416015625
1768421491943042000,10.8490419921875,-0.9806976318359375,-0.5690155029296875,-1.5218963623046875
1768421491953042000,10.8590419921875,-1.6659088134765625,-0.3335113525390625,-0.61138916015625
1768421491963042000,10.8690419921875,-2.15582275390625,-0.0256805419921875,-0.1869354248046875
1768421491973042000,10.8790419921875,-2.3016510009765625,0.3803558349609375,-0.1125640869140625
1768421491984292000,10.8902919921875,-1.9111480712890625,0.722137451171875,-0.43060302734375
1768421491994292000,10.9002919921875,-1.8803558349609375,0.8260498046875,-0.6398773193359375
1768421492004292000,10.9102919921875,-2.2852935791015625,1.0391998291015625,-0.40008544921875
1768421492016792000,10.9227919921875,-2.581787109375,1.3495941162109375,-0.2117919921875
1768421492026792000,10.9327919921875,-2.3477783203125,1.6785430908203125,-0.0546875
1768421492036792000,10.9427919921875,-1.293548583984375,1.6848297119140625,0.44378662109375
1768421492046792000,10.9527919921875,-0.3468780517578125,1.0004425048828125,0.6447296142578125
1768421492056792000,10.9627919921875,-0.038055419921875,0.162017822265625,0.6230010986328125
1768421492066792000,10.9727919921875,-0.3427276611328125,-0.1847076416015625,0.722412109375
1768421492076792000,10.9827919921875,-0.7788238525390625,-0.112945556640625,0.8189239501953125
1768421492086792000,10.9927919921875,-1.00152587890625,0.0281982421875,0.608612060546875
1768421492096792000,11.0027919921875,-0.9890899658203125,0.13128662109375,0.2313995361328125
1768421492106792200,11.012792236328124,-0.8479156494140625,0.215789794921875,-0.073394775390625
1768421492116792300,11.022792236328126,-0.7425689697265625,0.233245849609375,-0.2721710205078125
1768421492126791000,11.032791015625,-0.722686767578125,0.1803741455078125,-0.301483154296875
1768421492136791000,11.042791015625,-0.769775390625,0.098114013671875,-0.22784423828125
1768421492146791000,11.052791015625,-0.8868560791015625,0.0431060791015625,-0.1344451904296875
1768421492156791300,11.062791259765625,-0.9710235595703125,0.0257110595703125,-0.0370025634765625
1768421492166791200,11.072791259765625,-0.99456787109375,0.03411865234375,0.008941650390625
1768421492176791300,11.082791259765624,-1.055206298828125,0.0576324462890625,-0.0011444091796875
1768421492186791200,11.092791259765624,-1.148590087890625,0.07684326171875,-0.022064208984375
1768421492196791300,11.102791259765626,-1.200927734375,0.10406494140625,0.0128936767578125
1768421492206791200,11.112791259765626,-1.23175048828125,0.1306610107421875,0.1063995361328125
1768421492216791000,11.122791015625,-1.2415924072265625,0.15679931640625,0.2015380859375
1768421492226791200,11.132791259765625,-1.194549560546875,0.184600830078125,0.2477569580078125
1768421492236791000,11.142791015625,-1.1248016357421875,0.20562744140625,0.2541351318359375
1768421492246791200,11.152791259765625,-1.0708160400390625,0.2196197509765625,0.2368316650390625
1768421492256791000,11.162791015625,-1.0045318603515625,0.197723388671875,0.2052764892578125
1768421492266791200,11.172791259765624,-0.973419189453125,0.13720703125,0.186767578125
1768421492276791000,11.182791015625,-0.967926025390625,0.087005615234375,0.2040557861328125
1768421492286791200,11.192791259765626,-0.9170074462890625,0.076416015625,0.2415008544921875
1768421492296791000,11.202791015625,-0.9174346923828125,0.121734619140625,0.275299072265625
1768421492306790100,11.2127900390625,-0.9376373291015625,0.16717529296875,0.286651611328125
1768421492316790000,11.2227900390625,-0.9462890625,0.2166900634765625,0.282379150390625
1768421492326790100,11.2327900390625,-0.966766357421875,0.2536468505859375,0.3166351318359375
1768421492336790000,11.2427900390625,-0.9736785888671875,0.26873779296875,0.34918212890625
1768421492346790100,11.2527900390625,-0.954742431640625,0.2662811279296875,0.366973876953125
1768421492356790000,11.2627900390625,-0.9111328125,0.2600555419921875,0.3574981689453125
1768421492366790100,11.2727900390625,-0.87945556640625,0.2552642822265625,0.3463897705078125
1768421492376790000,11.2827900390625,-0.86126708984375,0.2190704345703125,0.330108642578125
1768421492386790400,11.292790283203125,-0.8389129638671875,0.1876373291015625,0.328765869140625
1768421492396790500,11.30279052734375,-0.837799072265625,0.1861572265625,0.341522216796875
1768421492406790400,11.312790283203125,-0.864532470703125,0.1879425048828125,0.3628692626953125
1768421492416790500,11.32279052734375,-0.885467529296875,0.1792144775390625,0.381866455078125
1768421492426790400,11.332790283203124,-0.9128570556640625,0.1666717529296875,0.3806610107421875
1768421492436790800,11.342790771484376,-0.939178466796875,0.150665283203125,0.360626220703125
1768421492446790700,11.352790771484376,-0.959686279296875,0.136383056640625,0.34454345703125
1768421492456790800,11.362790771484375,-0.969207763671875,0.11767578125,0.337249755859375
1768421492466790700,11.372790771484375,-0.9746246337890625,0.091156005859375,0.3438873291015625
1768421492476790800,11.382790771484375,-0.964996337890625,0.061431884765625,0.370025634765625
1768421492486790700,11.392790771484375,-0.9558258056640625,0.0347137451171875,0.3919830322265625
1768421492496790500,11.40279052734375,-0.952423095703125,0.01348876953125,0.3874359130859375
1768421492506789600,11.41278955078125,-0.9611358642578125,-0.010528564453125,0.3643035888671875
1768421492516789800,11.422789794921876,-0.977386474609375,-0.030731201171875,0.334259033203125
1768421492526789600,11.43278955078125,-0.983306884765625,-0.044952392578125,0.3184814453125
1768421492536789800,11.442789794921875,-0.9832763671875,-0.0493927001953125,0.3221282958984375
1768421492546789600,11.45278955078125,-0.972259521484375,-0.053863525390625,0.327728271484375
1768421492556789800,11.462789794921875,-0.952239990234375,-0.06103515625,0.3193817138671875
1768421492566789600,11.47278955078125,-0.9457550048828125,-0.057586669921875,0.30523681640625
1768421492576789500,11.48278955078125,-0.9458160400390625,-0.044525146484375,0.3074188232421875
1768421492586789600,11.49278955078125,-0.935760498046875,-0.04296875,0.3179931640625
1768421492596789500,11.50278955078125,-0.937896728515625,-0.0493316650390625,0.3191375732421875
1768421492606789600,11.51278955078125,-0.95037841796875,-0.0472412109375,0.30108642578125
1768421492616789500,11.52278955078125,-0.9727630615234375,-0.0397186279296875,0.285308837890625
1768421492626789600,11.53278955078125,-0.973480224609375,-0.03228759765625,0.316650390625
1768421492636789500,11.54278955078125,-0.95367431640625,-0.0264434814453125,0.37261962890625
1768421492646789600,11.55278955078125,-0.9313812255859375,-0.0205535888671875,0.4127960205078125
1768421492656789500,11.56278955078125,-0.9205169677734375,-0.017486572265625,0.428192138671875
1768421492666789600,11.57278955078125,-0.9093017578125,-0.02130126953125,0.430572509765625
1768421492676789500,11.58278955078125,-0.9073486328125,-0.028533935546875,0.4146575927734375
1768421492686788600,11.59278857421875,-0.9246826171875,-0.0300445556640625,0.3857421875
1768421492696788500,11.60278857421875,-0.9510040283203125,-0.02777099609375,0.3589935302734375
1768421492706788600,11.61278857421875,-0.97210693359375,-0.031463623046875,0.35675048828125
1768421492716788500,11.62278857421875,-0.9640960693359375,-0.0375823974609375,0.386871337890625
1768421492726788600,11.63278857421875,-0.92547607421875,-0.037933349609375,0.4230499267578125
1768421492736788500,11.64278857421875,-0.8922119140625,-0.0438232421875,0.43524169921875
1768421492746788600,11.65278857421875,-0.8868408203125,-0.069915771484375,0.423187255859375
1768421492756788500,11.66278857421875,-0.9052581787109375,-0.0917510986328125,0.4123992919921875
1768421492766788600,11.67278857421875,-0.9259185791015625,-0.1031646728515625,0.40667724609375
1768421492776788700,11.682788818359375,-0.9448394775390625,-0.106903076171875,0.373870849609375
1768421492786788600,11.69278857421875,-0.9527435302734375,-0.0998382568359375,0.330078125
1768421492796788700,11.702788818359375,-0.954254150390625,-0.09051513671875,0.3026580810546875
1768421492806788600,11.71278857421875,-0.9544830322265625,-0.0809478759765625,0.315521240234375
1768421492816788700,11.722788818359374,-0.9321746826171875,-0.0703582763671875,0.34844970703125
1768421492826788600,11.73278857421875,-0.9068603515625,-0.072265625,0.36328125
1768421492836788700,11.742788818359376,-0.917572021484375,-0.085540771484375,0.356689453125
1768421492846788600,11.75278857421875,-0.94873046875,-0.0898284912109375,0.3592987060546875
1768421492856788700,11.762788818359375,-0.9635162353515625,-0.088958740234375,0.339324951171875
1768421492866788600,11.77278857421875,-0.9781646728515625,-0.0892333984375,0.31158447265625
1768421492876788700,11.782788818359375,-0.9967803955078125,-0.0757293701171875,0.2828826904296875
1768421492886787600,11.79278759765625,-0.9890594482421875,-0.0589752197265625,0.2518463134765625
1768421492896787700,11.80278759765625,-0.9678192138671875,-0.067291259765625,0.231964111328125
1768421492906787600,11.81278759765625,-0.94927978515625,-0.096954345703125,0.2366790771484375
1768421492916787700,11.82278759765625,-0.9266204833984375,-0.128692626953125,0.2494049072265625
1768421492926787600,11.83278759765625,-0.924163818359375,-0.1502838134765625,0.2556304931640625
1768421492936787700,11.84278759765625,-0.969146728515625,-0.1436309814453125,0.262359619140625
1768421492946787600,11.85278759765625,-1.0198974609375,-0.1038055419921875,0.257904052734375
1768421492956787700,11.86278759765625,-1.02008056640625,-0.0547943115234375,0.23199462890625
1768421492966787600,11.87278759765625,-0.9904022216796875,-0.01519775390625,0.2118072509765625
1768421492976787500,11.882787353515624,-0.984710693359375,-0.021728515625,0.180938720703125
1768421492986787600,11.89278759765625,-0.9664764404296875,-0.0579681396484375,0.160430908203125
1768421492996787500,11.902787353515626,-0.9246063232421875,-0.0906524658203125,0.1817474365234375
1768421493006787600,11.91278759765625,-0.9002685546875,-0.1108551025390625,0.2269287109375
1768421493016787500,11.922787353515625,-0.904022216796875,-0.116455078125,0.2647705078125
1768421493026787600,11.93278759765625,-0.9518890380859375,-0.1087188720703125,0.2689971923828125
1768421493036787500,11.942787353515625,-1.0268707275390625,-0.0804290771484375,0.2244415283203125
1768421493046787600,11.95278759765625,-1.09649658203125,-0.0418243408203125,0.1963958740234375
1768421493056787500,11.962787353515624,-1.071563720703125,-0.0363311767578125,0.2418060302734375
1768421493066787600,11.97278759765625,-1.005401611328125,-0.0706787109375,0.2878265380859375
1768421493076787700,11.98278759765625,-0.9642486572265625,-0.10858154296875,0.2988128662109375
1768421493086786600,11.99278662109375,-0.9380035400390625,-0.122528076171875,0.2691802978515625
1768421493096786400,12.002786376953125,-0.9763641357421875,-0.10833740234375,0.21136474609375
1768421493106786600,12.01278662109375,-1.0093536376953125,-0.093658447265625,0.1485748291015625
1768421493116786400,12.022786376953125,-1.022796630859375,-0.094482421875,0.1083526611328125
1768421493126786800,12.032786865234375,-1.0295562744140625,-0.1197967529296875,0.08544921875
1768421493136786700,12.04278662109375,-1.0215301513671875,-0.1493988037109375,0.09112548828125
1768421493146786800,12.052786865234374,-0.994110107421875,-0.1765899658203125,0.1377716064453125
1768421493156786700,12.06278662109375,-0.939117431640625,-0.2024078369140625,0.199066162109375
1768421493166786600,12.07278662109375,-0.903778076171875,-0.197174072265625,0.24383544921875
1768421493176786700,12.08278662109375,-0.8914794921875,-0.20391845703125,0.2412567138671875
1768421493186786600,12.09278662109375,-0.90545654296875,-0.24493408203125,0.1844329833984375
1768421493196786700,12.10278662109375,-0.916168212890625,-0.2674102783203125,0.07757568359375
1768421493206786600,12.11278662109375,-0.948974609375,-0.3690338134765625,0.0384979248046875
1768421493216786700,12.12278662109375,-0.9590606689453125,-0.3673553466796875,0.12200927734375
1768421493226786600,12.13278662109375,-0.9279022216796875,-0.3246002197265625,0.2484588623046875
1768421493236786700,12.14278662109375,-0.829864501953125,-0.3684539794921875,0.2127685546875
1768421493246786600,12.15278662109375,-0.734375,-0.375152587890625,0.1219940185546875
1768421493256786700,12.16278662109375,-0.88214111328125,-0.2974700927734375,0.05242919921875
1768421493266786600,12.17278662109375,-1.0306549072265625,-0.234344482421875,0.0623931884765625
1768421493276785700,12.18278564453125,-0.99951171875,-0.2175750732421875,0.098114013671875
1768421493286785500,12.19278564453125,-0.920257568359375,-0.244873046875,0.1167144775390625
1768421493296785700,12.20278564453125,-0.8951263427734375,-0.2661285400390625,0.136993408203125
1768421493306785500,12.21278564453125,-0.9254150390625,-0.2629852294921875,0.1658782958984375
1768421493316785700,12.22278564453125,-0.99664306640625,-0.247955322265625,0.1819000244140625
1768421493326785500,12.23278564453125,-1.0478515625,-0.2191925048828125,0.186370849609375
1768421493336785700,12.24278564453125,-1.057708740234375,-0.185211181640625,0.189056396484375
1768421493346785500,12.25278564453125,-1.0396728515625,-0.1548614501953125,0.183349609375
1768421493356785400,12.262785400390625,-1.01361083984375,-0.126068115234375,0.181732177734375
1768421493366785500,12.27278564453125,-0.9971466064453125,-0.0953521728515625,0.181793212890625
1768421493376785400,12.282785400390624,-0.99346923828125,-0.0553741455078125,0.1754913330078125
1768421493386785300,12.292785400390626,-0.9961090087890625,-0.010498046875,0.1729278564453125
1768421493396785400,12.302785400390626,-1.004150390625,0.0234527587890625,0.17108154296875
1768421493406785500,12.31278564453125,-0.9994049072265625,0.0426025390625,0.16119384765625
1768421493416785400,12.322785400390625,-0.987152099609375,0.0479278564453125,0.1483306884765625
1768421493426785500,12.33278564453125,-0.9736785888671875,0.0432891845703125,0.135955810546875
1768421493436785400,12.342785400390625,-0.9582061767578125,0.02667236328125,0.1234283447265625
1768421493446785500,12.35278564453125,-0.9643402099609375,0.007049560546875,0.1147003173828125
1768421493456785400,12.362785400390624,-0.9798126220703125,-0.01531982421875,0.1132659912109375
1768421493466785500,12.37278564453125,-0.9897613525390625,-0.0392913818359375,0.127655029296875
1768421493476784400,12.382784423828125,-0.9933013916015625,-0.0444183349609375,0.1551666259765625
1768421493486784500,12.392784423828125,-0.995361328125,-0.0440521240234375,0.1841888427734375
1768421493496784400,12.402784423828125,-0.9951934814453125,-0.0450592041015625,0.2236785888671875
1768421493506784500,12.412784423828125,-0.989990234375,-0.0486907958984375,0.2664337158203125
1768421493516784400,12.422784423828125,-0.9777069091796875,-0.0605010986328125,0.2999420166015625
1768421493526784500,12.432784423828124,-0.958221435546875,-0.0808868408203125,0.319305419921875
1768421493536784400,12.442784423828124,-0.9354705810546875,-0.104888916015625,0.3213958740234375
1768421493546784500,12.452784423828126,-0.9334259033203125,-0.115081787109375,0.3077850341796875
1768421493556784400,12.462784423828126,-0.9500732421875,-0.1003570556640625,0.2801971435546875
1768421493566784300,12.4727841796875,-0.9623260498046875,-0.0814056396484375,0.25897216796875
1768421493576784400,12.482784423828125,-0.9652099609375,-0.0725555419921875,0.243072509765625
1768421493586784300,12.4927841796875,-0.9623870849609375,-0.063446044921875,0.2288360595703125
1768421493596784400,12.502784423828125,-0.96197509765625,-0.0578765869140625,0.215118408203125
1768421493606784300,12.5127841796875,-0.9647369384765625,-0.0577850341796875,0.20159912109375
1768421493616784400,12.522784423828124,-0.9639739990234375,-0.061187744140625,0.192413330078125
1768421493626784300,12.5327841796875,-0.96246337890625,-0.0644683837890625,0.1859130859375
1768421493636784400,12.542784423828126,-0.97113037109375,-0.0603790283203125,0.181610107421875
1768421493646784300,12.5527841796875,-0.9774169921875,-0.062255859375,0.1754150390625
1768421493656784400,12.562784423828125,-0.9816436767578125,-0.063079833984375,0.1691436767578125
1768421493666784300,12.5727841796875,-0.9898681640625,-0.065887451171875,0.16522216796875
1768421493676783400,12.582783447265625,-0.99249267578125,-0.0669403076171875,0.1643829345703125
1768421493686783200,12.592783203125,-0.9914703369140625,-0.066253662109375,0.165191650390625
1768421493696783400,12.602783447265624,-0.987701416015625,-0.0705718994140625,0.16650390625
1768421493706783200,12.612783203125,-0.9866485595703125,-0.0743865966796875,0.1684112548828125
1768421493716783400,12.622783447265626,-0.990325927734375,-0.082916259765625,0.16937255859375
1768421493726783200,12.632783203125,-0.9959259033203125,-0.085205078125,0.173614501953125
1768421493736783600,12.64278369140625,-0.99761962890625,-0.0836944580078125,0.1781463623046875
1768421493746783500,12.652783447265625,-0.9987640380859375,-0.085479736328125,0.18402099609375
1768421493756783400,12.662783447265625,-1.002655029296875,-0.0857391357421875,0.1934814453125
1768421493766783500,12.672783447265624,-0.9933319091796875,-0.0875091552734375,0.2063140869140625
1768421493776783400,12.682783447265624,-0.971771240234375,-0.0913543701171875,0.2153778076171875
1768421493786783500,12.692783447265626,-0.956512451171875,-0.0948486328125,0.2154998779296875
1768421493796783400,12.702783447265626,-0.954132080078125,-0.09375,0.2099609375
1768421493806783500,12.712783447265625,-0.9626617431640625,-0.08184814453125,0.1999053955078125
1768421493816783400,12.722783447265625,-0.972320556640625,-0.064239501953125,0.1947174072265625
1768421493826783500,12.732783447265625,-0.977264404296875,-0.0504150390625,0.1924896240234375
1768421493836783400,12.742783447265625,-0.978485107421875,-0.03973388671875,0.1891632080078125
1768421493846783500,12.752783447265625,-0.972930908203125,-0.0372314453125,0.18206787109375
1768421493856783400,12.762783447265624,-0.9692535400390625,-0.0405731201171875,0.170654296875
1768421493866783500,12.772783447265626,-0.9673004150390625,-0.0392303466796875,0.1666107177734375
1768421493876783400,12.782783447265626,-0.9712982177734375,-0.0369415283203125,0.1629791259765625
1768421493886782500,12.792782470703125,-0.985198974609375,-0.0355377197265625,0.16412353515625
1768421493896782300,12.8027822265625,-0.9976959228515625,-0.0342254638671875,0.1728973388671875
1768421493906782500,12.812782470703125,-1.001129150390625,-0.033843994140625,0.1787261962890625
1768421493916782300,12.8227822265625,-1.0050048828125,-0.040191650390625,0.181396484375
1768421493926782500,12.832782470703124,-1.0028076171875,-0.0460205078125,0.187591552734375
1768421493936782300,12.8427822265625,-0.9954376220703125,-0.049591064453125,0.19293212890625
1768421493946782500,12.852782470703126,-0.9933624267578125,-0.0550994873046875,0.191925048828125
1768421493956782300,12.8627822265625,-0.98394775390625,-0.056488037109375,0.1906585693359375
1768421493966782200,12.8727822265625,-0.9793853759765625,-0.0530242919921875,0.1927947998046875
1768421493976782300,12.8827822265625,-0.98309326171875,-0.048095703125,0.1944122314453125
1768421493986782200,12.8927822265625,-0.986114501953125,-0.046142578125,0.1930999755859375
1768421493996782300,12.9027822265625,-0.9875030517578125,-0.0453338623046875,0.1949005126953125
1768421494006782200,12.9127822265625,-0.987884521484375,-0.046173095703125,0.1986846923828125
1768421494016782300,12.9227822265625,-0.9818115234375,-0.049163818359375,0.1988067626953125
1768421494026782200,12.9327822265625,-0.9818878173828125,-0.0487518310546875,0.1994781494140625
1768421494036782600,12.942782470703126,-0.9835052490234375,-0.0485687255859375,0.1990966796875
