time,seconds_elapsed,z,y,x
1768421481143108400,0.0491083984375,0.030353112146258354,-0.1267177313566208,-0.08590345829725266
1768421481153108500,0.0591083984375,0.03494466841220856,-0.112310029566288,-0.10086216777563095
1768421481163108600,0.069108642578125,0.040884315967559814,-0.10008558630943298,-0.11572819948196411
1768421481173108500,0.0791083984375,0.043171972036361694,-0.09049847722053528,-0.116512231528759
1768421481183108600,0.089108642578125,0.030342992395162582,-0.08432207256555557,-0.11452258378267288
1768421481193108500,0.0991083984375,0.010854245163500309,-0.08042559772729874,-0.11630716919898987
1768421481203108600,0.109108642578125,-0.004815527703613043,-0.08274202048778534,-0.11812318116426468
1768421481213108500,0.1191083984375,-0.01877768151462078,-0.08149699121713638,-0.11493750661611557
1768421481223108600,0.129108642578125,-0.029195168986916542,-0.07847217470407486,-0.10507288575172424
1768421481233108500,0.1391083984375,-0.03329084441065788,-0.07785432040691376,-0.08926063776016235
1768421481243108600,0.149108642578125,-0.032042354345321655,-0.07961732894182205,-0.07089654356241226
1768421481253108500,0.1591083984375,-0.02467978000640869,-0.07566306740045547,-0.05721375346183777
1768421481263108600,0.169108642578125,-0.01986158825457096,-0.07344252616167068,-0.05186213180422783
1768421481273108500,0.1791083984375,-0.01264255866408348,-0.07238471508026123,-0.05327440798282623
1768421481283108400,0.1891083984375,-0.006277336739003658,-0.074156254529953,-0.051600608974695206
1768421481293108500,0.1991083984375,-0.005345496814697981,-0.07867243885993958,-0.051308728754520416
1768421481303108400,0.2091083984375,-0.0026770094409585,-0.08260273188352585,-0.054256048053503036
1768421481313107500,0.219107421875,-0.0019116170005872846,-0.09382209926843643,-0.052495431154966354
1768421481323107600,0.229107666015625,-0.004972920753061771,-0.1031881719827652,-0.05031163990497589
1768421481333107500,0.239107421875,-0.005154548212885857,-0.11139044165611267,-0.050626158714294434
1768421481343107600,0.249107666015625,-0.00464721629396081,-0.12239089608192444,-0.05024053528904915
1768421481353107500,0.259107421875,-0.0026471822056919336,-0.13285525143146515,-0.043171972036361694
1768421481363107300,0.269107421875,-0.004945490043610334,-0.1391078233718872,-0.03302639350295067
1768421481373107200,0.279107177734375,-0.004609399009495974,-0.1415206491947174,-0.02556661330163479
1768421481383107000,0.289107177734375,-0.005828860681504011,-0.1458245813846588,-0.0132084796205163
1768421481393107200,0.299107177734375,-0.010545851662755013,-0.14744484424591064,0.000862864195369184
1768421481403107000,0.309107177734375,-0.012404205277562141,-0.1492888182401657,0.013274792581796646
1768421481413107200,0.319107177734375,-0.012801283039152622,-0.1448432058095932,0.023143403232097626
1768421481423107000,0.329107177734375,-0.007920507341623306,-0.13558898866176605,0.023998809978365898
1768421481433107200,0.339107177734375,-0.0014626081101596355,-0.126026913523674,0.020246416330337524
1768421481443107000,0.349107177734375,0.006863764952868223,-0.11465787142515182,0.02207787148654461
1768421481453107200,0.359107177734375,0.014300376176834106,-0.10295461118221283,0.023744210600852966
1768421481463107000,0.369107177734375,0.022792929783463478,-0.09005585312843323,0.019832827150821686
1768421481473107500,0.379107421875,0.029762156307697296,-0.07852517068386078,0.014860439114272594
1768421481483107300,0.389107421875,0.036003272980451584,-0.06732817739248276,0.011818842962384224
1768421481493106200,0.399106201171875,0.04020760580897331,-0.057379137724637985,0.01044225413352251
1768421481503106000,0.40910595703125,0.04157194495201111,-0.0509212389588356,0.010752246715128422
1768421481513106200,0.419106201171875,0.04255864396691322,-0.04615764319896698,0.00959723349660635
1768421481523106300,0.429106201171875,0.04289287328720093,-0.038304779678583145,0.010637996718287468
1768421481533106400,0.4391064453125,0.047503069043159485,-0.03304077312350273,0.013335246592760086
1768421481543106300,0.449106201171875,0.049963563680648804,-0.029171466827392578,0.020238159224390984
1768421481553106400,0.4591064453125,0.050875965505838394,-0.01973242498934269,0.02828143909573555
1768421481563106300,0.469106201171875,0.049617353826761246,-0.016175508499145508,0.03388925641775131
1768421481573106200,0.479106201171875,0.04577867314219475,-0.009879794903099537,0.040566336363554
1768421481583106300,0.489106201171875,0.04440954327583313,-0.0046570696868002415,0.052621398121118546
1768421481593106200,0.499106201171875,0.043294478207826614,0.001014664419926703,0.06316564977169037
1768421481603106300,0.509106201171875,0.04110296070575714,0.0049643986858427525,0.07265263050794601
1768421481613106200,0.519106201171875,0.03923049196600914,0.012940033338963985,0.07017083466053009
1768421481623106300,0.529106201171875,0.03994102403521538,0.023673903197050095,0.0651979148387909
1768421481633106200,0.539106201171875,0.04050108790397644,0.03268550708889961,0.05750883370637894
1768421481643106300,0.549106201171875,0.0411682091653347,0.03990001231431961,0.04749268293380737
1768421481653106200,0.559106201171875,0.044852692633867264,0.04736671596765518,0.047805074602365494
1768421481663106300,0.569106201171875,0.046776026487350464,0.05392315238714218,0.05602278932929039
1768421481673105200,0.579105224609375,0.050046656280756,0.06207908317446709,0.06485623121261597
1768421481683105300,0.589105224609375,0.05439826101064682,0.07058921456336975,0.07109175622463226
1768421481693105200,0.599105224609375,0.05602358654141426,0.07981041073799133,0.06968986243009567
1768421481703105300,0.609105224609375,0.05584781989455223,0.08934426307678223,0.06288788467645645
1768421481713105200,0.619105224609375,0.050575293600559235,0.09812629967927933,0.0548696406185627
1768421481723105300,0.629105224609375,0.04448171332478523,0.09892205148935318,0.05355643481016159
1768421481733105200,0.639105224609375,0.040464602410793304,0.09696223586797714,0.06025481969118118
1768421481743105300,0.649105224609375,0.03632205352187157,0.09432756900787354,0.07128217071294785
1768421481753105200,0.659105224609375,0.036258671432733536,0.09108916670084,0.0774654969573021
1768421481763105300,0.669105224609375,0.038429681211709976,0.08668163418769836,0.0842168778181076
1768421481773105200,0.679105224609375,0.03943182900547981,0.08397186547517776,0.08859085291624069
1768421481783105000,0.68910498046875,0.03338059410452843,0.07511179149150848,0.08941243588924408
1768421481793105200,0.699105224609375,0.02749021351337433,0.06579552590847015,0.08852613717317581
1768421481803105000,0.70910498046875,0.021460019052028656,0.05386696010828018,0.09081219136714935
1768421481813105200,0.719105224609375,0.016771256923675537,0.037401966750621796,0.08402912318706512
1768421481823105300,0.729105224609375,0.011501925997436047,0.02707183174788952,0.07204889506101608
1768421481833105400,0.73910546875,0.0067694890312850475,0.014977884478867054,0.06503812223672867
1768421481843104000,0.74910400390625,0.0037433390971273184,0.002784601179882884,0.05930806323885918
1768421481853104000,0.759104248046875,0.0044115264900028706,-0.010514692403376102,0.05254123732447624
1768421481863104000,0.76910400390625,0.006509032100439072,-0.018028801307082176,0.04988420382142067
1768421481873104400,0.7791044921875,0.010252105072140694,-0.022516494616866112,0.042578887194395065
1768421481883104300,0.789104248046875,0.014649782329797745,-0.027004186064004898,0.03479766100645065
1768421481893104400,0.7991044921875,0.01549533661454916,-0.03230227902531624,0.028387166559696198
1768421481903104300,0.809104248046875,0.016231700778007507,-0.03460005670785904,0.021975073963403702
1768421481913104400,0.8191044921875,0.015896407887339592,-0.036973997950553894,0.012930712662637234
1768421481923104300,0.829104248046875,0.014770690351724625,-0.04056154191493988,0.00606481684371829
1768421481933104400,0.8391044921875,0.014786669053137302,-0.04495202749967575,0.0014602112350985408
1768421481943104300,0.849104248046875,0.015007445588707924,-0.04969911277294159,0.0017097494564950466
1768421481953104400,0.8591044921875,0.01702452264726162,-0.04939977452158928,0.008652610704302788
1768421481963104300,0.869104248046875,0.017582722008228302,-0.052029114216566086,0.012073440477252007
1768421481973104000,0.879104248046875,0.018446385860443115,-0.05552664026618004,0.014681474305689335
1768421481983104300,0.889104248046875,0.01727060042321682,-0.05732480809092522,0.013198626227676868
1768421481993104100,0.899104248046875,0.015489211305975914,-0.05788487195968628,0.010373544879257679
1768421482003104300,0.909104248046875,0.013492639176547527,-0.05374951288104057,0.005858688149601221
1768421482013104000,0.919104248046875,0.008902947418391705,-0.05024399608373642,-0.0000697748182574287
1768421482023103200,0.929103271484375,0.0017321199411526322,-0.05056357383728027,-0.008582036942243576
1768421482033103000,0.93910302734375,-0.00024181502521969378,-0.04892759397625923,-0.01215599849820137
1768421482043103200,0.949103271484375,-0.004132426809519529,-0.04860455542802811,-0.013156281784176826
1768421482053103000,0.95910302734375,-0.003436543047428131,-0.04691610857844353,-0.010588196106255054
1768421482063103200,0.969103271484375,-0.0001549959706608206,-0.04530249908566475,-0.010794324800372124
1768421482073103000,0.97910302734375,-0.001487641828134656,-0.0438859649002552,-0.012310195714235306
1768421482083103200,0.989103271484375,-0.0006937534781172872,-0.044973600655794144,-0.014406103640794754
1768421482093103000,0.99910302734375,-0.0028093685396015644,-0.04707350209355354,-0.014682806096971035
1768421482103103200,1.009103271484375,-0.0036698358599096537,-0.05162564292550087,-0.015597867779433727
1768421482113103000,1.01910302734375,-0.006608900614082813,-0.05620308592915535,-0.022594258189201355
1768421482123103200,1.029103271484375,-0.006306897848844528,-0.056531451642513275,-0.02611868642270565
1768421482133103000,1.03910302734375,-0.003468234557658434,-0.057682204991579056,-0.02899543195962906
1768421482143103200,1.049103271484375,-0.0008250473183579743,-0.060078784823417664,-0.030463101342320442
1768421482153103000,1.05910302734375,0.0023065637797117233,-0.0605914406478405,-0.030007166787981987
1768421482163103000,1.06910302734375,0.003123621689155698,-0.06359095871448517,-0.033609360456466675
1768421482173103400,1.079103271484375,0.0029617014806717634,-0.06711965054273605,-0.03672712296247482
1768421482183103200,1.089103271484375,0.0002793656021822244,-0.07010611891746521,-0.03281493857502937
1768421482193103400,1.099103271484375,-0.002153964713215828,-0.07006190717220306,-0.032466065138578415
1768421482203103200,1.109103271484375,-0.0012458267156034708,-0.06854470819234848,-0.033969417214393616
1768421482213102000,1.11910205078125,-0.0022069616243243217,-0.07043102383613586,-0.03820943832397461
1768421482223102200,1.129102294921875,-0.003448260948061943,-0.07058122754096985,-0.03922143951058388
1768421482233102300,1.139102294921875,-0.006040049251168966,-0.07018893957138062,-0.03204901143908501
1768421482243102200,1.149102294921875,-0.006120210513472557,-0.060390640050172806,-0.02570136822760105
1768421482253102300,1.159102294921875,-0.005941778887063265,-0.05317933112382889,-0.024756211787462234
1768421482263102200,1.169102294921875,-0.008289354853332043,-0.04699653759598732,-0.027953337877988815
1768421482273102300,1.179102294921875,-0.0071066454984247684,-0.03907283395528793,-0.03301946818828583
1768421482283102200,1.189102294921875,-0.006505836267024279,-0.03261866420507431,-0.041004955768585205
1768421482293102300,1.199102294921875,-0.004290885291993618,-0.02514450065791607,-0.03478434681892395
1768421482303102200,1.209102294921875,-0.0024445154704153538,-0.023431822657585144,-0.025362880900502205
1768421482313102300,1.219102294921875,-0.0031039142049849033,-0.022603046149015427,-0.016330236569046974
1768421482323102200,1.229102294921875,-0.00569969741627574,-0.020542027428746223,-0.012256133370101452
1768421482333102300,1.239102294921875,-0.008047539740800858,-0.017481788992881775,-0.01486390084028244
1768421482343102200,1.249102294921875,-0.011078749783337116,-0.010755974799394608,-0.022757509723305702
1768421482353102000,1.25910205078125,-0.009732255712151527,-0.005377721041440964,-0.025308553129434586
1768421482363102200,1.269102294921875,-0.010289921425282955,-0.0046181874349713326,-0.02484462969005108
1768421482373102600,1.2791025390625,-0.008851815015077591,-0.0036557212006300688,-0.01961577869951725
1768421482383102700,1.289102783203125,-0.0095096156001091,-0.0033968619536608458,-0.01624608226120472
1768421482393101600,1.2991015625,-0.010998322628438473,-0.004466387443244457,-0.010233462788164616
1768421482403101700,1.309101806640625,-0.011208978481590748,-0.0015760586829856038,-0.006431267596781254
1768421482413101600,1.3191015625,-0.0124247120693326,-0.0005914880894124508,-0.0027257453184574842
1768421482423101700,1.329101806640625,-0.012868394143879414,-0.0002593918761704117,-0.0028778119012713432
1768421482433101600,1.3391015625,-0.013771738857030869,0.001990712946280837,-0.003368099918588996
1768421482443101700,1.349101806640625,-0.013096893206238747,-0.0012689962750300765,0.0004340952436905354
1768421482453101600,1.3591015625,-0.012860937044024467,-0.0015795208746567369,0.002432797569781542
1768421482463101700,1.369101806640625,-0.013133911415934563,-0.003918308764696121,0.004920456558465958
1768421482473101600,1.3791015625,-0.013114203698933125,-0.0062096924521028996,0.008300806395709515
1768421482483101700,1.389101806640625,-0.013529391027987003,-0.009502691216766834,0.007712514605373144
1768421482493101600,1.3991015625,-0.014932876452803612,-0.009591108188033104,0.006421680096536875
1768421482503101700,1.409101806640625,-0.010425209999084473,-0.011740812100470066,0.01224654633551836
1768421482513101600,1.4191015625,-0.009228652343153954,-0.008167382329702377,0.017617076635360718
1768421482523101700,1.429101806640625,-0.007406517397612333,-0.006975884083658457,0.022407304495573044
1768421482533101600,1.4391015625,-0.006719954311847687,-0.005498095881193876,0.02417937107384205
1768421482543101400,1.449101318359375,-0.00595642626285553,-0.006392918061465025,0.01878487318754196
1768421482553101600,1.4591015625,-0.006146309431642294,-0.0046639940701425076,0.010324010625481606
1768421482563101400,1.469101318359375,-0.006955111399292946,-0.003930825740098953,0.0031856733839958906
1768421482573100500,1.4791005859375,-0.007468302734196186,-0.0065348646603524685,-0.0023302659392356873
1768421482583100700,1.4891005859375,-0.009971939958631992,-0.0086041409522295,-0.006427805405110121
1768421482593100500,1.4991005859375,-0.011197260580956936,-0.006090116687119007,-0.006580937188118696
1768421482603100400,1.509100341796875,-0.011452125385403633,-0.006607835181057453,-0.005788114387542009
1768421482613100500,1.5191005859375,-0.011389008723199368,-0.004840028937906027,-0.00920521654188633
1768421482623100400,1.529100341796875,-0.012220713309943676,-0.004589425399899483,-0.01347319781780243
1768421482633100500,1.5391005859375,-0.010495251044631004,-0.004627774935215712,-0.011697934940457344
1768421482643100400,1.549100341796875,-0.010094712488353252,-0.0016961672808974981,-0.013406885787844658
1768421482653100500,1.5591005859375,-0.007690143771469593,0.0007470166892744601,-0.013495036400854588
1768421482663100400,1.569100341796875,-0.009383647702634335,0.0031902005430310965,-0.015307051129639149
1768421482673100800,1.579100830078125,-0.010616958141326904,0.004233094397932291,-0.018094049766659737
1768421482683100700,1.5891005859375,-0.0123645244166255,0.007955128327012062,-0.01950339414179325
1768421482693100800,1.599100830078125,-0.013440707698464394,0.008961004205048084,-0.022060826420783997
1768421482703100700,1.6091005859375,-0.015172028914093971,0.010870491154491901,-0.021348698064684868
1768421482713100500,1.6191005859375,-0.013831393793225288,0.009913084097206593,-0.02449415810406208
1768421482723100700,1.6291005859375,-0.014959774911403656,0.011317902244627476,-0.026700053364038467
1768421482733100500,1.6391005859375,-0.01654116064310074,0.011553592048585415,-0.030472155660390854
1768421482743100700,1.6491005859375,-0.01774251088500023,0.011562380008399487,-0.030009031295776367
1768421482753099800,1.659099853515625,-0.017224792391061783,0.01299489475786686,-0.029946446418762207
1768421482763099600,1.669099609375,-0.017976071685552597,0.013805028051137924,-0.027417775243520737
1768421482773099800,1.679099853515625,-0.015896940603852272,0.012479306198656559,-0.026308836415410042
1768421482783099600,1.689099609375,-0.016409067437052727,0.011996475048363209,-0.0261802040040493
1768421482793099500,1.699099609375,-0.013479323126375675,0.011926966719329357,-0.030670294538140297
1768421482803099600,1.709099609375,-0.012207929976284504,0.007987619377672672,-0.033792849630117416
1768421482813099500,1.719099609375,-0.010039851069450378,0.002900448627769947,-0.030605047941207886
1768421482823099600,1.729099609375,-0.010179400444030762,-0.003102316288277507,-0.027954669669270515
1768421482833099500,1.739099609375,-0.010038785636425018,-0.005873868241906166,-0.024344753473997116
1768421482843099600,1.749099609375,-0.01095544546842575,-0.011123225092887878,-0.02460973896086216
1768421482853099500,1.759099609375,-0.014035924337804317,-0.014698518440127373,-0.02359134517610073
1768421482863099600,1.769099609375,-0.013292902149260044,-0.01775156706571579,-0.021628595888614655
1768421482873099500,1.779099609375,-0.01390010304749012,-0.011355718597769737,-0.01762906089425087
1768421482883099600,1.789099609375,-0.009857158176600933,-0.007211573887616396,-0.021045630797743797
1768421482893099500,1.799099609375,-0.01056183036416769,-0.006767358630895615,-0.02412877231836319
1768421482903099600,1.809099609375,-0.009850500151515007,-0.002141714096069336,-0.024930916726589203
1768421482913099500,1.819099609375,-0.009800433181226254,0.0020865867845714092,-0.020790498703718185
1768421482923098600,1.8290986328125,-0.012523781508207321,0.0054245926439762115,-0.02153165638446808
1768421482933098500,1.839098388671875,-0.01715262234210968,0.006382265593856573,-0.024296285584568977
1768421482943098600,1.8490986328125,-0.020354274660348892,0.0028040423057973385,-0.02635171264410019
1768421482953098500,1.859098388671875,-0.02021685428917408,-0.0029348034877330065,-0.029572272673249245
1768421482963098600,1.8690986328125,-0.016989368945360184,-0.008532501757144928,-0.029824474826455116
1768421482973098500,1.879098388671875,-0.01703277975320816,-0.01769031397998333,-0.026571156457066536
1768421482983098600,1.8890986328125,-0.016463927924633026,-0.024393755942583084,-0.022588400170207024
1768421482993098500,1.899098388671875,-0.01751614362001419,-0.029225530102849007,-0.022953785955905914
1768421483003098400,1.909098388671875,-0.016653811559081078,-0.029454294592142105,-0.0278614591807127
1768421483013098500,1.919098388671875,-0.016538230702280998,-0.02911500819027424,-0.033117737621068954
1768421483023098600,1.9290986328125,-0.015056180767714977,-0.02876453660428524,-0.03304477035999298
1768421483033098800,1.9390986328125,-0.016437295824289322,-0.030223149806261063,-0.0328972302377224
1768421483043098600,1.9490986328125,-0.015895342454314232,-0.02761458419263363,-0.03038267232477665
1768421483053098800,1.9590986328125,-0.017465543001890182,-0.028131237253546715,-0.029280390590429306
1768421483063098600,1.9690986328125,-0.01872388646006584,-0.029353095218539238,-0.02803562954068184
1768421483073098800,1.9790986328125,-0.02136307954788208,-0.03063434176146984,-0.027274496853351593
1768421483083098600,1.9890986328125,-0.021634455770254135,-0.030355243012309074,-0.02846945822238922
1768421483093098800,1.9990986328125,-0.022037390619516373,-0.03313984349370003,-0.028652682900428772
1768421483103097600,2.00909765625,-0.022607307881116867,-0.03543868288397789,-0.028659608215093613
1768421483113097700,2.01909765625,-0.02220996469259262,-0.037147633731365204,-0.02924497053027153
1768421483123097600,2.02909765625,-0.019514046609401703,-0.0432761013507843,-0.030225014314055443
1768421483133097700,2.03909765625,-0.01654009521007538,-0.06203088164329529,-0.03164687380194664
1768421483143097600,2.04909765625,-0.013846307061612606,-0.08651811629533768,-0.03442908078432083
1768421483153097700,2.05909765625,-0.012370117008686066,-0.12053041160106659,-0.03912476450204849
1768421483163097600,2.06909765625,-0.01786128804087639,-0.1542111337184906,-0.048231445252895355
1768421483173097700,2.07909765625,-0.025081651285290718,-0.18943729996681213,-0.05457695946097374
1768421483183097600,2.08909765625,-0.027393806725740433,-0.22960443794727325,-0.0580502524971962
1768421483193097500,2.099097412109375,-0.02725878544151783,-0.262596994638443,-0.0675010159611702
1768421483203097600,2.10909765625,-0.023813188076019287,-0.29130932688713074,-0.07468994706869125
1768421483213097500,2.119097412109375,-0.023853667080402374,-0.31561148166656494,-0.08068366348743439
1768421483223097600,2.12909765625,-0.02978452667593956,-0.34588682651519775,-0.08920444548130035
1768421483233097500,2.139097412109375,-0.03928721696138382,-0.3679409921169281,-0.10237190872430801
1768421483243097600,2.14909765625,-0.04222681745886803,-0.3856632709503174,-0.10992703586816788
1768421483253097500,2.159097412109375,-0.04692782834172249,-0.40048348903656006,-0.10658343136310577
1768421483263097600,2.16909765625,-0.04969245567917824,-0.40685564279556274,-0.09616115689277649
1768421483273096400,2.179096435546875,-0.04368169978260994,-0.41008260846138,-0.08519052714109421
1768421483283096600,2.1890966796875,-0.0362355038523674,-0.41191723942756653,-0.08500464260578156
1768421483293096400,2.199096435546875,-0.02793150022625923,-0.4065600335597992,-0.09470760077238083
1768421483303096600,2.2090966796875,-0.016042083501815796,-0.3916513919830322,-0.10628063231706619
1768421483313096400,2.219096435546875,-0.010033459402620792,-0.3667289912700653,-0.11409647762775421
1768421483323096600,2.2290966796875,-0.010415889322757721,-0.34720030426979065,-0.11136887222528458
1768421483333096400,2.239096435546875,-0.012901417911052704,-0.33031001687049866,-0.09678593277931213
1768421483343096600,2.2490966796875,-0.023661652579903603,-0.32591044902801514,-0.0767885223031044
1768421483353096400,2.259096435546875,-0.0370781272649765,-0.3253075182437897,-0.06795481592416763
1768421483363096600,2.2690966796875,-0.049669817090034485,-0.3266582787036896,-0.06897347420454025
1768421483373096400,2.279096435546875,-0.05471064895391464,-0.32719144225120544,-0.07252001017332077
1768421483383096600,2.2890966796875,-0.06103752180933952,-0.32638129591941833,-0.07033461332321167
1768421483393096400,2.299096435546875,-0.057430803775787354,-0.3316445052623749,-0.0625496655702591
1768421483403096300,2.309096435546875,-0.05399159714579582,-0.3425983488559723,-0.0498165600001812
1768421483413096400,2.319096435546875,-0.04298128932714462,-0.3580358922481537,-0.03051742911338806
1768421483423096300,2.329096435546875,-0.042823631316423416,-0.3678760230541229,-0.008444084785878658
1768421483433096400,2.339096435546875,-0.041675273329019547,-0.3902803957462311,0.013683588244020939
1768421483443096300,2.349096435546875,-0.04683834686875343,-0.4165641963481903,0.04099616780877113
1768421483453095400,2.359095458984375,-0.051841892302036285,-0.45626553893089294,0.06662856042385101
1768421483463095600,2.369095458984375,-0.060377322137355804,-0.5123831629753113,0.09529722481966019
1768421483473095400,2.379095458984375,-0.07362309098243713,-0.5850560069084167,0.13326910138130188
1768421483483095300,2.38909521484375,-0.07894647866487503,-0.6596788167953491,0.17789968848228455
1768421483493095400,2.399095458984375,-0.07430592179298401,-0.7294281125068665,0.20316803455352783
1768421483503095600,2.409095458984375,-0.06457260251045227,-0.7812247276306152,0.20253339409828186
1768421483513095700,2.419095703125,-0.042343996465206146,-0.8134950399398804,0.1951950639486313
1768421483523095600,2.429095458984375,-0.017740914598107338,-0.8311020135879517,0.18169842660427094
1768421483533095700,2.439095703125,0.0086629968136549,-0.830489993095398,0.16441930830478668
1768421483543095600,2.449095458984375,0.020838169381022453,-0.8061755895614624,0.15129683911800385
1768421483553095700,2.459095703125,0.03671513870358467,-0.7620768547058105,0.14319416880607605
1768421483563095600,2.469095458984375,0.06496009230613708,-0.682087242603302,0.13178706169128418
1768421483573095700,2.479095703125,0.09685038030147552,-0.5731375813484192,0.12081670016050339
1768421483583095600,2.489095458984375,0.12724582850933075,-0.4553145170211792,0.12159620970487595
1768421483593095400,2.499095458984375,0.14119014143943787,-0.3451504707336426,0.13087359070777893
1768421483603095600,2.509095458984375,0.13336871564388275,-0.2504545748233795,0.12928368151187897
1768421483613094700,2.5190947265625,0.11562353372573853,-0.18689104914665222,0.11973918229341507
1768421483623094500,2.529094482421875,0.08997702598571777,-0.14569275081157684,0.11158724874258041
1768421483633094700,2.5390947265625,0.06186842918395996,-0.13140462338924408,0.10933714359998703
1768421483643094500,2.549094482421875,0.03586745262145996,-0.13223926723003387,0.11293773353099823
1768421483653094700,2.5590947265625,0.015624233521521091,-0.15394003689289093,0.11898311227560043
1768421483663094500,2.569094482421875,0.008360461331903934,-0.18130934238433838,0.141550213098526
1768421483673094400,2.579094482421875,0.0037207023706287146,-0.2023051679134369,0.17746320366859436
1768421483683094500,2.589094482421875,0.003808320267125964,-0.2148481160402298,0.21512162685394287
1768421483693094400,2.599094482421875,0.01227530837059021,-0.21858321130275726,0.24332796037197113
1768421483703094500,2.609094482421875,0.024537034332752228,-0.21997523307800293,0.2491467148065567
1768421483713094400,2.619094482421875,0.03819745406508446,-0.22005033493041992,0.23089607059955597
1768421483723094500,2.629094482421875,0.05506804585456848,-0.22289645671844482,0.2038916051387787
1768421483733094400,2.639094482421875,0.07038787752389908,-0.22684459388256073,0.1854657381772995
1768421483743094500,2.649094482421875,0.08162348717451096,-0.2298172116279602,0.17426954209804535
1768421483753094400,2.659094482421875,0.08573780953884125,-0.23208916187286377,0.16975946724414825
1768421483763094500,2.669094482421875,0.09149742871522903,-0.2254355251789093,0.17314355075359344
1768421483773094400,2.679094482421875,0.10110611468553543,-0.20777636766433716,0.18188777565956116
1768421483783094500,2.689094482421875,0.10664814710617065,-0.18967671692371368,0.18978777527809143
1768421483793093400,2.69909326171875,0.12105877697467804,-0.1563400775194168,0.20958279073238373
1768421483803093500,2.709093505859375,0.1146051436662674,-0.1605345457792282,0.21202996373176575
1768421483813093400,2.71909326171875,0.10414397716522217,-0.14190760254859924,0.19726833701133728
1768421483823093500,2.729093505859375,0.10697944462299347,-0.1158062294125557,0.17918573319911957
1768421483833093400,2.73909326171875,0.1059274971485138,-0.09212566912174225,0.16677486896514893
1768421483843093500,2.749093505859375,0.1064329668879509,-0.06838598102331161,0.1717299520969391
1768421483853093600,2.75909375,0.10831102728843689,-0.041845984756946564,0.18553657829761505
1768421483863093500,2.769093505859375,0.1146666631102562,-0.0159523356705904,0.20096826553344727
1768421483873093600,2.77909375,0.11786937713623047,0.00833649281412363,0.20547299087047577
1768421483883093500,2.789093505859375,0.11326690018177032,0.02213859185576439,0.19476363062858582
1768421483893093600,2.79909375,0.09791325032711029,0.03435557708144188,0.17765334248542786
1768421483903093500,2.809093505859375,0.08701399713754654,0.048523593693971634,0.16867876052856445
1768421483913093600,2.81909375,0.08134039491415024,0.06257283687591553,0.1688329577445984
1768421483923093500,2.829093505859375,0.08452793210744858,0.0657995194196701,0.1647958755493164
1768421483933093600,2.83909375,0.089978888630867,0.05619030073285103,0.14864246547222137
1768421483943093500,2.849093505859375,0.10017480701208115,0.03699503466486931,0.132904514670372
1768421483953093600,2.85909375,0.10342679172754288,0.015536881983280182,0.12309157103300095
1768421483963092500,2.869092529296875,0.1085168868303299,0.0004442152567207813,0.12300422042608261
1768421483973092600,2.879092529296875,0.11558225750923157,-0.011559717357158661,0.13351811468601227
1768421483983092500,2.889092529296875,0.14024366438388824,-0.01883041299879551,0.12141111493110657
1768421483993092600,2.899092529296875,0.1684659719467163,-0.025896312668919563,0.08149752020835876
1768421484003092500,2.909092529296875,0.19589680433273315,-0.03617637977004051,0.03910292685031891
1768421484013092600,2.919092529296875,0.2203773707151413,-0.04267875477671623,0.011420433409512043
1768421484023092500,2.929092529296875,0.2393966019153595,-0.05459346994757652,-0.0025150892324745655
1768421484033092600,2.939092529296875,0.25408634543418884,-0.07258418947458267,-0.0049127331003546715
1768421484043092500,2.949092529296875,0.27369600534439087,-0.10256019979715347,-0.006068279035389423
1768421484053092400,2.95909228515625,0.29666414856910706,-0.14106471836566925,-0.019152656197547913
1768421484063092500,2.969092529296875,0.3150902986526489,-0.18633311986923218,-0.03611805662512779
1768421484073092400,2.97909228515625,0.32168108224868774,-0.23626233637332916,-0.04941335693001747
1768421484083092500,2.989092529296875,0.32803991436958313,-0.2813746929168701,-0.04868524894118309
1768421484093092400,2.99909228515625,0.3492874205112457,-0.2608073651790619,-0.008871521800756454
1768421484103092500,3.009092529296875,0.4275292158126831,-0.1663530319929123,0.10993928462266922
1768421484113092400,3.01909228515625,0.48869726061820984,-0.32664284110069275,0.2560823857784271
1768421484123091500,3.029091552734375,0.4327087998390198,-0.6774296164512634,0.3076566159725189
1768421484133091300,3.03909130859375,0.2087300419807434,-1.1040128469467163,0.16185201704502106
1768421484143091500,3.049091552734375,0.0027659591287374496,-1.2885017395019531,-0.07739865034818649
1768421484153091300,3.05909130859375,-0.13108931481838226,-1.294689416885376,-0.18010158836841583
1768421484163091500,3.069091552734375,-0.2379838079214096,-1.2954901456832886,-0.17545543611049652
1768421484173091300,3.07909130859375,-0.24614426493644714,-1.2336033582687378,-0.15947887301445007
1768421484183091500,3.089091552734375,-0.08906622976064682,-1.0248078107833862,-0.13564224541187286
1768421484193091300,3.09909130859375,0.14165513217449188,-0.6935998201370239,-0.11873170733451843
1768421484203091700,3.109091796875,0.3862081468105316,-0.34268730878829956,-0.16643372178077698
1768421484213091600,3.119091552734375,0.5829861760139465,-0.0383836068212986,-0.24751152098178864
1768421484223091700,3.129091796875,0.708255410194397,0.16304484009742737,-0.3045247495174408
1768421484233091600,3.139091552734375,0.7419212460517883,0.23855584859848022,-0.3549213409423828
1768421484243091500,3.149091552734375,0.6828853487968445,0.18377888202667236,-0.4348859488964081
1768421484253091600,3.159091552734375,0.5495254397392273,0.06568766385316849,-0.5090121030807495
1768421484263091500,3.169091552734375,0.39344504475593567,-0.037820082157850266,-0.5091841220855713
1768421484273091600,3.179091552734375,0.2575830817222595,-0.11637295037508011,-0.40715524554252625
1768421484283091500,3.189091552734375,0.16853441298007965,-0.16552051901817322,-0.25123703479766846
1768421484293090600,3.199090576171875,0.11536600440740585,-0.19181470572948456,-0.11021172255277634
1768421484303090700,3.209090576171875,0.09770286083221436,-0.19448266923427582,-0.04053251072764397
1768421484313090600,3.219090576171875,0.10187709331512451,-0.1938786655664444,-0.056225720793008804
1768421484323090400,3.22909033203125,0.12179753929376602,-0.21865271031856537,-0.1067618653178215
1768421484333090600,3.239090576171875,0.14086364209651947,-0.25905871391296387,-0.11257341504096985
1768421484343090400,3.24909033203125,0.15123532712459564,-0.29563379287719727,-0.08153880387544632
1768421484353090600,3.259090576171875,0.1388992965221405,-0.3335563838481903,-0.06431986391544342
1768421484363090400,3.26909033203125,0.12281300127506256,-0.3724129796028137,-0.08692451566457748
1768421484373090000,3.279090087890625,0.10143820941448212,-0.4176768660545349,-0.1399690806865692
1768421484383090000,3.28908984375,0.07964076846837997,-0.4658481180667877,-0.19893333315849304
1768421484393090300,3.29909033203125,0.06287962943315506,-0.5057151317596436,-0.240049347281456
1768421484403090200,3.309090087890625,0.05128689110279083,-0.5411058664321899,-0.2518625855445862
1768421484413090300,3.31909033203125,0.04723808541893959,-0.5793307423591614,-0.24525582790374756
1768421484423090200,3.329090087890625,0.052204083651304245,-0.6206949353218079,-0.22622381150722504
1768421484433090300,3.33909033203125,0.05396150052547455,-0.6514813899993896,-0.19269195199012756
1768421484443089200,3.349089111328125,0.05874054506421089,-0.672389566898346,-0.16347600519657135
1768421484453089300,3.35908935546875,0.07452856004238129,-0.6824073195457458,-0.1466328501701355
1768421484463089200,3.369089111328125,0.11715511977672577,-0.6946485638618469,-0.13995710015296936
1768421484473089300,3.37908935546875,0.16586913168430328,-0.7019104361534119,-0.14521445333957672
1768421484483089200,3.389089111328125,0.1530177742242813,-0.7026380300521851,-0.14829519391059875
1768421484493089300,3.39908935546875,0.12858887016773224,-0.7170012593269348,-0.14689597487449646
1768421484503089200,3.409089111328125,0.10942449420690536,-0.7316526174545288,-0.1650581955909729
1768421484513089300,3.41908935546875,0.0868813693523407,-0.7343330979347229,-0.19538547098636627
1768421484523089200,3.429089111328125,0.04331444948911667,-0.7430371046066284,-0.22802864015102386
1768421484533089300,3.43908935546875,0.012111524119973183,-0.7568807601928711,-0.2630111277103424
1768421484543089200,3.449089111328125,-0.01429265271872282,-0.7669618725776672,-0.2911168038845062
1768421484553089000,3.459089111328125,-0.04000094532966614,-0.7802278995513916,-0.30526137351989746
1768421484563089200,3.469089111328125,-0.06502719968557358,-0.7975570559501648,-0.30201950669288635
1768421484573089000,3.479089111328125,-0.08959486335515976,-0.8296694755554199,-0.2909729778766632
1768421484583089200,3.489089111328125,-0.11300831288099289,-0.8628208041191101,-0.2780632972717285
1768421484593089000,3.499089111328125,-0.13269492983818054,-0.9014275670051575,-0.25764378905296326
1768421484603089200,3.509089111328125,-0.1518518477678299,-0.9264373183250427,-0.22212360799312592
1768421484613088300,3.519088134765625,-0.15919683873653412,-0.9281505346298218,-0.18378527462482452
1768421484623088000,3.529088134765625,-0.16399799287319183,-0.927252471446991,-0.15720106661319733
1768421484633088000,3.539087890625,-0.1672278791666031,-0.9302461743354797,-0.1512148231267929
1768421484643088100,3.549088134765625,-0.17055176198482513,-0.9549430012702942,-0.14769092202186584
1768421484653088000,3.559087890625,-0.18151919543743134,-0.9836404323577881,-0.13815653324127197
1768421484663088000,3.569088134765625,-0.19393537938594818,-1.0227329730987549,-0.12701387703418732
1768421484673088000,3.579087890625,-0.20326310396194458,-1.0420584678649902,-0.10813632607460022
1768421484683088100,3.589088134765625,-0.2127697914838791,-1.0454944372177124,-0.08291485905647278
1768421484693088000,3.599087890625,-0.224897563457489,-1.0533092021942139,-0.06035628542304039
1768421484703088000,3.609088134765625,-0.24511894583702087,-1.0544780492782593,-0.047200269997119904
1768421484713088000,3.619087890625,-0.27164268493652344,-1.0528894662857056,-0.03828134387731552
1768421484723088100,3.629088134765625,-0.3002817928791046,-1.055092453956604,-0.04085448756814003
1768421484733088000,3.639087890625,-0.32572802901268005,-1.0621641874313354,-0.05974828451871872
1768421484743088000,3.649088134765625,-0.34095945954322815,-1.0628148317337036,-0.07460925728082657
1768421484753088300,3.659088134765625,-0.35064804553985596,-1.088468074798584,-0.06415262073278427
1768421484763088100,3.669088134765625,-0.36431989073753357,-1.1114505529403687,-0.04228886589407921
1768421484773087000,3.6790869140625,-0.37524792551994324,-1.1416229009628296,-0.013510748744010925
1768421484783087400,3.68908740234375,-0.38612693548202515,-1.1675620079040527,0.016226107254624367
1768421484793087200,3.699087158203125,-0.4005029499530792,-1.1951606273651123,0.03256247192621231
1768421484803087400,3.70908740234375,-0.40632861852645874,-1.2181777954101562,0.04382657632231712
1768421484813087200,3.719087158203125,-0.4023652970790863,-1.2268551588058472,0.04856806993484497
1768421484823087000,3.729087158203125,-0.37972548604011536,-1.2258285284042358,0.03411083295941353
1768421484833087200,3.739087158203125,-0.3488836884498596,-1.2269984483718872,-0.003433613572269678
1768421484843087000,3.749087158203125,-0.3133549988269806,-1.2280887365341187,-0.0601847767829895
1768421484853087200,3.759087158203125,-0.275373250246048,-1.2123425006866455,-0.11886140704154968
1768421484863087000,3.769087158203125,-0.21778719127178192,-1.1479358673095703,-0.138340562582016
1768421484873087200,3.779087158203125,-0.07163077592849731,-0.8810663819313049,0.010656372644007206
1768421484883087000,3.789087158203125,0.20064175128936768,-0.5621570944786072,0.5182777643203735
1768421484893087200,3.799087158203125,0.5993446707725525,-0.5426515340805054,0.816366970539093
1768421484903087000,3.809087158203125,0.6845138669013977,-0.24607448279857635,0.45106279850006104
1768421484913087200,3.819087158203125,0.48393070697784424,0.08839031308889389,0.0009235842735506594
1768421484923087000,3.829087158203125,0.2899385988712311,0.2354106605052948,-0.3017595708370209
1768421484933086200,3.839086181640625,0.25588902831077576,0.2576323449611664,-0.4015953540802002
1768421484943086000,3.849086181640625,0.2097923755645752,0.15951189398765564,-0.40387263894081116
1768421484953086200,3.859086181640625,0.13080328702926636,-0.07500127702951431,-0.3668126165866852
1768421484963086000,3.869086181640625,0.061590392142534256,-0.38153642416000366,-0.24471840262413025
1768421484973086200,3.879086181640625,0.017343835905194283,-0.6722162365913391,-0.005628058221191168
1768421484983086000,3.889086181640625,-0.009252620860934258,-0.8352125883102417,0.30261898040771484
1768421484993086200,3.899086181640625,0.01546204648911953,-0.8933494091033936,0.5151951909065247
1768421485003086000,3.909086181640625,0.08899804949760437,-0.8424510359764099,0.5273327827453613
1768421485013086200,3.919086181640625,0.2461722195148468,-0.7159045934677124,0.3770703077316284
1768421485023086000,3.929086181640625,0.38881218433380127,-0.5206807255744934,0.17624826729297638
1768421485033086000,3.9390859375,0.41545340418815613,-0.32423585653305054,0.027344539761543274
1768421485043086000,3.949086181640625,0.37934252619743347,-0.14122450351715088,-0.11242134869098663
1768421485053086000,3.9590859375,0.3235650062561035,0.02213672734797001,-0.2947741150856018
1768421485063086000,3.969086181640625,0.2204096019268036,0.15526574850082397,-0.4774762988090515
1768421485073086000,3.9790859375,0.06895855814218521,0.25210946798324585,-0.577194333076477
1768421485083086300,3.98908642578125,-0.0761893093585968,0.31568312644958496,-0.536329984664917
1768421485093085000,3.9990849609375,-0.1947455108165741,0.38200780749320984,-0.3745264708995819
1768421485103085000,4.0090849609375,-0.2820862829685211,0.42821258306503296,-0.159074068069458
1768421485113085000,4.0190849609375,-0.3680610954761505,0.45712974667549133,0.03050970658659935
1768421485123085000,4.0290849609375,-0.44192415475845337,0.483722984790802,0.15025128424167633
1768421485133085200,4.039085205078125,-0.48172029852867126,0.5253461003303528,0.18521273136138916
1768421485143085300,4.049085205078125,-0.47596946358680725,0.5830109715461731,0.1537322998046875
1768421485153085200,4.059085205078125,-0.4521208703517914,0.6291710138320923,0.08442513644695282
1768421485163085300,4.069085205078125,-0.4250255823135376,0.6657710671424866,0.031250063329935074
1768421485173085200,4.079085205078125,-0.40307527780532837,0.6760860681533813,0.005991047248244286
1768421485183085300,4.089085205078125,-0.38312873244285583,0.6958214044570923,0.012327239848673344
1768421485193085200,4.099085205078125,-0.3604559302330017,0.7189602851867676,0.039687223732471466
1768421485203085300,4.109085205078125,-0.3352302014827728,0.7168976664543152,0.08655353635549545
1768421485213085200,4.119085205078125,-0.32775869965553284,0.6779769062995911,0.15023930370807648
1768421485223085000,4.1290849609375,-0.31343355774879456,0.6187852025032043,0.21279242634773254
1768421485233085200,4.139085205078125,-0.3106550872325897,0.5588257312774658,0.2428475320339203
1768421485243084300,4.149084228515625,-0.28569725155830383,0.5403620600700378,0.24128319323062897
1768421485253084200,4.159084228515625,-0.24703988432884216,0.5447221398353577,0.21166111528873444
1768421485263084300,4.169084228515625,-0.2056889832019806,0.5475972890853882,0.16540467739105225
1768421485273084200,4.179084228515625,-0.16672825813293457,0.5943701267242432,0.11144210398197174
1768421485283084000,4.189083984375,-0.10771235078573227,0.6221210956573486,0.06329455226659775
1768421485293084200,4.199084228515625,-0.051470380276441574,0.6263336539268494,0.03290655091404915
1768421485303084000,4.209083984375,-0.01859845221042633,0.6433611512184143,0.012775716371834278
1768421485313084200,4.219084228515625,0.005643771030008793,0.6441089510917664,0.00008442220860160887
1768421485323084000,4.229083984375,0.013817012310028076,0.6306511759757996,-0.020434968173503876
1768421485333084200,4.239084228515625,0.024881647899746895,0.6136333346366882,-0.03068520873785019
1768421485343084000,4.249083984375,0.035962529480457306,0.6179599165916443,-0.02473197877407074
1768421485353084200,4.259084228515625,0.03819612041115761,0.649145781993866,-0.008111988194286823
1768421485363084000,4.269083984375,0.02785852923989296,0.6898998618125916,-0.0016713999211788177
1768421485373084700,4.279084716796875,0.05360011011362076,0.7514316439628601,-0.015335546806454659
1768421485383084500,4.28908447265625,0.0870392918586731,0.8091426491737366,-0.06144658103585243
1768421485393084400,4.29908447265625,0.11772876232862473,0.8300036787986755,-0.12962670624256134
1768421485403083500,4.30908349609375,0.11717908829450607,0.7993025183677673,-0.17903739213943481
1768421485413083600,4.319083740234375,0.08445069938898087,0.7519637942314148,-0.15511049330234528
1768421485423083500,4.32908349609375,0.05927557498216629,0.7139341235160828,-0.04665139317512512
1768421485433083600,4.339083740234375,0.06623361259698868,0.6761819124221802,0.043241746723651886
1768421485443083500,4.34908349609375,0.09886585921049118,0.6559509634971619,0.010843592695891857
1768421485453083400,4.35908349609375,0.12047687917947769,0.6453004479408264,-0.1494842916727066
1768421485463083500,4.36908349609375,0.09792070090770721,0.6397789120674133,-0.3730414807796478
1768421485473083400,4.37908349609375,0.028717398643493652,0.6692600846290588,-0.5464676022529602
1768421485483083500,4.38908349609375,-0.06945870071649551,0.7234410643577576,-0.611335277557373
1768421485493083400,4.39908349609375,-0.17320480942726135,0.8804541230201721,-0.5914124250411987
1768421485503083500,4.40908349609375,-0.20073576271533966,1.0553559064865112,-0.5073798298835754
1768421485513083400,4.41908349609375,-0.15467026829719543,1.2035906314849854,-0.3792349398136139
1768421485523083500,4.42908349609375,-0.10317005962133408,1.1382166147232056,-0.1299995481967926
1768421485533083400,4.43908349609375,-0.24121367931365967,0.8520395159721375,-0.05456071346998215
1768421485543083500,4.44908349609375,-0.6121094822883606,0.5292845964431763,-0.22130948305130005
1768421485553082400,4.459082275390625,-0.8098808526992798,0.4353163242340088,-0.25913941860198975
1768421485563082500,4.46908251953125,-0.8157416582107544,0.4374931752681732,-0.12830311059951782
1768421485573082400,4.479082275390625,-0.6888822913169861,0.5180948376655579,-0.05883455276489258
1768421485583082500,4.48908251953125,-0.472736656665802,0.7128714919090271,-0.07137937098741531
1768421485593082400,4.499082275390625,-0.21844498813152313,0.9749624729156494,-0.15015727281570435
1768421485603082500,4.50908251953125,0.0009206547983922064,1.2405579090118408,-0.27461424469947815
1768421485613082400,4.519082275390625,0.164510115981102,1.4350395202636719,-0.36505600810050964
1768421485623082500,4.52908251953125,0.2808023691177368,1.541478157043457,-0.38757088780403137
1768421485633082600,4.53908251953125,0.32162463665008545,1.5515393018722534,-0.34813612699508667
1768421485643082500,4.54908251953125,0.28021806478500366,1.4466735124588013,-0.2654676139354706
1768421485653082600,4.55908251953125,0.1923699826002121,1.2747502326965332,-0.15155810117721558
1768421485663082500,4.56908251953125,0.11769946664571762,1.1059855222702026,0.055939432233572006
1768421485673082600,4.57908251953125,0.08992216736078262,0.9447611570358276,0.37222203612327576
1768421485683082500,4.58908251953125,0.08622489869594574,0.7742887735366821,0.6578463315963745
1768421485693082600,4.59908251953125,0.11485973745584488,0.613577663898468,0.75755375623703
1768421485703082500,4.60908251953125,0.17895910143852234,0.5278611779212952,0.6390984654426575
1768421485713081600,4.61908154296875,0.2557761073112488,0.5311682820320129,0.3754841387271881
1768421485723081500,4.62908154296875,0.3049343526363373,0.5756452083587646,0.06258215755224228
1768421485733081600,4.63908154296875,0.30609893798828125,0.6152725219726562,-0.19394896924495697
1768421485743081500,4.64908154296875,0.28133153915405273,0.6709738373756409,-0.3413828909397125
1768421485753081600,4.65908154296875,0.21754030883312225,0.7338913083076477,-0.3720302879810333
1768421485763081500,4.66908154296875,0.13142140209674835,0.7867558598518372,-0.2906494140625
1768421485773081600,4.67908154296875,0.0740814208984375,0.840351402759552,-0.13285845518112183
1768421485783081500,4.68908154296875,0.049202967435121536,0.9038457274436951,0.051418185234069824
1768421485793081600,4.69908154296875,0.04132533445954323,0.9489239454269409,0.21718531847000122
1768421485803081500,4.70908154296875,0.04597974196076393,0.9751529097557068,0.34872549772262573
1768421485813081600,4.71908154296875,0.054358579218387604,0.9912629127502441,0.4270155131816864
1768421485823081500,4.72908154296875,0.05373327061533928,0.9986041784286499,0.4588637053966522
1768421485833081600,4.73908154296875,0.03195340558886528,0.9865807890892029,0.44860920310020447
1768421485843081500,4.74908154296875,-0.014246580190956593,0.9590117335319519,0.41359689831733704
1768421485853081300,4.759081298828125,-0.05920393392443657,0.9168435335159302,0.3705924451351166
1768421485863080400,4.76908056640625,-0.08973094820976257,0.8754563927650452,0.3222147822380066
1768421485873080600,4.77908056640625,-0.10295514017343521,0.8155035972595215,0.2810590863227844
1768421485883080400,4.78908056640625,-0.10282651335000992,0.750085711479187,0.24456101655960083
1768421485893080600,4.79908056640625,-0.10466302931308746,0.6749813556671143,0.2078794240951538
1768421485903080400,4.80908056640625,-0.12145932018756866,0.5813955068588257,0.1564236879348755
1768421485913080600,4.81908056640625,-0.16075532138347626,0.48947516083717346,0.08891415596008301
1768421485923080400,4.82908056640625,-0.2198902815580368,0.4120043218135834,0.019519371911883354
1768421485933080300,4.839080322265625,-0.27167171239852905,0.3490549325942993,-0.0495731458067894
1768421485943080400,4.84908056640625,-0.29941466450691223,0.28389644622802734,-0.11530821770429611
1768421485953080300,4.859080322265625,-0.3141222596168518,0.17557315528392792,-0.169158935546875
1768421485963080400,4.86908056640625,-0.3615715205669403,0.13758742809295654,-0.1503112018108368
1768421485973080300,4.879080322265625,-0.41489359736442566,0.1807687133550644,-0.03873487934470177
1768421485983080700,4.889080810546875,-0.44257980585098267,0.28616490960121155,0.055384695529937744
1768421485993080600,4.89908056640625,-0.4647761881351471,0.35364940762519836,0.06966563314199448
1768421486003080700,4.909080810546875,-0.46815043687820435,0.2797967493534088,0.031251661479473114
1768421486013079300,4.919079345703125,-0.4342454671859741,0.2052876353263855,0.02106107585132122
1768421486023079400,4.929079345703125,-0.3780069649219513,0.2252855896949768,0.047086287289857864
1768421486033079600,4.93907958984375,-0.3000200092792511,0.29529982805252075,0.05180460959672928
1768421486043079700,4.94907958984375,-0.21604494750499725,0.3223085403442383,0.019298862665891647
1768421486053079600,4.95907958984375,-0.18722209334373474,0.29338979721069336,-0.015231417492032051
1768421486063079700,4.96907958984375,-0.2166721224784851,0.22833596169948578,-0.00926433876156807
1768421486073079600,4.97907958984375,-0.22353161871433258,0.29753100872039795,0.11621901392936707
1768421486083079700,4.98907958984375,-0.11333055049180984,0.5497904419898987,0.35202327370643616
1768421486093079600,4.99907958984375,0.1343279778957367,0.6290950775146484,0.7152321338653564
1768421486103079700,5.00907958984375,0.2708357572555542,0.6062427759170532,0.7005242705345154
1768421486113079600,5.01907958984375,0.1823998987674713,0.7689270377159119,0.3834661543369293
1768421486123079400,5.029079345703125,0.07533283531665802,0.9229089021682739,0.05976719409227371
1768421486133079600,5.03907958984375,0.07179109752178192,1.1045641899108887,-0.12156478315591812
1768421486143079400,5.049079345703125,0.08040083199739456,1.3180149793624878,-0.16334392130374908
1768421486153079600,5.05907958984375,0.015723036602139473,1.408856987953186,-0.1339106559753418
1768421486163078700,5.06907861328125,-0.025118403136730194,1.3514013290405273,-0.049910835921764374
1768421486173078500,5.07907861328125,-0.029627934098243713,1.2473479509353638,0.10922396183013916
1768421486183078400,5.089078369140625,-0.044378649443387985,1.1393181085586548,0.30832162499427795
1768421486193078500,5.09907861328125,-0.02858210913836956,0.9706388711929321,0.4431433379650116
1768421486203078400,5.109078369140625,-0.02660497836768627,0.7727715969085693,0.46036309003829956
1768421486213078500,5.11907861328125,-0.0856667011976242,0.6842020153999329,0.4305143654346466
1768421486223078400,5.129078369140625,-0.1298549324274063,0.6586647033691406,0.3950418531894684
1768421486233078500,5.13907861328125,-0.1150970309972763,0.6129925847053528,0.31423676013946533
1768421486243078400,5.149078369140625,-0.08106209337711334,0.5834064483642578,0.17255046963691711
1768421486253078500,5.15907861328125,-0.05794186145067215,0.5430699586868286,0.03578862547874451
1768421486263078400,5.169078369140625,-0.03159014880657196,0.44909870624542236,-0.035593681037425995
1768421486273078500,5.17907861328125,-0.012649482116103172,0.36707067489624023,-0.06600324809551239
1768421486283078400,5.189078369140625,0.0007121292874217033,0.3581632077693939,-0.07314158976078033
1768421486293078500,5.19907861328125,0.011808988638222218,0.4371967613697052,-0.05199103057384491
1768421486303078400,5.209078369140625,0.015219166874885559,0.5748978853225708,-0.010746121406555176
1768421486313077500,5.219077392578125,-0.006570817437022924,0.7233116030693054,0.052872270345687866
1768421486323077400,5.229077392578125,-0.048586443066596985,0.8463901281356812,0.11314493417739868
1768421486333077500,5.239077392578125,-0.10920265316963196,0.9335415363311768,0.1397738754749298
1768421486343077400,5.249077392578125,-0.19055956602096558,1.0045355558395386,0.11568532139062881
1768421486353077500,5.259077392578125,-0.2794974148273468,1.0861382484436035,0.05491890758275986
1768421486363077400,5.269077392578125,-0.3390851318836212,1.1788378953933716,-0.011625496670603752
1768421486373077200,5.2790771484375,-0.36130866408348083,1.2651959657669067,-0.06029742956161499
1768421486383077000,5.2890771484375,-0.36079439520835876,1.340516209602356,-0.0899093821644783
1768421486393077200,5.2990771484375,-0.3462301194667816,1.3927932977676392,-0.10049518197774887
1768421486403077400,5.309077392578125,-0.33334627747535706,1.4197399616241455,-0.08360834419727325
1768421486413077200,5.3190771484375,-0.32638823986053467,1.4321606159210205,-0.041917622089385986
1768421486423077400,5.329077392578125,-0.3189582824707031,1.429710865020752,0.023033414036035538
1768421486433077200,5.3390771484375,-0.30855995416641235,1.4165034294128418,0.08806753903627396
1768421486443077400,5.349077392578125,-0.29342254996299744,1.4049053192138672,0.1425478309392929
1768421486453077200,5.3590771484375,-0.2778497338294983,1.395706295967102,0.18225662410259247
1768421486463077400,5.369077392578125,-0.2712107300758362,1.3751170635223389,0.2047014832496643
1768421486473076200,5.379076171875,-0.2612909972667694,1.3335916996002197,0.21680821478366852
1768421486483076400,5.389076416015625,-0.2498423308134079,1.2907534837722778,0.23396721482276917
1768421486493076200,5.399076171875,-0.244644895195961,1.2738687992095947,0.2425394058227539
1768421486503076400,5.409076416015625,-0.24634186923503876,1.260242223739624,0.23545673489570618
1768421486513076200,5.419076171875,-0.24508938193321228,1.2413395643234253,0.21819385886192322
1768421486523076400,5.429076416015625,-0.2422054409980774,1.2047394514083862,0.19883666932582855
1768421486533076200,5.439076171875,-0.23454566299915314,1.1417032480239868,0.1623830497264862
1768421486543076400,5.449076416015625,-0.2279689908027649,1.0663012266159058,0.12871190905570984
1768421486553076200,5.459076171875,-0.21785829961299896,1.0087004899978638,0.11882998049259186
1768421486563076400,5.469076416015625,-0.20165695250034332,0.9632238149642944,0.12829884886741638
1768421486573076200,5.479076171875,-0.18883037567138672,0.9284027218818665,0.14546053111553192
1768421486583076400,5.489076416015625,-0.17213794589042664,0.8875647187232971,0.1675405353307724
1768421486593076200,5.499076171875,-0.1552569568157196,0.8311731219291687,0.19297078251838684
1768421486603076000,5.509076171875,-0.13319773972034454,0.7706961631774902,0.21749743819236755
1768421486613075200,5.5190751953125,-0.11705019325017929,0.7458161115646362,0.23731082677841187
1768421486623075300,5.529075439453125,-0.0923866555094719,0.7538762092590332,0.24253886938095093
1768421486633075200,5.5390751953125,-0.05953283607959747,0.8022961616516113,0.2221371978521347
1768421486643075300,5.549075439453125,-0.03364051878452301,0.8725280165672302,0.17598594725131989
1768421486653075200,5.5590751953125,-0.019960125908255577,0.9152962565422058,0.11661050468683243
1768421486663075300,5.569075439453125,-0.01251925341784954,0.926723837852478,0.07233251631259918
1768421486673075200,5.5790751953125,-0.0032503881957381964,0.9070755839347839,0.04766978323459625
1768421486683075000,5.589074951171875,0.02034415304660797,0.7904584407806396,0.028682777658104897
1768421486693075200,5.5990751953125,0.07291388511657715,0.6005619764328003,0.04412431642413139
1768421486703075000,5.609074951171875,0.0928572341799736,0.5367276072502136,0.09577632695436478
1768421486713075200,5.6190751953125,0.09686396270990372,0.46516501903533936,0.034339599311351776
1768421486723075000,5.629074951171875,0.06100769340991974,0.45948317646980286,-0.16323712468147278
1768421486733075200,5.6390751953125,-0.020380105823278427,0.4553406238555908,-0.42718276381492615
1768421486743075300,5.649075439453125,-0.13109463453292847,0.46332183480262756,-0.6202880144119263
1768421486753075500,5.659075439453125,-0.23730683326721191,0.5705750584602356,-0.653468906879425
1768421486763075300,5.669075439453125,-0.2838769853115082,0.847745954990387,-0.4791546165943146
1768421486773074200,5.67907421875,-0.19473113119602203,0.8965139985084534,-0.15102866291999817
1768421486783074300,5.68907421875,-0.19720947742462158,0.7007370591163635,0.019523100927472115
1768421486793074400,5.699074462890625,-0.42297229170799255,0.4378122389316559,-0.0719306468963623
1768421486803074300,5.70907421875,-0.5979641079902649,0.376423716545105,-0.19388984143733978
1768421486813074400,5.719074462890625,-0.6179380416870117,0.32674989104270935,-0.17078372836112976
1768421486823074300,5.72907421875,-0.6015050411224365,0.31917187571525574,-0.14408659934997559
1768421486833074400,5.739074462890625,-0.5524677038192749,0.4384106397628784,-0.24480149149894714
1768421486843074300,5.74907421875,-0.4238373041152954,0.7299511432647705,-0.4762994349002838
1768421486853074400,5.759074462890625,-0.23661519587039948,1.0372852087020874,-0.7665456533432007
1768421486863074300,5.76907421875,-0.030839139595627785,1.2474541664123535,-0.9060068726539612
1768421486873074200,5.77907421875,0.06773190945386887,1.3356757164001465,-0.7646798491477966
1768421486883074300,5.78907421875,0.0686325877904892,1.318302869796753,-0.44836100935935974
1768421486893074200,5.79907421875,-0.0022330605424940586,1.2648893594741821,-0.11577613651752472
1768421486903074300,5.80907421875,-0.0908510759472847,1.1366608142852783,0.13820527493953705
1768421486913074200,5.81907421875,-0.15955503284931183,0.9296285510063171,0.2935727536678314
1768421486923073300,5.8290732421875,-0.18332640826702118,0.6450309157371521,0.3779832422733307
1768421486933073400,5.839073486328125,-0.14382268488407135,0.3711162805557251,0.3965049982070923
1768421486943073300,5.8490732421875,-0.06070702150464058,0.18886925280094147,0.34218958020210266
1768421486953073200,5.8590732421875,0.041435856372117996,0.104314424097538,0.21341827511787415
1768421486963073300,5.8690732421875,0.1387333869934082,0.04963919147849083,0.0041638524271547794
1768421486973073200,5.8790732421875,0.20466366410255432,0.009503223933279514,-0.24811339378356934
1768421486983073300,5.8890732421875,0.22840601205825806,-0.0317281037569046,-0.4751790463924408
1768421486993073200,5.8990732421875,0.2263798713684082,-0.03970640152692795,-0.608803927898407
1768421487003073300,5.9090732421875,0.198993518948555,-0.04620131850242615,-0.6138940453529358
1768421487013073200,5.9190732421875,0.1811029464006424,-0.057133592665195465,-0.5071654915809631
1768421487023073300,5.9290732421875,0.18257459998130798,-0.03852182626724243,-0.3259280323982239
1768421487033073200,5.9390732421875,0.18081478774547577,0.01950659044086933,-0.13297270238399506
1768421487043073300,5.9490732421875,0.18183930218219757,0.04976675659418106,0.03676733374595642
1768421487053073200,5.9590732421875,0.17637290060520172,0.0953129380941391,0.17690686881542206
1768421487063073300,5.9690732421875,0.1556130349636078,0.14826563000679016,0.27613064646720886
1768421487073072000,5.979072021484375,0.11969923973083496,0.19131110608577728,0.3224653899669647
1768421487083072300,5.989072265625,0.07754325866699219,0.21154367923736572,0.32172611355781555
1768421487093072100,5.999072021484375,0.03189827874302864,0.2363709956407547,0.2846543788909912
1768421487103072300,6.009072265625,-0.00036751621519215405,0.24805347621440887,0.23258158564567566
1768421487113072000,6.019072021484375,-0.026672091335058212,0.24684014916419983,0.18520554900169373
1768421487123072300,6.029072265625,-0.04392431303858757,0.22848403453826904,0.13774588704109192
1768421487133072400,6.039072265625,-0.0637052059173584,0.23189395666122437,0.10657811164855957
1768421487143072300,6.049072265625,-0.08652104437351227,0.22839562594890594,0.10927215963602066
1768421487153072400,6.059072265625,-0.11270710825920105,0.21832408010959625,0.12532490491867065
1768421487163072300,6.069072265625,-0.13125255703926086,0.1930818408727646,0.14006975293159485
1768421487173072400,6.079072265625,-0.14700356125831604,0.15734142065048218,0.14127829670906067
1768421487183072300,6.089072265625,-0.15696537494659424,0.09963471442461014,0.14215421676635742
1768421487193072400,6.099072265625,-0.1713443249464035,0.01492089219391346,0.15236397087574005
1768421487203072300,6.109072265625,-0.18251575529575348,-0.09840460121631622,0.1604005992412567
1768421487213072400,6.119072265625,-0.18620263040065765,-0.2108461856842041,0.14518462121486664
1768421487223071200,6.1290712890625,-0.19003838300704956,-0.30297452211380005,0.08359503000974655
1768421487233071400,6.1390712890625,-0.2083156555891037,-0.3730233907699585,-0.004402471706271172
1768421487243071200,6.1490712890625,-0.24058304727077484,-0.40050721168518066,-0.05927850306034088
1768421487253071400,6.1590712890625,-0.2803501784801483,-0.3948858082294464,-0.059362657368183136
1768421487263071200,6.1690712890625,-0.3278713524341583,-0.3441120982170105,-0.02684599533677101
1768421487273071400,6.1790712890625,-0.3804943561553955,-0.28606292605400085,-0.007105313707143068
1768421487283071200,6.1890712890625,-0.4182837903499603,-0.30383020639419556,-0.04793982952833176
1768421487293071400,6.1990712890625,-0.40786924958229065,-0.37860721349716187,-0.13660044968128204
1768421487303071200,6.2090712890625,-0.35177481174468994,-0.36574122309684753,-0.18753793835639954
1768421487313071400,6.2190712890625,-0.244663804769516,-0.2836492955684662,-0.1930626630783081
1768421487323071200,6.2290712890625,-0.12446336448192596,-0.192377969622612,-0.2259388566017151
1768421487333071000,6.239071044921875,-0.015600265003740788,-0.11169217526912689,-0.28730207681655884
1768421487343071200,6.2490712890625,0.11321283876895905,-0.005106344819068909,-0.2238922119140625
1768421487353071000,6.259071044921875,0.2572179436683655,0.1977977603673935,0.18886259198188782
1768421487363071200,6.2690712890625,0.4597231149673462,0.09081565588712692,0.5840227007865906
1768421487373070300,6.2790703125,0.5076882243156433,0.21540206670761108,0.4877265393733978
1768421487383070200,6.2890703125,0.44919031858444214,0.37059298157691956,0.16776743531227112
1768421487393070300,6.2990703125,0.4158845543861389,0.5902433395385742,-0.04980936646461487
1768421487403070500,6.309070556640625,0.42648953199386597,0.7350087761878967,-0.06067293509840965
1768421487413070300,6.3190703125,0.46496129035949707,0.7521259784698486,-0.0032256206031888723
1768421487423070500,6.329070556640625,0.46310320496559143,0.6986371874809265,0.07599969208240509
1768421487433070300,6.3390703125,0.3879953920841217,0.47919243574142456,0.19231805205345154
1768421487443070500,6.349070556640625,0.2435237020254135,0.2145242840051651,0.33739906549453735
1768421487453070300,6.3590703125,0.06157654523849487,0.026758642867207527,0.425808310508728
1768421487463070500,6.369070556640625,-0.059838831424713135,-0.1440831422805786,0.3965763747692108
1768421487473070300,6.3790703125,-0.07537464797496796,-0.30087727308273315,0.2901199758052826
1768421487483070500,6.389070556640625,-0.04325825721025467,-0.3800983428955078,0.17760221660137177
1768421487493070300,6.3990703125,0.012174907140433788,-0.43370378017425537,0.1326770931482315
1768421487503070500,6.409070556640625,0.06879397481679916,-0.5106480717658997,0.13163046538829803
1768421487513070300,6.4190703125,0.11756497621536255,-0.544397234916687,0.14125938713550568
1768421487523069400,6.4290693359375,0.1675911247730255,-0.5596720576286316,0.1637524515390396
1768421487533069300,6.4390693359375,0.21128934621810913,-0.5444987416267395,0.16704890131950378
1768421487543069400,6.4490693359375,0.22775380313396454,-0.47487038373947144,0.12751294672489166
1768421487553069300,6.4590693359375,0.2228410691022873,-0.3426854610443115,0.09625862538814545
1768421487563069400,6.4690693359375,0.21892915666103363,-0.18750092387199402,0.11566800624132156
1768421487573069300,6.4790693359375,0.20988398790359497,-0.040161535143852234,0.1637180894613266
1768421487583069400,6.4890693359375,0.18415120244026184,0.07624310255050659,0.207395538687706
1768421487593069300,6.4990693359375,0.1377836912870407,0.18419194221496582,0.2148342728614807
1768421487603069200,6.509069091796875,0.06792978197336197,0.2650740146636963,0.1745140105485916
1768421487613069300,6.5190693359375,-0.0030301446095108986,0.3672405779361725,0.09414460510015488
1768421487623069200,6.529069091796875,-0.054074954241514206,0.4831565320491791,-0.0002884203568100929
1768421487633069300,6.5390693359375,-0.08525045216083527,0.5777456164360046,-0.07049094140529633
1768421487643069200,6.549069091796875,-0.11628719419240952,0.6554441452026367,-0.10178761184215546
1768421487653069300,6.5590693359375,-0.14019066095352173,0.7136467099189758,-0.09465912729501724
1768421487663069200,6.569069091796875,-0.15873105823993683,0.7217725515365601,-0.058770373463630676
1768421487673068300,6.579068359375,-0.19447441399097443,0.6898236870765686,-0.016756609082221985
1768421487683068200,6.589068115234375,-0.2188231498003006,0.6300522685050964,0.027909928932785988
1768421487693068300,6.599068359375,-0.21506676077842712,0.5634977221488953,0.06796440482139587
1768421487703068200,6.609068115234375,-0.19703450798988342,0.49203312397003174,0.10532349348068237
1768421487713068300,6.619068359375,-0.16109700500965118,0.43892890214920044,0.13798795640468597
1768421487723068200,6.629068115234375,-0.12035170942544937,0.40161266922950745,0.1607217639684677
1768421487733068300,6.639068359375,-0.07496611773967743,0.36797934770584106,0.16581159830093384
1768421487743068400,6.649068359375,-0.04555124044418335,0.35434263944625854,0.14163783192634583
1768421487753068500,6.659068603515625,-0.02213726006448269,0.3441041111946106,0.09463649243116379
1768421487763068400,6.669068359375,0.0030634342692792416,0.3255855441093445,0.050511110574007034
1768421487773068500,6.679068603515625,0.01798965223133564,0.3022647798061371,0.00788695178925991
1768421487783068400,6.689068359375,0.0456756092607975,0.2799927592277527,-0.031255125999450684
1768421487793068300,6.699068359375,0.07117271423339844,0.2484729290008545,-0.07368860393762589
1768421487803068400,6.709068359375,0.094200000166893,0.20790979266166687,-0.10164593160152435
1768421487813068300,6.719068359375,0.11983505636453629,0.179302379488945,-0.12081323564052582
1768421487823067400,6.7290673828125,0.1505969613790512,0.1774757206439972,-0.1402929276227951
1768421487833067500,6.739067626953125,0.19158275425434113,0.20217201113700867,-0.16210155189037323
1768421487843067400,6.7490673828125,0.23264549672603607,0.25150999426841736,-0.16872483491897583
1768421487853067500,6.759067626953125,0.2597849667072296,0.28881609439849854,-0.14944088459014893
1768421487863067400,6.7690673828125,0.2678498327732086,0.2979121208190918,-0.11265304684638977
1768421487873067300,6.7790673828125,0.2517518103122711,0.27275803685188293,-0.07706176489591599
1768421487883067400,6.7890673828125,0.22427570819854736,0.2173890471458435,-0.061107829213142395
1768421487893067300,6.7990673828125,0.22290605306625366,0.19532981514930725,-0.06270758807659149
1768421487903067400,6.8090673828125,0.3000362515449524,0.24529977142810822,-0.08615165948867798
1768421487913067300,6.8190673828125,0.4227621853351593,0.324798047542572,-0.14080291986465454
1768421487923067400,6.8290673828125,0.5186969637870789,0.4015407860279083,-0.26292961835861206
1768421487933067300,6.8390673828125,0.5321451425552368,0.46852967143058777,-0.46356314420700073
1768421487943067400,6.8490673828125,0.4641631543636322,0.5207734107971191,-0.6613995432853699
1768421487953067300,6.8590673828125,0.32956191897392273,0.5907029509544373,-0.7487786412239075
1768421487963067400,6.8690673828125,0.1536063402891159,0.6909297108650208,-0.7047600150108337
1768421487973067300,6.8790673828125,-0.04222841188311577,0.7817517518997192,-0.5965709686279297
1768421487983066400,6.88906640625,-0.20182792842388153,0.8224983811378479,-0.5197270512580872
1768421487993066200,6.899066162109375,-0.24696344137191772,0.95928555727005,-0.4328049421310425
1768421488003066400,6.90906640625,-0.2702184319496155,0.8876004219055176,-0.26735633611679077
1768421488013066200,6.919066162109375,-0.29699254035949707,0.6353389024734497,0.08315347880125046
1768421488023066400,6.92906640625,-0.4123052656650543,0.18912358582019806,0.27380889654159546
1768421488033066200,6.939066162109375,-0.5905378460884094,-0.18516665697097778,0.09177146852016449
1768421488043066400,6.94906640625,-0.6309643983840942,-0.3071165382862091,-0.1680087149143219
1768421488053066200,6.959066162109375,-0.533108651638031,-0.35923752188682556,-0.27345603704452515
1768421488063066400,6.96906640625,-0.43851983547210693,-0.36158615350723267,-0.22164957225322723
1768421488073066200,6.979066162109375,-0.31235018372535706,-0.25534653663635254,-0.11539583653211594
1768421488083066000,6.989066162109375,-0.11701929569244385,-0.08715780824422836,-0.13210023939609528
1768421488093066500,6.99906640625,0.11632154881954193,0.04426386579871178,-0.34850284457206726
1768421488103066400,7.00906640625,0.25511085987091064,0.07241667807102203,-0.6213620901107788
1768421488113066500,7.01906640625,0.2445322424173355,-0.009771137498319149,-0.7333695888519287
1768421488123066400,7.02906640625,0.15836487710475922,-0.10393811762332916,-0.574575662612915
1768421488133065500,7.0390654296875,0.08778444677591324,-0.1498398333787918,-0.21598368883132935
1768421488143065300,7.0490654296875,0.06480056792497635,-0.19493326544761658,0.1749020367860794
1768421488153065500,7.0590654296875,0.08216304332017899,-0.3296213150024414,0.42239439487457275
1768421488163065300,7.0690654296875,0.10509099811315536,-0.5337997674942017,0.47844353318214417
1768421488173065500,7.0790654296875,0.12508681416511536,-0.6965354084968567,0.4127878248691559
1768421488183065300,7.0890654296875,0.16494794189929962,-0.7999046444892883,0.2719079554080963
1768421488193065500,7.0990654296875,0.2130480855703354,-0.8663734197616577,0.06472600251436234
1768421488203065300,7.1090654296875,0.2520490288734436,-0.8841843605041504,-0.16070498526096344
1768421488213065500,7.1190654296875,0.2722139358520508,-0.8915959596633911,-0.3902527093887329
1768421488223065300,7.1290654296875,0.26131922006607056,-0.8809624910354614,-0.5653736591339111
1768421488233065500,7.1390654296875,0.25122982263565063,-0.8684674501419067,-0.6444221138954163
1768421488243065300,7.1490654296875,0.26090431213378906,-0.8671854138374329,-0.6203793883323669
1768421488253065500,7.1590654296875,0.2908856272697449,-0.8756660223007202,-0.5133780837059021
1768421488263065300,7.1690654296875,0.3181542754173279,-0.8899663686752319,-0.36178484559059143
1768421488273065200,7.179065185546875,0.32605212926864624,-0.9067631959915161,-0.21328191459178925
1768421488283064300,7.189064208984375,0.3165033757686615,-0.9095296859741211,-0.09579843282699585
1768421488293064400,7.199064453125,0.28803712129592896,-0.9286850094795227,-0.012410596944391727
1768421488303064300,7.209064208984375,0.23913908004760742,-0.9519924521446228,0.05253937467932701
1768421488313064400,7.219064453125,0.1819109469652176,-0.9699501395225525,0.08653249591588974
1768421488323064300,7.229064208984375,0.12801149487495422,-0.9676523804664612,0.07964076846837997
1768421488333064200,7.239064208984375,0.07335703819990158,-0.952954113483429,0.04225105047225952
1768421488343064300,7.249064208984375,0.025353826582431793,-0.936211109161377,-0.000990962260402739
1768421488353064200,7.259064208984375,-0.01489639189094305,-0.9313747882843018,-0.026814837008714676
1768421488363064300,7.269064208984375,-0.04577654227614403,-0.9249595403671265,-0.030977357178926468
1768421488373064700,7.279064697265625,-0.07967165857553482,-0.9160879850387573,-0.03410284221172333
1768421488383064800,7.28906494140625,-0.10993901640176773,-0.9068934321403503,-0.044745899736881256
1768421488393064700,7.299064697265625,-0.1455175131559372,-0.8992067575454712,-0.05908116325736046
1768421488403064800,7.30906494140625,-0.18772488832473755,-0.9021061062812805,-0.07233917713165283
1768421488413064700,7.319064697265625,-0.22744034230709076,-0.8955856561660767,-0.07529555261135101
1768421488423064800,7.32906494140625,-0.2632811665534973,-0.8754311203956604,-0.05013320967555046
1768421488433064700,7.339064697265625,-0.28558701276779175,-0.8533995747566223,-0.0023299995809793472
1768421488443063800,7.349063720703125,-0.2881156802177429,-0.8525026440620422,0.05647978559136391
1768421488453063700,7.359063720703125,-0.28502535820007324,-0.8485707640647888,0.11506347358226776
1768421488463063800,7.369063720703125,-0.28981903195381165,-0.81449294090271,0.18772223591804504
1768421488473063700,7.379063720703125,-0.3225705921649933,-0.706980288028717,0.26501327753067017
1768421488483063800,7.389063720703125,-0.37091708183288574,-0.5529995560646057,0.2981187701225281
1768421488493063700,7.399063720703125,-0.37223508954048157,-0.6173732280731201,0.1738000214099884
1768421488503063600,7.4090634765625,-0.3425709307193756,-0.8437634706497192,-0.01774970255792141
1768421488513063700,7.419063720703125,-0.32469844818115234,-0.9717304706573486,-0.09184017777442932
1768421488523063600,7.4290634765625,-0.29684898257255554,-0.9795167446136475,-0.09428229182958603
1768421488533063700,7.439063720703125,-0.24209226667881012,-0.8980474472045898,-0.14661847054958344
1768421488543063800,7.449063720703125,-0.18253466486930847,-0.8486844301223755,-0.2694522440433502
1768421488553064000,7.45906396484375,-0.10167256742715836,-0.890257716178894,-0.39026281237602234
1768421488563063800,7.469063720703125,-0.04291604086756706,-0.8819976449012756,-0.39531537890434265
1768421488573064000,7.47906396484375,0.03374091908335686,-0.863810658454895,-0.16165867447853088
1768421488583063800,7.489063720703125,0.11975223571062088,-0.7517440319061279,0.2852756977081299
1768421488593064000,7.49906396484375,0.35956934094429016,-0.7791386842727661,0.3853412866592407
1768421488603062800,7.509062744140625,0.33657774329185486,-0.5818226337432861,0.08571996539831161
1768421488613063000,7.51906298828125,0.1475423127412796,-0.38166534900665283,-0.1444288194179535
1768421488623062800,7.529062744140625,0.05145067349076271,-0.1795673668384552,-0.09982779622077942
1768421488633063000,7.53906298828125,0.12836623191833496,-0.146782785654068,0.05823667347431183
1768421488643062800,7.549062744140625,0.20228919386863708,-0.2887905240058899,0.07896938174962997
1768421488653063000,7.55906298828125,0.181747168302536,-0.4090530276298523,0.032290827482938766
1768421488663062800,7.569062744140625,0.17971943318843842,-0.6522669792175293,0.0580529160797596
1768421488673063000,7.57906298828125,0.20969650149345398,-0.9320392608642578,0.1815871000289917
1768421488683062800,7.589062744140625,0.22591142356395721,-1.1398897171020508,0.3016248345375061
1768421488693062700,7.599062744140625,0.26288703083992004,-1.3417290449142456,0.3161744773387909
1768421488703062800,7.609062744140625,0.33568480610847473,-1.4179633855819702,0.24924364686012268
1768421488713062700,7.619062744140625,0.39494067430496216,-1.2937021255493164,0.21213676035404205
1768421488723062800,7.629062744140625,0.4127103388309479,-1.102602243423462,0.2657153010368347
1768421488733062700,7.639062744140625,0.4143891930580139,-0.898553192615509,0.33930590748786926
1768421488743062800,7.649062744140625,0.3989383280277252,-0.7138416767120361,0.325133353471756
1768421488753062700,7.659062744140625,0.3412473499774933,-0.5596326589584351,0.19941429793834686
1768421488763061800,7.669061767578125,0.24481986463069916,-0.44032520055770874,0.04349181801080704
1768421488773061600,7.6790615234375,0.12963388860225677,-0.36355289816856384,-0.06278615444898605
1768421488783061800,7.689061767578125,-0.00842464342713356,-0.3105189800262451,-0.07668652385473251
1768421488793061600,7.6990615234375,-0.14612977206707,-0.28404557704925537,-0.01787540316581726
1768421488803061800,7.709061767578125,-0.21820104122161865,-0.2852035164833069,0.051059987396001816
1768421488813061600,7.7190615234375,-0.21658450365066528,-0.26579731702804565,0.08497534692287445
1768421488823061800,7.729061767578125,-0.18858802318572998,-0.22751225531101227,0.08525470644235611
1768421488833061600,7.7390615234375,-0.15388303995132446,-0.17776493728160858,0.08632024377584457
1768421488843061800,7.749061767578125,-0.12285374850034714,-0.12359251081943512,0.10716906189918518
1768421488853061600,7.7590615234375,-0.10203928500413895,-0.0775320753455162,0.1468014270067215
1768421488863061800,7.769061767578125,-0.09664797782897949,-0.042575158178806305,0.20041857659816742
1768421488873061600,7.7790615234375,-0.09775186330080032,-0.036970533430576324,0.24913978576660156
1768421488883061800,7.789061767578125,-0.08350767940282822,-0.042992740869522095,0.2731916010379791
1768421488893062000,7.799061767578125,-0.05042269453406334,-0.06834310293197632,0.28065377473831177
1768421488903061800,7.809061767578125,-0.007209709845483303,-0.1137302964925766,0.2639469504356384
1768421488913060600,7.819060546875,0.06538193672895432,-0.15018470585346222,0.2146126925945282
1768421488923060700,7.829060791015625,0.1536388248205185,-0.1684231013059616,0.15598081052303314
1768421488933060600,7.839060546875,0.2323474884033203,-0.1694774478673935,0.09515368193387985
1768421488943061000,7.84906103515625,0.2680639326572418,-0.16691361367702484,0.0412885844707489
1768421488953060900,7.859060791015625,0.28112515807151794,-0.14521364867687225,0.012884905561804771
1768421488963060700,7.869060791015625,0.27965375781059265,-0.13462093472480774,-0.00896979309618473
1768421488973060900,7.879060791015625,0.2764803171157837,-0.13826866447925568,-0.0368962325155735
1768421488983060700,7.889060791015625,0.27220702171325684,-0.1252167671918869,-0.07044646888971329
1768421488993060900,7.899060791015625,0.2690295875072479,-0.10600393265485764,-0.1042073592543602
1768421489003060700,7.909060791015625,0.2694101631641388,-0.07551313191652298,-0.1339024007320404
1768421489013060900,7.919060791015625,0.2735748291015625,-0.03695295751094818,-0.16085173189640045
1768421489023060700,7.929060791015625,0.2674578130245209,0.014489993453025818,-0.19061681628227234
1768421489033060900,7.939060791015625,0.26134610176086426,0.06730527430772781,-0.21943728625774384
1768421489043060700,7.949060791015625,0.2576930522918701,0.12381595373153687,-0.24944710731506348
1768421489053060900,7.959060791015625,0.2495938539505005,0.16543050110340118,-0.28616970777511597
1768421489063060700,7.969060791015625,0.2236703783273697,0.18977072834968567,-0.3246779441833496
1768421489073059800,7.979059814453125,0.18324731290340424,0.20349906384944916,-0.3387620747089386
1768421489083059700,7.989059814453125,0.1251206398010254,0.19722385704517365,-0.315154492855072
1768421489093059800,7.999059814453125,0.06174006313085556,0.17181169986724854,-0.27174896001815796
1768421489103059700,8.009059814453124,0.002660498023033142,0.13674426078796387,-0.23633797466754913
1768421489113059800,8.019059814453126,-0.040704552084207535,0.10321586579084396,-0.23636087775230408
1768421489123059700,8.029059814453126,-0.08490876853466034,0.0650343969464302,-0.2880685329437256
1768421489133059800,8.039059814453125,-0.1542486846446991,0.026791134849190712,-0.35399696230888367
1768421489143059700,8.049059814453125,-0.2158646583557129,0.014629010111093521,-0.40176287293434143
1768421489153059800,8.059059814453125,-0.244660884141922,0.08726273477077484,-0.39320188760757446
1768421489163059700,8.069059814453125,-0.2274981439113617,0.26560264825820923,-0.300743043422699
1768421489173059600,8.0790595703125,-0.17681445181369781,0.25376275181770325,-0.14167191088199615
1768421489183059700,8.089059814453124,-0.16687527298927307,0.12045583873987198,0.06066787615418434
1768421489193059600,8.0990595703125,-0.32039958238601685,-0.30990034341812134,0.10498686879873276
1768421489203059700,8.109059814453126,-0.5535265803337097,-0.7011658549308777,-0.09553051739931107
1768421489213059600,8.1190595703125,-0.6941044926643372,-0.867087721824646,-0.3256968855857849
1768421489223059700,8.129059814453125,-0.750237762928009,-0.8190149664878845,-0.3714265525341034
1768421489233058800,8.139058837890625,-0.6370771527290344,-0.6978691220283508,-0.28249961137771606
1768421489243058700,8.14905859375,-0.42218559980392456,-0.41798073053359985,-0.1951170265674591
1768421489253058600,8.15905859375,-0.22208578884601593,-0.11073184013366699,-0.21154792606830597
1768421489263058700,8.16905859375,-0.07578743994235992,0.1323452591896057,-0.329353392124176
1768421489273058600,8.17905859375,0.012614328414201736,0.30784863233566284,-0.5183907151222229
1768421489283058700,8.18905859375,0.04410780593752861,0.3983718752861023,-0.721625566482544
1768421489293058800,8.199058837890625,0.04712570086121559,0.42209771275520325,-0.8079535365104675
1768421489303059000,8.209058837890625,0.02215457148849964,0.363986998796463,-0.6846427917480469
1768421489313058800,8.219058837890625,-0.034321222454309464,0.22543099522590637,-0.40025925636291504
1768421489323059000,8.229058837890625,-0.04900562763214111,0.04571635648608208,-0.046185337007045746
1768421489333058800,8.239058837890624,-0.018307900056242943,-0.19202803075313568,0.2574445903301239
1768421489343059000,8.249058837890624,0.027750404551625252,-0.43583428859710693,0.44845688343048096
1768421489353058800,8.259058837890626,0.0835351049900055,-0.6430314183235168,0.48178768157958984
1768421489363058700,8.26905859375,0.15413950383663177,-0.761292040348053,0.3839854896068573
1768421489373058300,8.279058349609375,0.24570883810520172,-0.8085085153579712,0.19271406531333923
1768421489383058400,8.289058349609375,0.33258193731307983,-0.8027976751327515,-0.05068528279662132
1768421489393057000,8.29905712890625,0.3663630783557892,-0.7686614990234375,-0.27805453538894653
1768421489403057400,8.309057373046874,0.35560017824172974,-0.7463855147361755,-0.4478784501552582
1768421489413057300,8.319057373046874,0.3301182687282562,-0.728195309638977,-0.5249170064926147
1768421489423057400,8.329057373046876,0.29309365153312683,-0.7117905020713806,-0.5038447976112366
1768421489433057300,8.339057373046876,0.24070501327514648,-0.709370493888855,-0.42602720856666565
1768421489443057400,8.349057373046875,0.20481812953948975,-0.7098717093467712,-0.3198789358139038
1768421489453057300,8.359057373046875,0.19299422204494476,-0.7039637565612793,-0.19954480230808258
1768421489463057200,8.36905712890625,0.18636508285999298,-0.7024039626121521,-0.07036551088094711
1768421489473057300,8.379057373046875,0.18144968152046204,-0.6930948495864868,0.05031616613268852
1768421489483057200,8.38905712890625,0.15773530304431915,-0.6704025864601135,0.14148922264575958
1768421489493057300,8.399057373046874,0.12443646788597107,-0.6443504691123962,0.19116197526454926
1768421489503057200,8.40905712890625,0.0895322784781456,-0.6169843673706055,0.18125741183757782
1768421489513057300,8.419057373046876,0.050341732800006866,-0.5749740600585938,0.12318584322929382
1768421489523057200,8.42905712890625,0.012989035807549953,-0.5406715273857117,0.04099456965923309
1768421489533057300,8.439057373046875,-0.025051556527614594,-0.503818929195404,-0.03476596996188164
1768421489543057200,8.44905712890625,-0.06698542833328247,-0.47095367312431335,-0.0870978832244873
1768421489553056300,8.45905615234375,-0.1213325560092926,-0.4437691867351532,-0.10117188841104507
1768421489563056000,8.46905615234375,-0.1802762895822525,-0.4217267334461212,-0.09652813524007797
1768421489573056300,8.47905615234375,-0.22331510484218597,-0.41306373476982117,-0.09742482006549835
1768421489583056100,8.48905615234375,-0.26019614934921265,-0.4307977259159088,-0.07862663269042969
1768421489593056300,8.49905615234375,-0.30225759744644165,-0.4959642291069031,-0.02420174330472946
1768421489603056000,8.50905615234375,-0.3415658473968506,-0.5861934423446655,0.035963062196969986
1768421489613056300,8.51905615234375,-0.3875706195831299,-0.6678829789161682,0.06433025002479553
1768421489623056100,8.52905615234375,-0.43777894973754883,-0.7114307284355164,0.07625775039196014
1768421489633056300,8.53905615234375,-0.47789546847343445,-0.7294744253158569,0.09516007453203201
1768421489643056000,8.54905615234375,-0.4935210347175598,-0.7185227274894714,0.12234269082546234
1768421489653056300,8.55905615234375,-0.5159352421760559,-0.6554595828056335,0.13998639583587646
1768421489663056100,8.56905615234375,-0.49705877900123596,-0.537211000919342,0.1462980955839157
1768421489673056000,8.579055908203125,-0.4468608498573303,-0.4902251064777374,0.08263016492128372
1768421489683056000,8.58905615234375,-0.4062734842300415,-0.6811670660972595,-0.04975690320134163
1768421489693056000,8.599055908203125,-0.4155825674533844,-0.8587631583213806,-0.12259329110383987
1768421489703056400,8.609056396484375,-0.4104999005794525,-0.9403243660926819,-0.09837637096643448
1768421489713056300,8.61905615234375,-0.35504862666130066,-0.9688206911087036,-0.06306152045726776
1768421489723055000,8.62905517578125,-0.2861268222332001,-1.0163747072219849,-0.071588434278965
1768421489733055200,8.63905517578125,-0.22603100538253784,-1.057323932647705,-0.10858799517154694
1768421489743055000,8.64905517578125,-0.10337086021900177,-0.9994867444038391,-0.10199534147977829
1768421489753055200,8.65905517578125,0.15068937838077545,-0.7683315277099609,-0.031138211488723755
1768421489763055400,8.669055419921875,0.46006453037261963,-0.5274773836135864,0.16921991109848022
1768421489773055200,8.67905517578125,0.6492727994918823,-0.4178537130355835,0.2123279720544815
1768421489783055400,8.689055419921875,0.6905520558357239,-0.15007445216178894,0.05156039446592331
1768421489793055200,8.69905517578125,0.6475279331207275,-0.030106237158179283,-0.2023288756608963
1768421489803055400,8.709055419921874,0.46679142117500305,0.16368933022022247,-0.37478533387184143
1768421489813055200,8.71905517578125,0.340597003698349,0.22940309345722198,-0.41618016362190247
1768421489823055400,8.729055419921876,0.2760379910469055,0.19715221226215363,-0.33877378702163696
1768421489833055200,8.73905517578125,0.2108917236328125,-0.025898441672325134,-0.06117760390043259
1768421489843055400,8.749055419921875,0.13064056634902954,-0.47743552923202515,0.2943064570426941
1768421489853055200,8.75905517578125,-0.024992167949676514,-0.8506261706352234,0.54730623960495
1768421489863055000,8.76905517578125,-0.11421366035938263,-1.146011233329773,0.5548219084739685
1768421489873054200,8.77905419921875,-0.1257328987121582,-1.2069677114486694,0.42096081376075745
1768421489883054300,8.789054443359374,-0.06767598539590836,-1.0502668619155884,0.3076784610748291
1768421489893054200,8.79905419921875,0.05552424490451813,-0.8107418417930603,0.30753758549690247
1768421489903054300,8.809054443359376,0.19989047944545746,-0.5365563631057739,0.3622080087661743
1768421489913054200,8.81905419921875,0.3394869863986969,-0.2501155734062195,0.3437701463699341
1768421489923054300,8.829054443359375,0.43052423000335693,-0.024718130007386208,0.2176380455493927
1768421489933054200,8.83905419921875,0.38522252440452576,0.1397312730550766,0.050938546657562256
1768421489943054000,8.84905419921875,0.2159581333398819,0.2249196618795395,-0.0737631693482399
1768421489953054200,8.85905419921875,-0.030416229739785194,0.18642953038215637,-0.12533928453922272
1768421489963054000,8.86905419921875,-0.252097487449646,0.06671538203954697,-0.076259084045887
1768421489973054200,8.87905419921875,-0.36676761507987976,-0.021312745288014412,0.06103166192770004
1768421489983054000,8.88905419921875,-0.3914862871170044,-0.08216038346290588,0.20882698893547058
1768421489993054200,8.89905419921875,-0.3538952171802521,-0.09406977146863937,0.31348174810409546
1768421490003054000,8.90905419921875,-0.28897401690483093,-0.06073258817195892,0.3738745152950287
1768421490013054200,8.91905419921875,-0.22765126824378967,-0.020228572189807892,0.40521273016929626
1768421490023054000,8.92905419921875,-0.17047639191150665,-0.01290674414485693,0.45337867736816406
1768421490033053200,8.93905322265625,-0.11362989246845245,0.016410665586590767,0.5232229828834534
1768421490043053000,8.949052978515626,-0.04501115158200264,0.019157715141773224,0.5820279717445374
1768421490053053200,8.95905322265625,-0.007723966147750616,0.042876359075307846,0.605141282081604
1768421490063053000,8.969052978515625,0.01745249330997467,0.09287001937627792,0.5676231980323792
1768421490073053200,8.97905322265625,0.0419253446161747,0.11175396293401718,0.47555720806121826
1768421490083053000,8.989052978515625,0.05294071137905121,0.12915000319480896,0.3374158442020416
1768421490093053200,8.99905322265625,0.055701613426208496,0.15185397863388062,0.19357718527317047
1768421490103053300,9.00905322265625,0.013156814500689507,0.17992688715457916,0.07771609723567963
1768421490113053400,9.019053466796874,-0.053215283900499344,0.2023720145225525,0.03675934672355652
1768421490123053300,9.02905322265625,-0.1143215149641037,0.20219384133815765,0.05762974172830582
1768421490133053200,9.03905322265625,-0.17021380364894867,0.19765955209732056,0.06548366695642471
1768421490143053300,9.04905322265625,-0.20170356333255768,0.2051856368780136,0.045462023466825485
1768421490153053200,9.05905322265625,-0.19759483635425568,0.1970621943473816,0.006681338418275118
1768421490163053300,9.06905322265625,-0.17225219309329987,0.17371000349521637,-0.04001692309975624
1768421490173053200,9.07905322265625,-0.14585627615451813,0.16498681902885437,-0.0588982030749321
1768421490183053300,9.08905322265625,-0.10942848771810532,0.17824910581111908,-0.035944949835538864
1768421490193053200,9.09905322265625,-0.06805548071861267,0.21410830318927765,-0.0025662221014499664
1768421490203052300,9.10905224609375,-0.02930648997426033,0.2502812147140503,-0.009314938448369503
1768421490213052200,9.11905224609375,-0.010261425748467445,0.29484549164772034,-0.08538547158241272
1768421490223052300,9.12905224609375,-0.006666424684226513,0.3548065721988678,-0.20928797125816345
1768421490233052200,9.13905224609375,-0.011920841410756111,0.43635866045951843,-0.3344626724720001
1768421490243052300,9.14905224609375,-0.012033226899802685,0.5161778926849365,-0.4558599293231964
1768421490253052200,9.15905224609375,-0.034747060388326645,0.5794902443885803,-0.5720430016517639
1768421490263052300,9.16905224609375,-0.09225882589817047,0.5814604759216309,-0.632779598236084
1768421490273052200,9.17905224609375,-0.1406458020210266,0.5510674118995667,-0.6266553997993469
1768421490283052300,9.18905224609375,-0.16790086030960083,0.5121668577194214,-0.5579932332038879
1768421490293052200,9.19905224609375,-0.1363820731639862,0.4916509687900543,-0.4512883424758911
1768421490303052300,9.20905224609375,-0.034563302993774414,0.5087804198265076,-0.3339391052722931
1768421490313052200,9.21905224609375,0.1260910928249359,0.5442904829978943,-0.24835814535617828
1768421490323052300,9.22905224609375,0.3133682906627655,0.5957227945327759,-0.18718241155147552
1768421490333052200,9.23905224609375,0.5030586123466492,0.6471889019012451,-0.1452469378709793
1768421490343052000,9.249052001953125,0.6114223599433899,0.6732894778251648,-0.09455367177724838
1768421490353052200,9.25905224609375,0.613946259021759,0.63770592212677,-0.01990845985710621
1768421490363051300,9.26905126953125,0.5852855443954468,0.5399516224861145,0.015809856355190277
1768421490373051100,9.279051025390626,0.5210162997245789,0.4112685024738312,-0.035826440900564194
1768421490383051300,9.28905126953125,0.4489644765853882,0.2828980088233948,-0.16244643926620483
1768421490393051100,9.299051025390625,0.37955984473228455,0.17834071815013885,-0.27804651856422424
1768421490403051300,9.30905126953125,0.34971165657043457,0.11995809525251389,-0.3351697325706482
1768421490413051100,9.319051025390625,0.3724619746208191,0.10891050100326538,-0.3312506377696991
1768421490423051000,9.329051025390624,0.37431207299232483,0.031074829399585724,-0.26596829295158386
1768421490433051100,9.339051025390624,0.25071078538894653,-0.19529013335704803,-0.14440378546714783
1768421490443051000,9.349051025390626,-0.12468893826007843,-0.4586203098297119,-0.027706995606422424
1768421490453051100,9.359051025390626,-0.5295538902282715,-0.5769189596176147,-0.04482153430581093
1768421490463051000,9.369051025390625,-0.7376514077186584,-0.425217866897583,-0.3290862739086151
1768421490473051100,9.379051025390625,-0.6552220582962036,-0.09914123266935349,-0.8230293989181519
1768421490483051000,9.389051025390625,-0.35396260023117065,0.27181872725486755,-1.2225000858306885
1768421490493051100,9.399051025390625,-0.0402480885386467,0.5085678696632385,-1.3273173570632935
1768421490503051000,9.409051025390625,0.11966647952795029,0.6087448000907898,-1.1180754899978638
1768421490513051100,9.419051025390624,0.17052540183067322,0.7238807082176208,-0.6890657544136047
1768421490523051000,9.429051025390624,0.13864603638648987,0.8384864330291748,-0.29393041133880615
1768421490533050000,9.439050048828125,0.08383018523454666,0.9290543794631958,-0.09410199522972107
1768421490543050000,9.449050048828125,0.038476817309856415,0.9404825568199158,-0.08056088536977768
1768421490553050000,9.459050048828125,-0.0027031085919588804,0.8836346864700317,-0.13813763856887817
1768421490563050000,9.469050048828125,-0.03530712425708771,0.7739742398262024,-0.18390405178070068
1768421490573050000,9.479050048828125,-0.046238336712121964,0.674020528793335,-0.22266343235969543
1768421490583050000,9.489050048828124,-0.040768466889858246,0.5895404815673828,-0.2820817530155182
1768421490593050000,9.499050048828124,-0.03958975523710251,0.5163376331329346,-0.3687412738800049
1768421490603050000,9.509050048828126,-0.041671279817819595,0.4370468258857727,-0.40100547671318054
1768421490613049900,9.5190498046875,-0.04314454272389412,0.3665867745876312,-0.33118218183517456
1768421490623050200,9.52905029296875,-0.04765034466981888,0.32432082295417786,-0.17966750264167786
1768421490633050000,9.539050048828125,-0.03669489920139313,0.2677675187587738,-0.030909713357686996
1768421490643050200,9.54905029296875,-0.015067100524902344,0.20253179967403412,0.05715329945087433
1768421490653050000,9.559050048828125,0.005240302067250013,0.15741412341594696,0.08841828256845474
1768421490663050200,9.56905029296875,0.015114503912627697,0.13898105919361115,0.07124008983373642
1768421490673050000,9.579050048828124,-0.003029612125828862,0.13008131086826324,0.01347399689257145
1768421490683050200,9.58905029296875,-0.041375935077667236,0.11967100948095322,-0.06505490094423294
1768421490693050000,9.599050048828126,-0.08721666038036346,0.13240890204906464,-0.14774365723133087
1768421490703049200,9.60904931640625,-0.14169108867645264,0.18324385583400726,-0.2137836515903473
1768421490713049000,9.619049072265625,-0.19961883127689362,0.23990420997142792,-0.2446049600839615
1768421490723049200,9.62904931640625,-0.2606600821018219,0.29204675555229187,-0.22664326429367065
1768421490733049000,9.639049072265625,-0.3010146915912628,0.3264625370502472,-0.16176439821720123
1768421490743049200,9.64904931640625,-0.3190368413925171,0.3369489908218384,-0.09456858038902283
1768421490753049000,9.659049072265624,-0.3259197771549225,0.3576976954936981,-0.06966403126716614
1768421490763049200,9.66904931640625,-0.33546561002731323,0.37903866171836853,-0.10197935998439789
1768421490773049000,9.679049072265625,-0.3494866192340851,0.3964296281337738,-0.17771567404270172
1768421490783049200,9.68904931640625,-0.37671932578086853,0.435340017080307,-0.25932878255844116
1768421490793049000,9.699049072265625,-0.4108477234840393,0.4709896147251129,-0.3029494881629944
1768421490803049000,9.709049072265625,-0.45701441168785095,0.48641437292099,-0.30115264654159546
1768421490813049000,9.719049072265625,-0.5181059837341309,0.469970703125,-0.24640977382659912
1768421490823049000,9.729049072265624,-0.5983004570007324,0.41441449522972107,-0.17282184958457947
1768421490833049000,9.739049072265624,-0.6598786115646362,0.331857293844223,-0.0959976390004158
1768421490843049000,9.749049072265626,-0.6829644441604614,0.24188800156116486,0.002686596941202879
1768421490853049000,9.759049072265626,-0.6802104711532593,0.1869211494922638,0.13108745217323303
1768421490863049000,9.769049072265625,-0.6593760251998901,0.14538995921611786,0.27772295475006104
1768421490873048000,9.779048095703125,-0.6212595701217651,0.025551166385412216,0.4089707136154175
1768421490883048000,9.7890478515625,-0.5785956978797913,-0.13094550371170044,0.4516867697238922
1768421490893048000,9.799048095703125,-0.5286859273910522,-0.28704190254211426,0.36879613995552063
1768421490903048000,9.8090478515625,-0.4789130687713623,-0.4102722108364105,0.2397577315568924
1768421490913048000,9.819048095703126,-0.42898038029670715,-0.5030511617660522,0.1690201759338379
1768421490923048000,9.8290478515625,-0.3799832761287689,-0.5915272235870361,0.19383737444877625
1768421490933048000,9.839048095703125,-0.3215380907058716,-0.6598050594329834,0.2699414789676666
1768421490943048000,9.8490478515625,-0.24725505709648132,-0.6509175896644592,0.33711811900138855
1768421490953048000,9.859048095703125,-0.1649617850780487,-0.5648947954177856,0.34208276867866516
1768421490963048000,9.8690478515625,-0.08329808712005615,-0.46179986000061035,0.28018051385879517
1768421490973048300,9.87904833984375,-0.03544214740395546,-0.33532047271728516,0.20332223176956177
1768421490983048200,9.889048095703124,-0.019111109897494316,-0.20284871757030487,0.14435984194278717
1768421490993048000,9.899048095703124,-0.01483620423823595,-0.11030786484479904,0.08071988075971603
1768421491003048200,9.909048095703126,-0.029583724215626717,-0.08532368391752243,-0.03285089135169983
1768421491013048000,9.919048095703126,-0.05642625689506531,-0.10374770313501358,-0.14945393800735474
1768421491023048200,9.929048095703125,-0.08537615090608597,-0.0999889150261879,-0.16392634809017181
1768421491033048000,9.939048095703125,-0.08288422971963882,-0.05896637961268425,-0.02990676648914814
1768421491043047200,9.949047119140625,-0.05927211046218872,0.015205850824713707,0.19326134026050568
1768421491053047300,9.95904736328125,-0.02027331292629242,0.0999191403388977,0.39124739170074463
1768421491063047200,9.969047119140624,0.015604259446263313,0.1538335084915161,0.48738670349121094
1768421491073047000,9.979047119140626,0.03164101764559746,0.13118678331375122,0.47709837555885315
1768421491083047200,9.989047119140626,0.024759141728281975,0.02196308970451355,0.38685157895088196
1768421491093047000,9.999047119140625,-0.010304569266736507,-0.1279052346944809,0.2862434685230255
1768421491103047200,10.009047119140625,-0.04387451335787773,-0.2746070623397827,0.2462739497423172
1768421491113047000,10.019047119140625,-0.03232092037796974,-0.46067893505096436,0.24858930706977844
1768421491123047200,10.029047119140625,0.018681276589632034,-0.6616919040679932,0.15556882321834564
1768421491133047000,10.039047119140625,0.13463397324085236,-0.8110140562057495,-0.16690270602703094
1768421491143047200,10.049047119140624,0.2865590751171112,-0.823611855506897,-0.6563842296600342
1768421491153047000,10.059047119140626,0.47500619292259216,-0.7504202127456665,-0.9521914124488831
1768421491163047200,10.069047119140626,0.6844001412391663,-0.7770220041275024,-0.8433908820152283
1768421491173047000,10.079047119140625,0.7108061909675598,-0.8627472519874573,-0.6362249255180359
1768421491183047200,10.089047119140625,0.5979302525520325,-0.897212564945221,-0.6014320254325867
1768421491193047000,10.099047119140625,0.4633042812347412,-0.8642151951789856,-0.651980996131897
1768421491203047000,10.109046875,0.31402212381362915,-0.8001603484153748,-0.6295115947723389
1768421491213046000,10.1190458984375,0.1877555251121521,-0.8030120134353638,-0.5859708189964294
1768421491223046100,10.129046142578124,0.10586971044540405,-0.8295807838439941,-0.6249839663505554
1768421491233046000,10.1390458984375,0.05606060475111008,-0.7715877890586853,-0.7090003490447998
1768421491243046100,10.149046142578126,0.01007926557213068,-0.6502264738082886,-0.7569076418876648
1768421491253046000,10.1590458984375,-0.06956762820482254,-0.5483166575431824,-0.7466182708740234
1768421491263046100,10.169046142578125,-0.153807133436203,-0.5406922698020935,-0.7347709536552429
1768421491273046000,10.1790458984375,-0.21797627210617065,-0.620223343372345,-0.7395014762878418
1768421491283046000,10.1890458984375,-0.25420406460762024,-0.7031477689743042,-0.7626931071281433
1768421491293046000,10.1990458984375,-0.25717800855636597,-0.7135575413703918,-0.7886655926704407
1768421491303046000,10.2090458984375,-0.23396162688732147,-0.7573630809783936,-0.8139663934707642
1768421491313046000,10.2190458984375,-0.19716499745845795,-0.8165651559829712,-0.8425487875938416
1768421491323046100,10.229046142578126,-0.15321485698223114,-0.821061372756958,-0.8845458030700684
1768421491333046300,10.23904638671875,-0.08305786550045013,-0.7517775893211365,-0.921415388584137
1768421491343046100,10.249046142578125,-0.006105030421167612,-0.6794187426567078,-0.9587411880493164
1768421491353046300,10.25904638671875,0.04083983972668648,-0.5923168659210205,-0.993436336517334
1768421491363046100,10.269046142578125,0.07885779440402985,-0.48532170057296753,-0.9934541583061218
1768421491373046300,10.27904638671875,0.1106942892074585,-0.38485127687454224,-0.9859192967414856
1768421491383046100,10.289046142578124,0.10776720941066742,-0.3382217288017273,-1.0174285173416138
1768421491393046000,10.2990458984375,0.05992059037089348,-0.3384515643119812,-1.0892746448516846
1768421491403045000,10.309045166015625,0.02870035357773304,-0.35755759477615356,-1.134000301361084
1768421491413045200,10.319045166015625,0.027934961020946503,-0.38022562861442566,-1.1492493152618408
1768421491423045000,10.329045166015625,0.04790973663330078,-0.35791847109794617,-1.180459976196289
1768421491433045200,10.339045166015625,0.06957588344812393,-0.2944699823856354,-1.2025892734527588
1768421491443045000,10.349045166015625,0.10086829215288162,-0.24330027401447296,-1.2065834999084473
1768421491453045200,10.359045166015624,0.12598562240600586,-0.20281249284744263,-1.2127941846847534
1768421491463045000,10.369045166015624,0.11507812142372131,-0.1697291135787964,-1.2463228702545166
1768421491473045000,10.379044921875,0.06297177821397781,-0.18614430725574493,-1.308288812637329
1768421491483045000,10.389045166015626,0.01483194250613451,-0.22668693959712982,-1.3549524545669556
1768421491493045000,10.399044921875,0.011746138334274292,-0.30604833364486694,-1.4077544212341309
1768421491503045000,10.409045166015625,0.05729205161333084,-0.41932615637779236,-1.5176929235458374
1768421491513045000,10.419044921875,0.15510569512844086,-0.4394162595272064,-1.5661534070968628
1768421491523045000,10.429045166015625,0.32525452971458435,-0.31893935799598694,-1.43791925907135
1768421491533045000,10.439044921875,0.5262901782989502,-0.16219688951969147,-1.2503740787506104
1768421491543045000,10.449045166015624,0.6485047340393066,-0.05576206371188164,-1.2168563604354858
1768421491553045000,10.459044921875,0.6719842553138733,-0.006190251559019089,-1.287512183189392
1768421491563045000,10.469045166015626,0.6416476368904114,0.00780679052695632,-1.3082025051116943
1768421491573044000,10.4790439453125,0.5597583651542664,0.0246100053191185,-1.2593960762023926
1768421491583044000,10.489044189453125,0.4753446877002716,0.09734732657670975,-1.2631391286849976
1768421491593044000,10.4990439453125,0.45843228697776794,0.08574952185153961,-1.3758076429367065
1768421491603044000,10.509044189453125,0.4769290089607239,0.04025447741150856,-1.5467524528503418
1768421491613044000,10.5190439453125,0.48286598920822144,0.03555905818939209,-1.7393203973770142
1768421491623044000,10.529044189453124,0.49822258949279785,-0.027408188208937645,-1.8549857139587402
1768421491633044000,10.5390439453125,0.5013158321380615,-0.09711669385433197,-1.9318008422851562
1768421491643044000,10.549044189453125,0.4882197380065918,-0.08324029296636581,-2.0301032066345215
1768421491653044000,10.5590439453125,0.4483855068683624,-0.05343419685959816,-2.196329355239868
1768421491663044000,10.569044189453125,0.41428107023239136,-0.09300104528665543,-2.4013826847076416
1768421491673044200,10.579044189453125,0.3783462345600128,-0.10457754135131836,-2.554011344909668
1768421491683044000,10.589044189453125,0.35488566756248474,-0.07384386658668518,-2.7007129192352295
1768421491693044200,10.599044189453124,0.344671368598938,-0.11168205738067627,-2.835890293121338
1768421491703044000,10.609044189453124,0.33936262130737305,-0.16390956938266754,-2.91740083694458
1768421491713044200,10.619044189453126,0.3610660433769226,-0.12584288418293,-3.0334880352020264
1768421491723044000,10.629044189453126,0.4256841838359833,-0.0044229780323803425,-3.1146328449249268
1768421491733044200,10.639044189453125,0.488581120967865,0.12592437863349915,-3.0917587280273438
1768421491743044000,10.649044189453125,0.5550704002380371,0.3206043839454651,-3.0480475425720215
1768421491753043200,10.659043212890625,0.5885908007621765,0.44861695170402527,-3.0378196239471436
1768421491763043000,10.66904296875,0.5557457804679871,0.3717021942138672,-3.1238200664520264
1768421491773043200,10.679043212890624,0.5190919041633606,0.018460499122738838,-3.3511743545532227
1768421491783043000,10.68904296875,0.6126740574836731,-0.15096953511238098,-3.508509635925293
1768421491793043200,10.699043212890626,0.7803759574890137,-0.02503477968275547,-3.4206905364990234
1768421491803043000,10.70904296875,0.9541360139846802,0.14217925071716309,-3.312624931335449
1768421491813043200,10.719043212890625,1.0003069639205933,0.12848873436450958,-3.325151205062866
1768421491823043000,10.72904296875,0.7676447033882141,0.05397108942270279,-3.1477510929107666
1768421491833043200,10.739043212890625,0.6171129941940308,0.06745227426290512,-2.8368663787841797
1768421491843043000,10.74904296875,0.6864082217216492,0.10909346491098404,-2.6571202278137207
1768421491853043200,10.759043212890624,0.829211950302124,-0.12098261713981628,-3.0513384342193604
1768421491863043000,10.76904296875,0.9560394287109375,-0.09298533201217651,-3.6588351726531982
1768421491873043000,10.77904296875,1.0247822999954224,0.0676613375544548,-3.8536922931671143
1768421491883043000,10.78904296875,1.0074983835220337,0.07518982887268066,-3.6375720500946045
1768421491893043000,10.79904296875,0.8362717032432556,-0.8686224818229675,-3.3188438415527344
1768421491903043000,10.80904296875,0.3872382640838623,-0.9166954755783081,-2.6177897453308105
1768421491913043000,10.81904296875,-0.17782458662986755,-0.34341248869895935,-1.6427756547927856
1768421491923043000,10.82904296875,-0.5817393064498901,0.4519813060760498,-0.8636780381202698
1768421491933042200,10.839042236328124,-0.8293864130973816,0.5634473562240601,-1.596561074256897
1768421491943042000,10.8490419921875,-0.7457732558250427,0.7147729992866516,-2.067148447036743
1768421491953042000,10.8590419921875,-0.26978540420532227,2.1054024696350098,-2.2743120193481445
1768421491963042000,10.8690419921875,0.325651615858078,2.841130495071411,-2.176607370376587
1768421491973042000,10.8790419921875,0.7954033613204956,2.999753952026367,-2.4032697677612305
1768421491983042000,10.8890419921875,0.7584229707717896,2.402183771133423,-2.7018535137176514
1768421491993042000,10.8990419921875,0.21073327958583832,2.0508720874786377,-2.5005502700805664
1768421492003042000,10.9090419921875,-0.36105141043663025,1.8570232391357422,-1.7158597707748413
1768421492013042200,10.919042236328124,-0.7802950143814087,1.4897080659866333,-0.5672844648361206
1768421492023042300,10.929042236328126,-1.09184730052948,1.099992036819458,0.5213377475738525
1768421492033042200,10.939042236328126,-1.031935214996338,0.8315722942352295,0.7798803448677063
1768421492043042300,10.949042236328125,-0.9132687449455261,0.611712634563446,0.47161146998405457
1768421492053042200,10.959042236328125,-0.8859937191009521,0.48487988114356995,-0.013009008951485157
1768421492063042000,10.9690419921875,-0.723643958568573,0.43376022577285767,-0.43897709250450134
1768421492073042200,10.979042236328125,-0.36330604553222656,0.41886329650878906,-0.47421231865882874
1768421492083042000,10.9890419921875,-0.11181627959012985,0.42993274331092834,-0.18896672129631042
1768421492093042200,10.999042236328124,-0.030170951038599014,0.5255724191665649,0.03599395230412483
1768421492103042000,11.0090419921875,-0.027064640074968338,0.50291907787323,0.11306077241897583
1768421492113042200,11.019042236328126,-0.11704619228839874,0.44639238715171814,0.0765744000673294
1768421492123041300,11.029041259765625,-0.26875874400138855,0.4659775495529175,-0.022359367460012436
1768421492133041200,11.039041259765625,-0.3769043982028961,0.4710428714752197,-0.10195805877447128
1768421492143041000,11.049041015625,-0.41962870955467224,0.5770116448402405,-0.1538201868534088
1768421492153041200,11.059041259765625,-0.4118210971355438,0.7479892373085022,-0.1692018061876297
1768421492163041000,11.069041015625,-0.38407576084136963,0.845797061920166,-0.1884135901927948
1768421492173041200,11.079041259765624,-0.38450878858566284,0.8850715160369873,-0.22363336384296417
1768421492183041000,11.089041015625,-0.43552669882774353,0.8919538855552673,-0.23824399709701538
1768421492193041200,11.099041259765626,-0.4862242341041565,0.8536847829818726,-0.24946309626102448
1768421492203041000,11.109041015625,-0.4964161515235901,0.8105586171150208,-0.2679568827152252
1768421492213041200,11.119041259765625,-0.4593827724456787,0.7915822863578796,-0.27545660734176636
1768421492223041000,11.129041015625,-0.4286133944988251,0.7882397770881653,-0.26231709122657776
1768421492233041200,11.139041259765625,-0.40868711471557617,0.7846226692199707,-0.23315176367759705
1768421492243041000,11.149041015625,-0.4015042781829834,0.8268667459487915,-0.21885138750076294
1768421492253041200,11.159041259765624,-0.3815217912197113,0.8742913007736206,-0.23739869892597198
1768421492263041000,11.169041015625,-0.3573205769062042,0.9170296788215637,-0.2754126787185669
1768421492273041000,11.179041015625,-0.31845733523368835,0.9451289772987366,-0.302788645029068
1768421492283041000,11.189041015625,-0.2705222964286804,0.9206140637397766,-0.3362986445426941
1768421492293041000,11.199041015625,-0.2115388810634613,0.8910103440284729,-0.3456151783466339
1768421492303040000,11.2090400390625,-0.16077449917793274,0.8354876637458801,-0.31705039739608765
1768421492313040100,11.2190400390625,-0.15877819061279297,0.7501064538955688,-0.2785634398460388
1768421492323040000,11.2290400390625,-0.14694710075855255,0.6989766955375671,-0.23225320875644684
1768421492333039900,11.239039794921876,-0.11386504769325256,0.6767094731330872,-0.1826513111591339
1768421492343040000,11.2490400390625,-0.07467290759086609,0.6428534984588623,-0.109134741127491
1768421492353040000,11.259039794921875,-0.029202360659837723,0.6147753000259399,-0.03307566046714783
1768421492363040300,11.269040283203125,0.023301860317587852,0.6044515371322632,0.029768016189336777
1768421492373040000,11.2790400390625,0.03996632620692253,0.5628894567489624,0.07508010417222977
1768421492383040800,11.289040771484375,0.04038204252719879,0.47181200981140137,0.0927262082695961
1768421492393040600,11.29904052734375,0.04899870231747627,0.3492591977119446,0.10558821260929108
1768421492403040800,11.309040771484375,0.06402425467967987,0.23854438960552216,0.13019156455993652
1768421492413040600,11.31904052734375,0.10299642384052277,0.18688972294330597,0.1527906060218811
1768421492423040500,11.32904052734375,0.1494709849357605,0.20606794953346252,0.1753332018852234
1768421492433040600,11.33904052734375,0.19051428139209747,0.2696021795272827,0.19678336381912231
1768421492443040500,11.34904052734375,0.22601288557052612,0.326438844203949,0.21567583084106445
1768421492453040600,11.35904052734375,0.2540130913257599,0.3524145185947418,0.2261415272951126
1768421492463040500,11.36904052734375,0.2698642313480377,0.34745171666145325,0.2254006266593933
1768421492473040600,11.37904052734375,0.2916387617588043,0.3140988051891327,0.21748065948486328
1768421492483040500,11.38904052734375,0.3073274493217468,0.2642284631729126,0.21135884523391724
1768421492493040600,11.39904052734375,0.3240736722946167,0.2406432330608368,0.2082490772008896
1768421492503039500,11.40903955078125,0.3356030285358429,0.25028786063194275,0.199774369597435
1768421492513039600,11.41903955078125,0.33680784702301025,0.27032470703125,0.19754663109779358
1768421492523039500,11.42903955078125,0.32904553413391113,0.27200061082839966,0.19565525650978088
1768421492533039600,11.43903955078125,0.32225048542022705,0.2779996693134308,0.18945381045341492
1768421492543039500,11.44903955078125,0.32612672448158264,0.28646770119667053,0.17182768881320953
1768421492553039600,11.45903955078125,0.32783937454223633,0.2867862284183502,0.14029932022094727
1768421492563039500,11.46903955078125,0.3273906409740448,0.28932422399520874,0.11158831417560577
1768421492573039600,11.47903955078125,0.32532748579978943,0.2833358347415924,0.09762243181467056
1768421492583039500,11.48903955078125,0.31650790572166443,0.263639360666275,0.07356822490692139
1768421492593039600,11.49903955078125,0.3052179515361786,0.25718438625335693,0.05032069608569145
1768421492603039500,11.50903955078125,0.2949317693710327,0.2660132944583893,0.04929857328534126
1768421492613039600,11.51903955078125,0.2837446331977844,0.26961976289749146,0.06942088901996613
1768421492623039500,11.52903955078125,0.27287226915359497,0.22919750213623047,0.08190072327852249
1768421492633039600,11.53903955078125,0.27611255645751953,0.1636696308851242,0.09189902991056442
1768421492643039700,11.549039794921875,0.27827051281929016,0.094638891518116,0.11524509638547897
1768421492653039600,11.55903955078125,0.2727862596511841,0.0330871120095253,0.13801433145999908
1768421492663039700,11.569039794921874,0.25969576835632324,-0.01595473103225231,0.1554332673549652
1768421492673039600,11.57903955078125,0.2454555630683899,-0.03862622007727623,0.16721908748149872
1768421492683038700,11.589038818359375,0.22402112185955048,-0.03159148246049881,0.18887244164943695
1768421492693038600,11.59903857421875,0.19990059733390808,-0.028320055454969406,0.21342839300632477
1768421492703038700,11.609038818359375,0.15916168689727783,-0.07482603937387466,0.24657195806503296
1768421492713038600,11.61903857421875,0.11755778640508652,-0.15076634287834167,0.27164509892463684
1768421492723038700,11.629038818359374,0.09349959343671799,-0.22269245982170105,0.2817419469356537
1768421492733038600,11.63903857421875,0.08793118596076965,-0.28266018629074097,0.27578017115592957
1768421492743038700,11.649038818359376,0.07780691236257553,-0.3346030116081238,0.25736522674560547
1768421492753038600,11.65903857421875,0.04894464090466499,-0.3582199215888977,0.23866397142410278
1768421492763038700,11.669038818359375,0.018792862072587013,-0.35062727332115173,0.2194252908229828
1768421492773038600,11.67903857421875,-0.006735134404152632,-0.3102358877658844,0.19719669222831726
1768421492783038700,11.689038818359375,-0.041561558842659,-0.2919926941394806,0.17603814601898193
1768421492793038600,11.69903857421875,-0.0883018970489502,-0.3168719708919525,0.16846917569637299
1768421492803038700,11.709038818359375,-0.13419854640960693,-0.3851977586746216,0.17414650321006775
1768421492813038600,11.71903857421875,-0.16490799188613892,-0.4422277510166168,0.18190109729766846
1768421492823038500,11.72903857421875,-0.17275872826576233,-0.4953082799911499,0.1853424310684204
1768421492833038600,11.73903857421875,-0.1891595423221588,-0.5182024240493774,0.17438405752182007
1768421492843038500,11.74903857421875,-0.20517951250076294,-0.5147389769554138,0.1810438185930252
1768421492853038600,11.75903857421875,-0.2115119844675064,-0.4906887710094452,0.19990672171115875
1768421492863038500,11.76903857421875,-0.20961634814739227,-0.4551936089992523,0.21161530911922455
1768421492873038600,11.77903857421875,-0.1962651163339615,-0.4361080825328827,0.23872309923171997
1768421492883037400,11.789037353515624,-0.17234086990356445,-0.4527570903301239,0.269209086894989
1768421492893037600,11.79903759765625,-0.1515844613313675,-0.45735079050064087,0.27665796875953674
1768421492903037400,11.809037353515626,-0.13058623671531677,-0.46009889245033264,0.25178828835487366
1768421492913037600,11.81903759765625,-0.12056076526641846,-0.4829980731010437,0.20480294525623322
1768421492923037400,11.829037353515625,-0.13074815273284912,-0.46821993589401245,0.1583491563796997
1768421492933037600,11.83903759765625,-0.1349620819091797,-0.39556649327278137,0.15532487630844116
1768421492943037400,11.849037353515625,-0.11647281795740128,-0.31186094880104065,0.1988350749015808
1768421492953037600,11.85903759765625,-0.07923436909914017,-0.29944342374801636,0.24775999784469604
1768421492963037400,11.869037353515624,-0.026223614811897278,-0.30960312485694885,0.2729628384113312
1768421492973037600,11.87903759765625,0.024471521377563477,-0.2781248390674591,0.28253236413002014
1768421492983037700,11.88903759765625,0.07849640399217606,-0.26449131965637207,0.2799754738807678
1768421492993037800,11.899037841796876,0.11822091788053513,-0.2987312972545624,0.23953668773174286
1768421493003037700,11.90903759765625,0.12957051396369934,-0.292217493057251,0.20081059634685516
1768421493013037600,11.91903759765625,0.12158182263374329,-0.21105045080184937,0.20040367543697357
1768421493023037700,11.92903759765625,0.1305428296327591,-0.1638086438179016,0.21058626472949982
1768421493033037600,11.93903759765625,0.137332022190094,-0.2126896232366562,0.2547643780708313
1768421493043037700,11.94903759765625,0.12957876920700073,-0.26335546374320984,0.33888643980026245
1768421493053037600,11.95903759765625,0.12188808619976044,-0.36318671703338623,0.39839184284210205
1768421493063037700,11.96903759765625,0.1206851378083229,-0.4302682876586914,0.3738652169704437
1768421493073037600,11.97903759765625,0.12604208290576935,-0.404744029045105,0.3447280824184418
1768421493083036700,11.98903662109375,0.12185879051685333,-0.3316919207572937,0.3089312016963959
1768421493093036500,11.99903662109375,0.11156993359327316,-0.2820151746273041,0.28859105706214905
1768421493103036700,12.00903662109375,0.09174403548240662,-0.24020487070083618,0.2913040220737457
1768421493113036500,12.01903662109375,0.07477650046348572,-0.18888123333454132,0.30169594287872314
1768421493123036700,12.02903662109375,0.05389998480677605,-0.19220779836177826,0.2963043749332428
1768421493133036500,12.03903662109375,0.01943202130496502,-0.2209251970052719,0.2858937978744507
1768421493143036700,12.04903662109375,-0.01997237652540207,-0.20057331025600433,0.265173077583313
1768421493153036500,12.05903662109375,-0.04188007116317749,-0.17914578318595886,0.24151834845542908
1768421493163036700,12.06903662109375,-0.054611846804618835,-0.19384217262268066,0.2043779045343399
1768421493173036500,12.07903662109375,-0.07662446796894073,-0.2000340223312378,0.15369342267513275
1768421493183036700,12.08903662109375,-0.08589892834424973,-0.15269340574741364,0.11876100301742554
1768421493193036500,12.09903662109375,0.007796137593686581,-0.04154185205698013,0.07497277855873108
1768421493203036700,12.10903662109375,-0.048940110951662064,-0.12572011351585388,-0.15130722522735596
1768421493213036500,12.11903662109375,-0.16715890169143677,-0.3105975389480591,-0.09915348142385483
1768421493223036400,12.129036376953126,-0.2534724771976471,-0.3181862235069275,0.04543139785528183
1768421493233036500,12.13903662109375,-0.2759721875190735,0.045701440423727036,-0.16600307822227478
1768421493243036400,12.149036376953125,-0.21965406835079193,0.013055347837507725,-0.5014148950576782
1768421493253036500,12.15903662109375,-0.19853706657886505,-0.13920742273330688,-0.5914310812950134
1768421493263036400,12.169036376953125,-0.1995418667793274,-0.07939016073942184,-0.5122832655906677
1768421493273035500,12.179035400390624,-0.19522088766098022,0.008743690326809883,-0.4540489912033081
1768421493283035400,12.189035400390624,-0.21104992926120758,0.030254041776061058,-0.4820694327354431
1768421493293035500,12.199035400390626,-0.23804664611816406,0.0449506975710392,-0.5544530749320984
1768421493303035400,12.209035400390626,-0.2479967474937439,0.04715632647275925,-0.6153385639190674
1768421493313035500,12.219035400390625,-0.24923858046531677,0.036131370812654495,-0.6215578317642212
1768421493323035400,12.229035400390625,-0.2519321143627167,0.025980200618505478,-0.5872954726219177
1768421493333035800,12.239035888671875,-0.2564626634120941,0.02346724271774292,-0.5373097658157349
1768421493343035600,12.24903564453125,-0.24848037958145142,-0.003733219113200903,-0.49092045426368713
1768421493353035800,12.259035888671875,-0.2351270318031311,-0.037457361817359924,-0.45120152831077576
1768421493363035600,12.26903564453125,-0.20904003083705902,-0.06461334973573685,-0.40087923407554626
