time,seconds_elapsed,z,y,x
1768421481153108500,0.0591083984375,0.03652242198586464,-0.11661979556083679,-0.09689147025346756
1768421481163108600,0.069108642578125,0.04246246814727783,-0.10439281910657883,-0.11175630986690521
1768421481173108500,0.0791083984375,0.04475012421607971,-0.09480571001768112,-0.1125403419137001
1768421481183108600,0.089108642578125,0.03192085400223732,-0.08863113075494766,-0.11055155843496323
1768421481193108500,0.0991083984375,0.012432105839252472,-0.08473465591669083,-0.11233614385128021
1768421481203108600,0.109108642578125,-0.00323766702786088,-0.08705107867717743,-0.11415215581655502
1768421481213108500,0.1191083984375,-0.017199819907546043,-0.08580604940652847,-0.11096648126840591
1768421481223108600,0.129108642578125,-0.027617083862423897,-0.08277983218431473,-0.10110119730234146
1768421481233108500,0.1391083984375,-0.03171275928616524,-0.08216197788715363,-0.08528894931077957
1768421481243108600,0.149108642578125,-0.030464623123407364,-0.08392723649740219,-0.06692591309547424
1768421481253108500,0.1591083984375,-0.0231020487844944,-0.07997297495603561,-0.05324312299489975
1768421481263108600,0.169108642578125,-0.018283793702721596,-0.0777520090341568,-0.04789130389690399
1768421481273108500,0.1791083984375,-0.011064763180911541,-0.07669419795274734,-0.049303580075502396
1768421481283108400,0.1891083984375,-0.004699585027992725,-0.0784660205245018,-0.04762991517782211
1768421481293108500,0.1991083984375,-0.0037677448708564043,-0.08298220485448837,-0.047338034957647324
1768421481303108400,0.2091083984375,-0.0010991706512868404,-0.08691193163394928,-0.050285086035728455
1768421481313107500,0.219107421875,-0.0003337782109156251,-0.09813129901885986,-0.04852446913719177
1768421481323107600,0.229107666015625,-0.003395081963390112,-0.10749737173318863,-0.04634068161249161
1768421481333107500,0.239107421875,-0.003576709423214197,-0.1156996414065361,-0.04665520042181015
1768421481343107600,0.249107666015625,-0.0030692669097334146,-0.12669938802719116,-0.0462692454457283
1768421481353107500,0.259107421875,-0.0010692328214645386,-0.13716374337673187,-0.03920068219304085
1768421481363107300,0.269107421875,-0.0033674053847789764,-0.14341548085212708,-0.029054705053567886
1768421481373107200,0.279107177734375,-0.0030313143506646156,-0.14582830667495728,-0.021594924852252007
1768421481383107000,0.289107177734375,-0.004251130390912294,-0.15013448894023895,-0.009237850084900856
1768421481393107200,0.299107177734375,-0.008968121372163296,-0.15175475180149078,0.00483349384739995
1768421481403107000,0.309107177734375,-0.010826559737324715,-0.15359929203987122,0.017245158553123474
1768421481413107200,0.319107177734375,-0.011223637498915195,-0.1491536796092987,0.027113769203424454
1768421481423107000,0.329107177734375,-0.006342925131320953,-0.13989987969398499,0.02796897664666176
1768421481433107200,0.339107177734375,0.00011497410014271736,-0.13033780455589294,0.024216584861278534
1768421481443107000,0.349107177734375,0.008441692218184471,-0.11896651238203049,0.026049096137285233
1768421481453107200,0.359107177734375,0.015878302976489067,-0.10726325213909149,0.02771543525159359
1768421481463107000,0.369107177734375,0.024370703846216202,-0.09436547756195068,0.02380358800292015
1768421481473107500,0.379107421875,0.03133992850780487,-0.08283479511737823,0.018831200897693634
1768421481483107300,0.389107421875,0.037581201642751694,-0.07163681834936142,0.015790067613124847
1768421481493106200,0.399106201171875,0.04178553447127342,-0.06168777495622635,0.014413478784263134
1768421481503106000,0.40910595703125,0.04314982891082764,-0.05523015931248665,0.014723338186740875
1768421481513106200,0.419106201171875,0.04413652792572975,-0.05046656355261803,0.013568324968218803
1768421481523106300,0.429106201171875,0.04447066783905029,-0.04261426255106926,0.014608824625611305
1768421481533106400,0.4391064453125,0.04908086359500885,-0.037350255995988846,0.017306074500083923
1768421481543106300,0.449106201171875,0.05154135823249817,-0.03348094969987869,0.02420898713171482
1768421481553106400,0.4591064453125,0.05245376005768776,-0.024041909724473953,0.03225226700305939
1768421481563106300,0.469106201171875,0.05119521543383598,-0.020484570413827896,0.03786028176546097
1768421481573106200,0.479106201171875,0.047356534749269485,-0.01418885588645935,0.04453736171126366
1768421481583106300,0.489106201171875,0.04598783701658249,-0.00896346103399992,0.05659368634223938
1768421481593106200,0.499106201171875,0.044872771948575974,-0.0032917270436882973,0.0671379342675209
1768421481603106300,0.509106201171875,0.04268064722418785,0.0006542098708450794,0.07662312686443329
1768421481613106200,0.519106201171875,0.04080817848443985,0.008629844523966312,0.07414133101701736
1768421481623106300,0.529106201171875,0.04151858389377594,0.01936286687850952,0.06916801631450653
1768421481633106200,0.539106201171875,0.042078647762537,0.02837447077035904,0.061478935182094574
1768421481643106300,0.549106201171875,0.04274602606892586,0.03559067100286484,0.05146357789635658
1768421481653106200,0.559106201171875,0.04643050953745842,0.04305737465620041,0.0517759695649147
1768421481663106300,0.569106201171875,0.04835360869765282,0.04961225762963295,0.0599929578602314
1768421481673105200,0.579105224609375,0.05162423849105835,0.057768188416957855,0.06882639974355698
1768421481683105300,0.589105224609375,0.055976323783397675,0.06628142297267914,0.07506337761878967
1768421481693105200,0.599105224609375,0.057601649314165115,0.07550261914730072,0.07366148382425308
1768421481703105300,0.609105224609375,0.057425614446401596,0.08503478020429611,0.06685870885848999
1768421481713105200,0.619105224609375,0.0521530881524086,0.09381681680679321,0.058840468525886536
1768421481723105300,0.629105224609375,0.04605957493185997,0.09461299329996109,0.057527460157871246
1768421481733105200,0.639105224609375,0.04204246401786804,0.09265317767858505,0.06422584503889084
1768421481743105300,0.649105224609375,0.03789984807372093,0.09001808613538742,0.07525299489498138
1768421481753105200,0.659105224609375,0.0378364659845829,0.08677968382835388,0.08143632113933563
1768421481763105300,0.669105224609375,0.040007349103689194,0.0823713019490242,0.0881873071193695
1768421481773105200,0.679105224609375,0.04100949689745903,0.0796615332365036,0.0925612822175026
1768421481783105000,0.68910498046875,0.03495852276682854,0.07080315053462982,0.09338366240262985
1768421481793105200,0.699105224609375,0.02906814031302929,0.06148688495159149,0.09249736368656158
1768421481803105000,0.70910498046875,0.023037923499941826,0.04955818131566048,0.09478335082530975
1768421481813105200,0.719105224609375,0.018349161371588707,0.03309318795800209,0.08800028264522552
1768421481823105300,0.729105224609375,0.013079965487122536,0.022763896733522415,0.07602044939994812
1768421481833105400,0.73910546875,0.00834752805531025,0.010669948533177376,0.0690096765756607
1768421481843104000,0.74910400390625,0.005321200005710125,-0.001524460269138217,0.06327909231185913
1768421481853104000,0.759104248046875,0.0059893871657550335,-0.014823753386735916,0.0565122626721859
1768421481863104000,0.76910400390625,0.00808707159012556,-0.02233673632144928,0.053855761885643005
1768421481873104400,0.7791044921875,0.011830144561827183,-0.026824429631233215,0.0465504452586174
1768421481883104300,0.789104248046875,0.016227709129452705,-0.03131282329559326,0.038768887519836426
1768421481893104400,0.7991044921875,0.017073264345526695,-0.0366109162569046,0.03235839307308197
1768421481903104300,0.809104248046875,0.017809582874178886,-0.038908977061510086,0.02594616636633873
1768421481913104400,0.8191044921875,0.01747428998351097,-0.04128291830420494,0.016901804134249687
1768421481923104300,0.829104248046875,0.01634877547621727,-0.04486919566988945,0.01003650575876236
1768421481933104400,0.8391044921875,0.016364753246307373,-0.04925968125462532,0.005431900266557932
1768421481943104300,0.849104248046875,0.016585372388362885,-0.05400775372982025,0.00568097410723567
1768421481953104400,0.8591044921875,0.01860244944691658,-0.05370841175317764,0.012623835355043411
1768421481963104300,0.869104248046875,0.019160496070981026,-0.05633873865008354,0.01604420132935047
1768421481973104000,0.879104248046875,0.02002415992319584,-0.059836264699697495,0.018652236089110374
1768421481983104300,0.889104248046875,0.018848394975066185,-0.06163429096341133,0.01716945320367813
1768421481993104100,0.899104248046875,0.01706700585782528,-0.062194354832172394,0.014344372786581516
1768421482003104300,0.909104248046875,0.015070724301040173,-0.05805716663599014,0.00983037706464529
1768421482013104000,0.919104248046875,0.01048103254288435,-0.05455164983868599,0.003901913994923234
1768421482023103200,0.929103271484375,0.0033100470900535583,-0.054872214794158936,-0.004610812291502953
1768421482033103000,0.93910302734375,0.001336112036369741,-0.053236231207847595,-0.008184773847460747
1768421482043103200,0.949103271484375,-0.0025543421506881714,-0.052912209182977676,-0.009184593334794044
1768421482053103000,0.95910302734375,-0.0018584582721814513,-0.0512237623333931,-0.006616507191210985
1768421482063103200,0.969103271484375,0.001423180801793933,-0.04960959404706955,-0.006822369992733002
1768421482073103000,0.97910302734375,0.00009053491521626711,-0.048193059861660004,-0.008338240906596184
1768421482083103200,0.989103271484375,0.0008844698313623667,-0.04928041249513626,-0.010434015654027462
1768421482093103000,0.99910302734375,-0.0012311452301219106,-0.05138031393289566,-0.010710718110203743
1768421482103103200,1.009103271484375,-0.00209177378565073,-0.05593343824148178,-0.011626245453953743
1768421482113103000,1.01910302734375,-0.005030838772654533,-0.06051088124513626,-0.018622634932398796
1768421482123103200,1.029103271484375,-0.004728992935270071,-0.06084023043513298,-0.0221475288271904
1768421482133103000,1.03910302734375,-0.0018903296440839767,-0.06199098378419876,-0.025024274364113808
1768421482143103200,1.049103271484375,0.0007531759911216795,-0.06438560038805008,-0.026491012424230576
1768421482153103000,1.05910302734375,0.003884787205606699,-0.06489825248718262,-0.02603507786989212
1768421482163103000,1.06910302734375,0.0047014388255774975,-0.06790030002593994,-0.029638467356562614
1768421482173103400,1.079103271484375,0.004539518617093563,-0.07142899185419083,-0.03275622799992561
1768421482183103200,1.089103271484375,0.0018576121656224132,-0.07441279292106628,-0.028842784464359283
1768421482193103400,1.099103271484375,-0.0005757181206718087,-0.07436858117580414,-0.028493911027908325
1768421482203103200,1.109103271484375,0.00033235002774745226,-0.07285179942846298,-0.029997462406754494
1768421482213102000,1.11910205078125,-0.0006287848809733987,-0.07473811507225037,-0.03423748165369034
1768421482223102200,1.129102294921875,-0.0018700376385822892,-0.07488804310560226,-0.03524935245513916
1768421482233102300,1.139102294921875,-0.004461825825273991,-0.07449575513601303,-0.02807692438364029
1768421482243102200,1.149102294921875,-0.004542327485978603,-0.06469956040382385,-0.021730275824666023
1768421482253102300,1.159102294921875,-0.0043638963252305984,-0.057488251477479935,-0.020785119384527206
1768421482263102200,1.169102294921875,-0.00671149417757988,-0.05130559951066971,-0.02398231253027916
1768421482273102300,1.179102294921875,-0.0055287848226726055,-0.04338189586997032,-0.029048442840576172
1768421482283102200,1.189102294921875,-0.004927909001708031,-0.03692730516195297,-0.03703372925519943
1768421482293102300,1.199102294921875,-0.0027129582595080137,-0.029453139752149582,-0.030813122168183327
1768421482303102200,1.209102294921875,-0.0008665212662890553,-0.02774003893136978,-0.021391456946730614
1768421482313102300,1.219102294921875,-0.001525920000858605,-0.026911262422800064,-0.012358812615275383
1768421482323102200,1.229102294921875,-0.004121658392250538,-0.024849962443113327,-0.008284577168524265
1768421482333102300,1.239102294921875,-0.0064695002511143684,-0.021789725869894028,-0.010892344638705254
1768421482343102200,1.249102294921875,-0.009500889107584953,-0.015065036714076996,-0.018786484375596046
1768421482353102000,1.25910205078125,-0.008154395036399364,-0.009686782956123352,-0.02133752778172493
1768421482363102700,1.269102783203125,-0.008712038397789001,-0.00892710778862238,-0.02087353728711605
1768421482373102600,1.2791025390625,-0.007273931987583637,-0.00796464178711176,-0.015644686296582222
1768421482383102700,1.289102783203125,-0.007931754924356937,-0.007705923169851303,-0.012275056913495064
1768421482393101600,1.2991015625,-0.00942046195268631,-0.008775448426604271,-0.0062624369747936726
1768421482403101700,1.309101806640625,-0.009630893357098103,-0.005883713252842426,-0.0024595786817371845
1768421482413101600,1.3191015625,-0.010846626944839954,-0.004899142775684595,0.001245943596586585
1768421482423101700,1.329101806640625,-0.011290332302451134,-0.004567187279462814,0.0010938108898699284
1768421482433101600,1.3391015625,-0.012193677015602589,-0.002317082369700074,0.0006035228725522757
1768421482443101700,1.349101806640625,-0.01151878573000431,-0.005576510913670063,0.0044058505445718765
1768421482453101600,1.3591015625,-0.011282829567790031,-0.00588703528046608,0.006404553074389696
1768421482463101700,1.369101806640625,-0.0115560507401824,-0.00822737067937851,0.008891481906175613
1768421482473101600,1.3791015625,-0.011536343023180962,-0.010518753901124,0.012271832674741745
1768421482483101700,1.389101806640625,-0.011951168067753315,-0.013809503987431526,0.011684602126479149
1768421482493101600,1.3991015625,-0.013354653492569923,-0.013897920027375221,0.010393768548965454
1768421482503101700,1.409101806640625,-0.008847102522850037,-0.016048327088356018,0.01621830090880394
1768421482513101600,1.4191015625,-0.0076505448669195175,-0.012474896386265755,0.021588832139968872
1768421482523101700,1.429101806640625,-0.005828432738780975,-0.011283539235591888,0.026378992944955826
1768421482533101600,1.4391015625,-0.005141869653016329,-0.009805750101804733,0.02815105952322483
1768421482543101400,1.449101318359375,-0.004378609359264374,-0.010702261701226234,0.022755766287446022
1768421482553101600,1.4591015625,-0.004568492528051138,-0.008973337709903717,0.014294903725385666
1768421482563101400,1.469101318359375,-0.005377094727009535,-0.008238902315497398,0.007157163694500923
1768421482573100500,1.4791005859375,-0.005890286061912775,-0.010842941701412201,0.0016412241384387016
1768421482583100700,1.4891005859375,-0.008393598720431328,-0.012910252436995506,-0.0024553844705224037
1768421482593100500,1.4991005859375,-0.009618919342756271,-0.010396227240562439,-0.002608516253530979
1768421482603100400,1.509100341796875,-0.009874416515231133,-0.01091788336634636,-0.0018175514414906502
1768421482613100500,1.5191005859375,-0.009811299853026867,-0.009150076657533646,-0.0052346535958349705
1768421482623100400,1.529100341796875,-0.010642490349709988,-0.0088962372392416,-0.009501109831035137
1768421482633100500,1.5391005859375,-0.008917028084397316,-0.008934587240219116,-0.007725846953690052
1768421482643100400,1.549100341796875,-0.008516807109117508,-0.006004947237670422,-0.009435728192329407
1768421482653100500,1.5591005859375,-0.006112238857895136,-0.0035617630928754807,-0.009523877874016762
1768421482663100400,1.569100341796875,-0.007805653382092714,-0.0011180166620761156,-0.011335628107190132
1768421482673100800,1.579100830078125,-0.009038964286446571,-0.00007512280717492104,-0.014122625812888145
1768421482683100700,1.5891005859375,-0.01078672893345356,0.003645644523203373,-0.015532566234469414
1768421482693100800,1.599100830078125,-0.011862912215292454,0.004651520401239395,-0.01808999851346016
1768421482703100700,1.6091005859375,-0.013593989424407482,0.006562555208802223,-0.01737714186310768
1768421482713100500,1.6191005859375,-0.0122533543035388,0.005605148151516914,-0.020522601902484894
1768421482723100700,1.6291005859375,-0.013382172212004662,0.007007148582488298,-0.022729819640517235
1768421482733100500,1.6391005859375,-0.014963557943701744,0.0072428383864462376,-0.02650192193686962
1768421482743100700,1.6491005859375,-0.016164494678378105,0.007254303433001041,-0.026037540286779404
1768421482753099800,1.659099853515625,-0.01564677618443966,0.008686818182468414,-0.025974955409765244
1768421482763099600,1.669099609375,-0.016398362815380096,0.009494980797171593,-0.02344721183180809
1768421482773099800,1.679099853515625,-0.014319231733679771,0.008169258013367653,-0.022338273003697395
1768421482783099600,1.689099609375,-0.014831527136266232,0.007685298100113869,-0.022210167720913887
1768421482793099500,1.699099609375,-0.01190178282558918,0.007615789771080017,-0.026700258255004883
1768421482803099600,1.709099609375,-0.01063004694879055,0.0036786990240216255,-0.02982175722718239
1768421482813099500,1.719099609375,-0.008461968041956425,-0.0014084717258810997,-0.026633955538272858
1768421482823099600,1.729099609375,-0.008601495996117592,-0.00741109624505043,-0.023983512073755264
1768421482833099500,1.739099609375,-0.008460881188511848,-0.010182647965848446,-0.020373595878481865
1768421482843099600,1.749099609375,-0.009377541020512581,-0.015432004816830158,-0.02063858136534691
1768421482853099500,1.759099609375,-0.012458018958568573,-0.019007299095392227,-0.01962018758058548
1768421482863099600,1.769099609375,-0.011715150438249111,-0.022061333060264587,-0.017657900229096413
1768421482873099500,1.779099609375,-0.012322351336479187,-0.015665484592318535,-0.013658365234732628
1768421482883099600,1.789099609375,-0.008279385045170784,-0.01152119878679514,-0.017074869945645332
1768421482893099500,1.799099609375,-0.008984057232737541,-0.01107698306441307,-0.020158011466264725
1768421482903099600,1.809099609375,-0.008272506296634674,-0.006449931301176548,-0.02095949277281761
1768421482913099500,1.819099609375,-0.00822243932634592,-0.002221630420535803,-0.016819074749946594
1768421482923098600,1.8290986328125,-0.010946051217615604,0.001114686019718647,-0.01756102591753006
1768421482933098500,1.839098388671875,-0.015574892051517963,0.0020723589695990086,-0.020325656980276108
1768421482943098600,1.8490986328125,-0.018776413053274155,-0.0015050191432237625,-0.022380687296390533
1768421482953098500,1.859098388671875,-0.018638992682099342,-0.007243865169584751,-0.02560124732553959
1768421482963098600,1.8690986328125,-0.01541184913367033,-0.012843819335103035,-0.025854505598545074
1768421482973098500,1.879098388671875,-0.015455259941518307,-0.022001631557941437,-0.022601187229156494
1768421482983098600,1.8890986328125,-0.014886261895298958,-0.0287040863186121,-0.018617969006299973
1768421482993098500,1.899098388671875,-0.015938477590680122,-0.03353586047887802,-0.018983354791998863
1768421483003098400,1.909098388671875,-0.015075950883328915,-0.03376335650682449,-0.023890433833003044
1768421483013098500,1.919098388671875,-0.014960370026528835,-0.03342406824231148,-0.0291467122733593
1768421483023098600,1.9290986328125,-0.013477981090545654,-0.03307148814201355,-0.029072748497128487
1768421483033098800,1.9390986328125,-0.014859096147119999,-0.03453010320663452,-0.028925208374857903
1768421483043098600,1.9490986328125,-0.014317590743303299,-0.03192434832453728,-0.026411976665258408
1768421483053098800,1.9590986328125,-0.01588779129087925,-0.03244100138545036,-0.025309694930911064
1768421483063098600,1.9690986328125,-0.017145870253443718,-0.03366117179393768,-0.024064138531684875
1768421483073098800,1.9790986328125,-0.019785063341259956,-0.034942418336868286,-0.02330300584435463
1768421483083098600,1.9890986328125,-0.020056506618857384,-0.034663740545511246,-0.024498168379068375
1768421483093098800,1.9990986328125,-0.02045944146811962,-0.03744834288954735,-0.024681393057107925
1768421483103097600,2.00909765625,-0.02102913148701191,-0.03974577784538269,-0.02468765340745449
1768421483113097700,2.01909765625,-0.020631788298487663,-0.041454724967479706,-0.025273015722632408
1768421483123097600,2.02909765625,-0.01793629489839077,-0.0475858673453331,-0.0262543186545372
1768421483133097700,2.03909765625,-0.014962343499064445,-0.06634064763784409,-0.027676178142428398
1768421483143097600,2.04909765625,-0.012268313206732273,-0.09082633256912231,-0.03045765683054924
1768421483153097700,2.05909765625,-0.010792123153805733,-0.12483862787485123,-0.0351533405482769
1768421483163097600,2.06909765625,-0.0162830650806427,-0.15851794183254242,-0.04425935819745064
1768421483173097700,2.07909765625,-0.02350342832505703,-0.19374410808086395,-0.05060487240552902
1768421483183097600,2.08909765625,-0.025816161185503006,-0.23391491174697876,-0.05407988652586937
1768421483193097500,2.099097412109375,-0.025681139901280403,-0.2669074535369873,-0.06353065371513367
1768421483203097600,2.10909765625,-0.02223537117242813,-0.2956186830997467,-0.07071905583143234
1768421483213097500,2.119097412109375,-0.022275850176811218,-0.3199208378791809,-0.07671277225017548
1768421483223097600,2.12909765625,-0.02820681780576706,-0.35019686818122864,-0.08523388206958771
1768421483233097500,2.139097412109375,-0.03770950809121132,-0.372251033782959,-0.09840134531259537
1768421483243097600,2.14909765625,-0.040649108588695526,-0.38997331261634827,-0.10595647245645523
1768421483253097500,2.159097412109375,-0.04535011947154999,-0.40479353070259094,-0.10261286795139313
1768421483263097600,2.16909765625,-0.048114851117134094,-0.41116639971733093,-0.09219092130661011
1768421483273096400,2.179096435546875,-0.042104095220565796,-0.4143933653831482,-0.08122029155492783
1768421483283096600,2.1890966796875,-0.03465773165225983,-0.416226863861084,-0.08103387802839279
1768421483293096400,2.199096435546875,-0.026353726163506508,-0.41086965799331665,-0.09073683619499207
1768421483303096600,2.2090966796875,-0.014464288018643856,-0.39596086740493774,-0.10230980813503265
1768421483313096400,2.219096435546875,-0.008455663919448853,-0.3710384666919708,-0.11012564599514008
1768421483323096600,2.2290966796875,-0.008838551118969917,-0.3515129089355469,-0.10739949345588684
1768421483333096400,2.239096435546875,-0.0113240797072649,-0.3346226215362549,-0.0928165540099144
1768421483343096600,2.2490966796875,-0.022083589807152748,-0.33021825551986694,-0.07281690090894699
1768421483353096400,2.259096435546875,-0.03550006449222565,-0.3296153247356415,-0.06398319453001022
1768421483363096600,2.2690966796875,-0.04809163883328438,-0.3309653699398041,-0.06500151753425598
1768421483373096400,2.279096435546875,-0.053132470697164536,-0.33149853348731995,-0.0685480535030365
1768421483383096600,2.2890966796875,-0.0594598762691021,-0.33069175481796265,-0.06636425107717514
1768421483393096400,2.299096435546875,-0.05585315823554993,-0.3359549641609192,-0.058579299598932266
1768421483403096300,2.309096435546875,-0.05241364613175392,-0.346906840801239,-0.04584527015686035
1768421483413096400,2.319096435546875,-0.04140333831310272,-0.3623443841934204,-0.026546139270067215
1768421483423096300,2.329096435546875,-0.0412459634244442,-0.3721863627433777,-0.00447365315631032
1768421483433096400,2.339096435546875,-0.04009760543704033,-0.39459073543548584,0.017654020339250565
1768421483443096300,2.349096435546875,-0.04526055231690407,-0.4208736717700958,0.04496699571609497
1768421483453095400,2.359095458984375,-0.05026409775018692,-0.46057501435279846,0.07059939205646515
1768421483463095600,2.369095458984375,-0.05879956856369972,-0.5166929364204407,0.09926792234182358
1768421483473095400,2.379095458984375,-0.07204534113407135,-0.5893657803535461,0.13723979890346527
1768421483483095300,2.38909521484375,-0.0773688331246376,-0.6639893054962158,0.18187005817890167
1768421483493095400,2.399095458984375,-0.07272827625274658,-0.7337386012077332,0.20713840425014496
1768421483503095600,2.409095458984375,-0.06299501657485962,-0.7855356335639954,0.20650355517864227
1768421483513095700,2.419095703125,-0.04076641425490379,-0.8178059458732605,0.1991652250289917
1768421483523095600,2.429095458984375,-0.01616322621703148,-0.8354122042655945,0.1856689304113388
1768421483533095700,2.439095703125,0.010240684263408184,-0.8348001837730408,0.16838981211185455
1768421483543095600,2.449095458984375,0.02241603098809719,-0.8104846477508545,0.1552678644657135
1768421483553095700,2.459095703125,0.03829300031065941,-0.7663859128952026,0.1471651941537857
1768421483563095600,2.469095458984375,0.06653773784637451,-0.6863977313041687,0.1357574313879013
1768421483573095700,2.479095703125,0.09842802584171295,-0.5774480700492859,0.12478706240653992
1768421483583095600,2.489095458984375,0.12882360816001892,-0.45962414145469666,0.1255669742822647
1768421483593095400,2.499095458984375,0.14276792109012604,-0.34946009516716003,0.1348443478345871
1768421483603095600,2.509095458984375,0.13494637608528137,-0.2547649145126343,0.13325411081314087
1768421483613094700,2.5190947265625,0.11720120161771774,-0.1912013739347458,0.12370961159467697
1768421483623094500,2.529094482421875,0.09155488759279251,-0.15000180900096893,0.11555827409029007
1768421483633094700,2.5390947265625,0.0634462907910347,-0.13571368157863617,0.11330816894769669
1768421483643094500,2.549094482421875,0.03744529187679291,-0.1365484744310379,0.11690869182348251
1768421483653094700,2.5590947265625,0.017202071845531464,-0.15824924409389496,0.12295407056808472
1768421483663094500,2.569094482421875,0.009938106872141361,-0.18561981618404388,0.14552058279514313
1768421483673094400,2.579094482421875,0.005298347678035498,-0.2066156417131424,0.1814335733652115
1768421483683094500,2.589094482421875,0.005385986529290676,-0.21915844082832336,0.21909205615520477
1768421483693094400,2.599094482421875,0.013852974399924278,-0.22289353609085083,0.24729838967323303
1768421483703094500,2.609094482421875,0.026115141808986664,-0.22428274154663086,0.25311845541000366
1768421483713094400,2.619094482421875,0.03977556154131889,-0.22435784339904785,0.23486782610416412
1768421483723094500,2.629094482421875,0.056645605713129044,-0.2272074967622757,0.20786170661449432
1768421483733094400,2.639094482421875,0.07196544110774994,-0.2311556339263916,0.18943583965301514
1768421483743094500,2.649094482421875,0.08320111036300659,-0.23412781953811646,0.1782398372888565
1768421483753094400,2.659094482421875,0.08731543272733688,-0.23639976978302002,0.1737297624349594
1768421483763094500,2.669094482421875,0.09307505190372467,-0.22974613308906555,0.1771138459444046
1768421483773094400,2.679094482421875,0.10268373787403107,-0.2120869755744934,0.18585807085037231
1768421483783094500,2.689094482421875,0.10822558403015137,-0.1939886063337326,0.19375748932361603
1768421483793093400,2.69909326171875,0.12263621389865875,-0.16065196692943573,0.21355250477790833
1768421483803093500,2.709093505859375,0.11618270725011826,-0.16484558582305908,0.21600006520748138
1768421483813093400,2.71909326171875,0.10572154074907303,-0.14621864259243011,0.20123843848705292
1768421483823093500,2.729093505859375,0.10855717211961746,-0.12011613696813583,0.183156356215477
1768421483833093400,2.73909326171875,0.10750522464513779,-0.09643557667732239,0.17074549198150635
1768421483843093500,2.749093505859375,0.10801096260547638,-0.07269419729709625,0.17570137977600098
1768421483853093600,2.75909375,0.10988902300596237,-0.0461542010307312,0.18950800597667694
1768421483863093500,2.769093505859375,0.116244375705719,-0.020262382924556732,0.2049388289451599
1768421483873093600,2.77909375,0.11944708228111267,0.004026445094496012,0.20944355428218842
1768421483883093500,2.789093505859375,0.11484469473361969,0.017829108983278275,0.19873446226119995
1768421483893093600,2.79909375,0.09949104487895966,0.030046094208955765,0.181624174118042
1768421483903093500,2.809093505859375,0.08859162032604218,0.044212982058525085,0.1726490557193756
1768421483913093600,2.81909375,0.08291801810264587,0.05826222524046898,0.17280325293540955
1768421483923093500,2.829093505859375,0.0861055999994278,0.06148919090628624,0.1687663048505783
1768421483933093600,2.83909375,0.09155655652284622,0.05187997221946716,0.15261289477348328
1768421483943093500,2.849093505859375,0.10175247490406036,0.03268470615148544,0.1368749439716339
1768421483953093600,2.85909375,0.1050044596195221,0.011226551607251167,0.12706200778484344
1768421483963092500,2.869092529296875,0.1100945919752121,-0.0038658324629068375,0.12697477638721466
1768421483973092600,2.879092529296875,0.11715996265411377,-0.015869764611124992,0.13748867809772491
1768421483983092500,2.889092529296875,0.14182141423225403,-0.023140178993344307,0.12538181245326996
1768421483993092600,2.899092529296875,0.1700437217950821,-0.03020607866346836,0.08546821773052216
1768421484003092500,2.909092529296875,0.19747430086135864,-0.04048784077167511,0.04307283088564873
1768421484013092600,2.919092529296875,0.22195486724376678,-0.04699021577835083,0.015390338376164436
1768421484023092500,2.929092529296875,0.24097448587417603,-0.05890239030122757,0.0014560027047991753
1768421484033092600,2.939092529296875,0.25566422939300537,-0.07689310610294342,-0.0009416411630809307
1768421484043092500,2.949092529296875,0.2752739191055298,-0.10686884075403214,-0.0020970543846488
1768421484053092400,2.95909228515625,0.29824206233024597,-0.1453733593225479,-0.015181431546807289
1768421484063092500,2.969092529296875,0.31666800379753113,-0.19064316153526306,-0.032147493213415146
1768421484073092400,2.97909228515625,0.32325878739356995,-0.24057237803936005,-0.045442793518304825
1768421484083092500,2.989092529296875,0.32961753010749817,-0.2856854498386383,-0.04471501708030701
1768421484093092400,2.99909228515625,0.35086503624916077,-0.2651181221008301,-0.004901288542896509
1768421484103092500,3.009092529296875,0.4291072487831116,-0.17066097259521484,0.11391083896160126
1768421484113092400,3.01909228515625,0.4902752935886383,-0.3309507668018341,0.26005393266677856
1768421484123091500,3.029091552734375,0.4342862367630005,-0.68174147605896,0.3116263151168823
1768421484133091300,3.03909130859375,0.21030747890472412,-1.1083247661590576,0.16582173109054565
1768421484143091500,3.049091552734375,0.004343478940427303,-1.2928130626678467,-0.0734286829829216
1768421484153091300,3.05909130859375,-0.1295117884874344,-1.2990007400512695,-0.17613162100315094
1768421484163091500,3.069091552734375,-0.23640590906143188,-1.2997989654541016,-0.17148427665233612
1768421484173091300,3.07909130859375,-0.24456636607646942,-1.2379121780395508,-0.15550771355628967
1768421484183091500,3.089091552734375,-0.08748879283666611,-1.0291197299957275,-0.13167253136634827
1768421484193091300,3.09909130859375,0.1432325690984726,-0.6979116797447205,-0.11476200073957443
1768421484203091700,3.109091796875,0.38778579235076904,-0.34699776768684387,-0.16246335208415985
1768421484213091600,3.119091552734375,0.5845637917518616,-0.042694076895713806,-0.2435411512851715
1768421484223091700,3.129091796875,0.7098331451416016,0.15873508155345917,-0.3005540668964386
1768421484233091600,3.139091552734375,0.7434989809989929,0.23424609005451202,-0.3509506583213806
1768421484243091500,3.149091552734375,0.6844632625579834,0.1794702410697937,-0.4309147298336029
1768421484253091600,3.159091552734375,0.5511033535003662,0.061379022896289825,-0.5050408840179443
1768421484263091500,3.169091552734375,0.3950226604938507,-0.042130835354328156,-0.5052139163017273
1768421484273091600,3.179091552734375,0.25916069746017456,-0.1206837072968483,-0.40318500995635986
1768421484283091500,3.189091552734375,0.17011186480522156,-0.1698322594165802,-0.24726726114749908
1768421484293090600,3.199090576171875,0.11694346368312836,-0.19612644612789154,-0.10624194890260696
1768421484303090700,3.209090576171875,0.09928065538406372,-0.19879215955734253,-0.03656168282032013
1768421484313090600,3.219090576171875,0.10345488786697388,-0.1981881558895111,-0.05225489288568497
1768421484323090400,3.22909033203125,0.1233753114938736,-0.22296233475208282,-0.10279110074043274
1768421484333090600,3.239090576171875,0.14244142174720764,-0.2633683383464813,-0.10860265046358109
1768421484343090400,3.24909033203125,0.15281306207180023,-0.2999436855316162,-0.0775681734085083
1768421484353090600,3.259090576171875,0.1404770314693451,-0.33786627650260925,-0.0603492334485054
1768421484363090400,3.26909033203125,0.12439075112342834,-0.3767227530479431,-0.08295381814241409
1768421484373090000,3.279090087890625,0.1030159592628479,-0.4219866394996643,-0.13599838316440582
1768421484383090000,3.28908984375,0.08121860772371292,-0.47015732526779175,-0.19496236741542816
1768421484393090300,3.29909033203125,0.064457468688488,-0.5100243091583252,-0.2360783815383911
1768421484403090200,3.309090087890625,0.05286453664302826,-0.5454163551330566,-0.24789221584796906
1768421484413090300,3.31909033203125,0.04881573095917702,-0.5836412310600281,-0.24128545820713043
1768421484423090200,3.329090087890625,0.05378154292702675,-0.6250066757202148,-0.22225403785705566
1768421484433090300,3.33909033203125,0.05553895980119705,-0.6557931303977966,-0.1887221783399582
1768421484443089200,3.349089111328125,0.060318104922771454,-0.6767005920410156,-0.1595059037208557
1768421484453089300,3.35908935546875,0.07610612362623215,-0.6867183446884155,-0.14266274869441986
1768421484463089200,3.369089111328125,0.11873289197683334,-0.6989582180976868,-0.1359863430261612
1768421484473089300,3.37908935546875,0.16744691133499146,-0.7062200903892517,-0.14124369621276855
1768421484483089200,3.389089111328125,0.1545953005552292,-0.7069493532180786,-0.14432522654533386
1768421484493089300,3.39908935546875,0.13016639649868011,-0.7213125824928284,-0.14292600750923157
1768421484503089200,3.409089111328125,0.11100181192159653,-0.735965371131897,-0.16108888387680054
1768421484513089300,3.41908935546875,0.08845868706703186,-0.7386458516120911,-0.1914161592721939
1768421484523089200,3.429089111328125,0.04489237815141678,-0.7473457455635071,-0.2240574210882187
1768421484533089300,3.43908935546875,0.013689450919628143,-0.7611894011497498,-0.25903990864753723
1768421484543089200,3.449089111328125,-0.012715007178485394,-0.7712723612785339,-0.2871464490890503
1768421484553089000,3.459089111328125,-0.03842329978942871,-0.7845383882522583,-0.30129101872444153
1768421484563089200,3.469089111328125,-0.063449427485466,-0.8018667101860046,-0.298048734664917
1768421484573089000,3.479089111328125,-0.08801709115505219,-0.8339791297912598,-0.28700220584869385
1768421484583089200,3.489089111328125,-0.11143045127391815,-0.8671298623085022,-0.27409225702285767
1768421484593089000,3.499089111328125,-0.1311170756816864,-0.9057366251945496,-0.2536727488040924
1768421484603089200,3.509089111328125,-0.15027430653572083,-0.9307485222816467,-0.21815356612205505
1768421484613088300,3.519088134765625,-0.15761929750442505,-0.9324617385864258,-0.17981523275375366
1768421484623088000,3.529088134765625,-0.16242040693759918,-0.9315633773803711,-0.15323090553283691
1768421484633088000,3.539087890625,-0.16565029323101044,-0.9345570802688599,-0.1472446620464325
1768421484643088100,3.549088134765625,-0.16897407174110413,-0.959253191947937,-0.14372041821479797
1768421484653088000,3.559087890625,-0.17994150519371033,-0.9879506230354309,-0.1341860294342041
1768421484663088000,3.569088134765625,-0.1923578828573227,-1.027044415473938,-0.1230439692735672
1768421484673088000,3.579087890625,-0.2016856074333191,-1.0463699102401733,-0.1041664183139801
1768421484683088100,3.589088134765625,-0.2111922651529312,-1.049805760383606,-0.07894489169120789
1768421484693088000,3.599087890625,-0.22332003712654114,-1.0576205253601074,-0.0563863143324852
1768421484703088000,3.609088134765625,-0.24354155361652374,-1.0587902069091797,-0.04323069378733635
1768421484713088000,3.619087890625,-0.2700652778148651,-1.057201623916626,-0.03431176766753197
1768421484723088100,3.629088134765625,-0.29870399832725525,-1.0594019889831543,-0.03688365966081619
1768421484733088000,3.639087890625,-0.3241502344608307,-1.0664737224578857,-0.05577745661139488
1768421484743088000,3.649088134765625,-0.33938226103782654,-1.0671284198760986,-0.07064034044742584
1768421484753088300,3.659088134765625,-0.34907084703445435,-1.092781662940979,-0.060183700174093246
1768421484763088100,3.669088134765625,-0.36274200677871704,-1.1157594919204712,-0.03831777349114418
1768421484773087000,3.6790869140625,-0.3736700415611267,-1.1459318399429321,-0.009539656341075897
1768421484783087400,3.68908740234375,-0.3845493793487549,-1.1718730926513672,0.020196208730340004
1768421484793087200,3.699087158203125,-0.39892539381980896,-1.1994717121124268,0.03653257340192795
1768421484803087400,3.70908740234375,-0.40475091338157654,-1.2224878072738647,0.04779713973402977
1768421484813087200,3.719087158203125,-0.4007875919342041,-1.2311651706695557,0.05253863334655762
1768421484823087000,3.729087158203125,-0.3781476616859436,-1.230137825012207,0.03808172792196274
1768421484833087200,3.739087158203125,-0.34730586409568787,-1.2313077449798584,0.0005372799932956696
1768421484843087000,3.749087158203125,-0.311777263879776,-1.2323986291885376,-0.05621414631605148
1768421484853087200,3.759087158203125,-0.2737955152988434,-1.2166523933410645,-0.11489077657461166
1768421484863087000,3.769087158203125,-0.21620970964431763,-1.152247428894043,-0.13437072932720184
1768421484873087200,3.779087158203125,-0.07005329430103302,-0.8853780031204224,0.014626210555434227
1768421484883087000,3.789087158203125,0.20221927762031555,-0.5664684176445007,0.5222477316856384
1768421484893087200,3.799087158203125,0.600922167301178,-0.5469628572463989,0.8203369379043579
1768421484903087000,3.809087158203125,0.6860917210578918,-0.25038355588912964,0.4550338387489319
1768421484913087200,3.819087158203125,0.4855085611343384,0.0840812548995018,0.004894610028713942
1768421484923087000,3.829087158203125,0.29151651263237,0.23110201954841614,-0.2977883517742157
1768421484933086200,3.839086181640625,0.2574669420719147,0.2533237040042877,-0.397624135017395
1768421484943086000,3.849086181640625,0.2113700807094574,0.15520185232162476,-0.3999020755290985
1768421484953086200,3.859086181640625,0.13238099217414856,-0.0793113261461258,-0.36284205317497253
1768421484963086000,3.869086181640625,0.06316829472780228,-0.38584521412849426,-0.24074724316596985
1768421484973086200,3.879086181640625,0.018921740353107452,-0.6765249967575073,-0.0016569001600146294
1768421484983086000,3.889086181640625,-0.0076750596053898335,-0.8395236134529114,0.3065890669822693
1768421484993086200,3.899086181640625,0.01703960821032524,-0.8976604342460632,0.5191652774810791
1768421485003086000,3.909086181640625,0.09057582169771194,-0.8467606902122498,0.5313035249710083
1768421485013086200,3.919086181640625,0.24774999916553497,-0.7202142477035522,0.3810410797595978
1768421485023086000,3.929086181640625,0.39038988947868347,-0.5249907970428467,0.18021883070468903
1768421485033086000,3.9390859375,0.41703110933303833,-0.3285458981990814,0.03131510317325592
1768421485043086000,3.949086181640625,0.38092041015625,-0.14553342759609222,-0.1084502562880516
1768421485053086000,3.9590859375,0.32514289021492004,0.017827806994318962,-0.2908030152320862
1768421485063086000,3.969086181640625,0.22198720276355743,0.1509549915790558,-0.47350606322288513
1768421485073086000,3.9790859375,0.07053615897893906,0.24779871106147766,-0.5732241272926331
1768421485083086300,3.98908642578125,-0.07461142539978027,0.3113742172718048,-0.5323588848114014
1768421485093085000,3.9990849609375,-0.19316762685775757,0.3776988983154297,-0.3705553710460663
1768421485103085000,4.0090849609375,-0.28050902485847473,0.42389941215515137,-0.15510495007038116
1768421485113085000,4.0190849609375,-0.3664838373661041,0.45281657576560974,0.03447882458567619
1768421485123085000,4.0290849609375,-0.44034644961357117,0.4794129431247711,0.15422184765338898
1768421485133085200,4.039085205078125,-0.48014259338378906,0.5210360288619995,0.1891832947731018
1768421485143085300,4.049085205078125,-0.4743918776512146,0.578700065612793,0.1577024608850479
1768421485153085200,4.059085205078125,-0.45054328441619873,0.6248601078987122,0.08839530497789383
1768421485163085300,4.069085205078125,-0.42344778776168823,0.661461591720581,0.03522089123725891
1768421485173085200,4.079085205078125,-0.401497483253479,0.6717765927314758,0.009961875155568123
1768421485183085300,4.089085205078125,-0.3815513253211975,0.6915092468261719,0.016296815127134323
1768421485193085200,4.099085205078125,-0.3588785231113434,0.7146481275558472,0.04365679994225502
1768421485203085300,4.109085205078125,-0.3336528539657593,0.7125850915908813,0.09052291512489319
1768421485213085200,4.119085205078125,-0.3261813521385193,0.6736643314361572,0.15420867502689362
1768421485223085000,4.1290849609375,-0.31185615062713623,0.6144730448722839,0.2167620062828064
1768421485233085200,4.139085205078125,-0.3090776801109314,0.5545135736465454,0.24681711196899414
1768421485243084300,4.149084228515625,-0.28411978483200073,0.5360504388809204,0.24525302648544312
1768421485253084200,4.159084228515625,-0.24546240270137787,0.5404105186462402,0.21563094854354858
1768421485263084300,4.169084228515625,-0.2041114866733551,0.5432858467102051,0.16937458515167236
1768421485273084200,4.179084228515625,-0.16515076160430908,0.5900586843490601,0.11541201174259186
1768421485283084000,4.189083984375,-0.10613483190536499,0.6178097724914551,0.06726451963186264
1768421485293084200,4.199084228515625,-0.049892861396074295,0.6220223307609558,0.03687652200460434
1768421485303084000,4.209083984375,-0.017020786181092262,0.6390508413314819,0.016746148467063904
1768421485313084200,4.219084228515625,0.0072214375250041485,0.639798641204834,0.004054853692650795
1768421485323084000,4.229083984375,0.015394657850265503,0.6263406872749329,-0.016464602202177048
1768421485333084200,4.239084228515625,0.02645929343998432,0.6093228459358215,-0.02671484276652336
1768421485343084000,4.249083984375,0.037539828568696976,0.6136470437049866,-0.02076273038983345
1768421485353084200,4.259084228515625,0.03977341949939728,0.6448329091072083,-0.0041427407413721085
1768421485363084000,4.269083984375,0.029436303302645683,0.6855902075767517,0.0022993613965809345
1768421485373084700,4.279084716796875,0.05517788231372833,0.7471219897270203,-0.011364785954356194
1768421485383084500,4.28908447265625,0.08861689269542694,0.8048319220542908,-0.05747634917497635
1768421485393084400,4.29908447265625,0.11930636316537857,0.8256929516792297,-0.12565647065639496
1768421485403083500,4.30908349609375,0.11875686049461365,0.7949928641319275,-0.17506663501262665
1768421485413083600,4.319083740234375,0.08602847158908844,0.747654139995575,-0.1511397361755371
1768421485423083500,4.32908349609375,0.06085313484072685,0.7096230983734131,-0.042681291699409485
1768421485433083600,4.339083740234375,0.06781117618083954,0.6718708872795105,0.04721184819936752
1768421485443083500,4.34908349609375,0.10044367611408234,0.6516416072845459,0.014814486727118492
1768421485453083400,4.35908349609375,0.12205469608306885,0.6409910917282104,-0.1455134004354477
1768421485463083500,4.36908349609375,0.09949805587530136,0.635466456413269,-0.3690720498561859
1768421485473083400,4.37908349609375,0.030294757336378098,0.6649476289749146,-0.5424981713294983
1768421485483083500,4.38908349609375,-0.06788130104541779,0.7191289067268372,-0.6073657274246216
1768421485493083400,4.39908349609375,-0.17162741720676422,0.8761419653892517,-0.5874428749084473
1768421485503083500,4.40908349609375,-0.1991582065820694,1.0510448217391968,-0.503409743309021
1768421485513083400,4.41908349609375,-0.15309271216392517,1.199279546737671,-0.37526482343673706
1768421485523083500,4.42908349609375,-0.10159243643283844,1.1339060068130493,-0.12602925300598145
1768421485533083400,4.43908349609375,-0.23963604867458344,0.8477289080619812,-0.05059041455388069
1768421485543083500,4.44908349609375,-0.6105321645736694,0.5249720215797424,-0.2173401117324829
1768421485553082400,4.459082275390625,-0.8083035349845886,0.43100371956825256,-0.2551700472831726
1768421485563082500,4.46908251953125,-0.8141639828681946,0.43318283557891846,-0.12433268129825592
1768421485573082400,4.479082275390625,-0.6873046159744263,0.5137845277786255,-0.05486411973834038
1768421485583082500,4.48908251953125,-0.4711591601371765,0.708560049533844,-0.0674094632267952
1768421485593082400,4.499082275390625,-0.21686749160289764,0.9706510305404663,-0.14618736505508423
1768421485603082500,4.50908251953125,0.0024984499905258417,1.2362483739852905,-0.270643413066864
1768421485613082400,4.519082275390625,0.16608791053295135,1.4307299852371216,-0.3610851764678955
1768421485623082500,4.52908251953125,0.28237998485565186,1.5371675491333008,-0.3836005926132202
1768421485633082600,4.53908251953125,0.3232022523880005,1.5472286939620972,-0.3441658318042755
1768421485643082500,4.54908251953125,0.28179553151130676,1.4423619508743286,-0.26149776577949524
1768421485653082600,4.55908251953125,0.1939474642276764,1.2704386711120605,-0.14758826792240143
1768421485663082500,4.56908251953125,0.11927694827318192,1.10167396068573,0.05990926921367645
1768421485673082600,4.57908251953125,0.09149964898824692,0.9404495358467102,0.3761918842792511
1768421485683082500,4.58908251953125,0.08780231326818466,0.7699767351150513,0.6618160009384155
1768421485693082600,4.59908251953125,0.1164371520280838,0.6092656254768372,0.761523425579071
1768421485703082500,4.60908251953125,0.1805364340543747,0.5235486030578613,0.6430678367614746
1768421485713081600,4.61908154296875,0.25735345482826233,0.5268557071685791,0.37945351004600525
1768421485723081500,4.62908154296875,0.30651190876960754,0.571334183216095,0.06655225902795792
1768421485733081600,4.63908154296875,0.3076764941215515,0.6109614968299866,-0.18997886776924133
1768421485743081500,4.64908154296875,0.2829088270664215,0.6666608452796936,-0.3374136984348297
1768421485753081600,4.65908154296875,0.21911758184432983,0.7295783162117004,-0.3680610954761505
1768421485763081500,4.66908154296875,0.13299910724163055,0.7824457883834839,-0.28667885065078735
1768421485773081600,4.67908154296875,0.0756591260433197,0.8360413312911987,-0.12888789176940918
1768421485783081500,4.68908154296875,0.05078038573265076,0.8995336890220642,0.05538782477378845
1768421485793081600,4.69908154296875,0.04290275275707245,0.9446119070053101,0.22115495800971985
1768421485803081500,4.70908154296875,0.04755713790655136,0.9708407521247864,0.3526950776576996
1768421485813081600,4.71908154296875,0.05593597888946533,0.9869507551193237,0.43098509311676025
1768421485823081500,4.72908154296875,0.05531083047389984,0.9942931532859802,0.46283382177352905
1768421485833081600,4.73908154296875,0.03353096544742584,0.9822697639465332,0.4525793194770813
1768421485843081500,4.74908154296875,-0.012668892741203308,0.9547015428543091,0.4175674021244049
1768421485853081300,4.759081298828125,-0.05762624740600586,0.9125333428382874,0.37456294894218445
1768421485863080400,4.76908056640625,-0.08815363049507141,0.871143639087677,0.32618409395217896
1768421485873080600,4.77908056640625,-0.10137782245874405,0.8111908435821533,0.2850283980369568
1768421485883080400,4.78908056640625,-0.10124923288822174,0.7457727193832397,0.24853019416332245
1768421485893080600,4.79908056640625,-0.10308574885129929,0.670668363571167,0.21184860169887543
1768421485903080400,4.80908056640625,-0.11988186091184616,0.5770837664604187,0.16039346158504486
1768421485913080600,4.81908056640625,-0.15917786955833435,0.4851634204387665,0.09288392961025238
1768421485923080400,4.82908056640625,-0.21831274032592773,0.40769314765930176,0.02348940819501877
1768421485933080300,4.839080322265625,-0.2700941860675812,0.3447437584400177,-0.04560311138629913
1768421485943080400,4.84908056640625,-0.29783713817596436,0.2795851230621338,-0.11133825033903122
1768421485953080300,4.859080322265625,-0.31254473328590393,0.17126183211803436,-0.1651889681816101
1768421485963080400,4.86908056640625,-0.3599938154220581,0.13327738642692566,-0.14634063839912415
1768421485973080300,4.879080322265625,-0.41331589221954346,0.1764586716890335,-0.03476431593298912
1768421485983080700,4.889080810546875,-0.44100213050842285,0.2818547189235687,0.05935519188642502
1768421485993080600,4.89908056640625,-0.4631985127925873,0.34933921694755554,0.07363612949848175
1768421486003080700,4.909080810546875,-0.4665728211402893,0.2754859924316406,0.0352218933403492
1768421486013079300,4.919079345703125,-0.4326678514480591,0.2009768784046173,0.025031309574842453
1768421486023079400,4.929079345703125,-0.3764294981956482,0.22097384929656982,0.05105606094002724
1768421486033079600,4.93907958984375,-0.298442542552948,0.29098808765411377,0.05577438324689865
1768421486043079700,4.94907958984375,-0.21446742117404938,0.3179972171783447,0.02326883189380169
1768421486053079600,4.95907958984375,-0.18564456701278687,0.2890784740447998,-0.01126144826412201
1768421486063079700,4.96907958984375,-0.21509456634521484,0.2240249216556549,-0.005294237285852432
1768421486073079600,4.97907958984375,-0.22195406258106232,0.29321998357772827,0.1201891154050827
1768421486083079700,4.98907958984375,-0.11175309121608734,0.5454787015914917,0.35599303245544434
1768421486093079600,4.99907958984375,0.1359054297208786,0.6247833371162415,0.719201922416687
1768421486103079700,5.00907958984375,0.2724131941795349,0.6019309163093567,0.7044939994812012
1768421486113079600,5.01907958984375,0.18397733569145203,0.7646151781082153,0.3874358534812927
1768421486123079400,5.029079345703125,0.07691007852554321,0.9185956120491028,0.06373624503612518
1768421486133079600,5.03907958984375,0.07336834073066711,1.1002508401870728,-0.11759573221206665
1768421486143079400,5.049079345703125,0.08197824656963348,1.313702940940857,-0.15937428176403046
1768421486153079600,5.05907958984375,0.017300454899668694,1.4045449495315552,-0.12994101643562317
1768421486163078700,5.06907861328125,-0.02354060858488083,1.347091794013977,-0.045940008014440536
1768421486173078500,5.07907861328125,-0.028050139546394348,1.2430384159088135,0.1131947934627533
1768421486183078400,5.089078369140625,-0.04280119016766548,1.135006308555603,0.31229138374328613
1768421486193078500,5.09907861328125,-0.027004649862647057,0.9663271307945251,0.4471130967140198
1768421486203078400,5.109078369140625,-0.025027621537446976,0.768459141254425,0.4643325209617615
1768421486213078500,5.11907861328125,-0.08408934623003006,0.6798895597457886,0.4344837963581085
1768421486223078400,5.129078369140625,-0.12827737629413605,0.654353678226471,0.3990119695663452
1768421486233078500,5.13907861328125,-0.11351946741342545,0.6086815595626831,0.3182068467140198
1768421486243078400,5.149078369140625,-0.07948457449674606,0.5790951251983643,0.176520437002182
1768421486253078500,5.15907861328125,-0.05636434257030487,0.5387586355209351,0.0397585965692997
1768421486263078400,5.169078369140625,-0.030012648552656174,0.44478723406791687,-0.031623777002096176
1768421486273078500,5.17907861328125,-0.01107198279350996,0.36275920271873474,-0.06203334406018257
1768421486283078400,5.189078369140625,0.002289795782417059,0.35385286808013916,-0.06917116045951843
1768421486293078500,5.19907861328125,0.013386654667556286,0.43288642168045044,-0.04802059754729271
1768421486303078400,5.209078369140625,0.016796769574284554,0.570587158203125,-0.0067758881486952305
1768421486313077500,5.219077392578125,-0.004993214271962643,0.7190008759498596,0.05684250220656395
1768421486323077400,5.229077392578125,-0.0470091849565506,0.8420769572257996,0.11711405217647552
1768421486333077500,5.239077392578125,-0.10762539505958557,0.9292283654212952,0.14374299347400665
1768421486343077400,5.249077392578125,-0.1889820396900177,1.000224232673645,0.11965528875589371
1768421486353077500,5.259077392578125,-0.2779198884963989,1.08182692527771,0.05888887867331505
1768421486363077400,5.269077392578125,-0.3375077247619629,1.1745257377624512,-0.007655921392142773
1768421486373077200,5.2790771484375,-0.3597312569618225,1.2608838081359863,-0.056327853351831436
1768421486383077000,5.2890771484375,-0.35921698808670044,1.3362040519714355,-0.08593980967998505
1768421486393077200,5.2990771484375,-0.3446527123451233,1.3884811401367188,-0.09652560949325562
1768421486403077400,5.309077392578125,-0.3317691683769226,1.4154256582260132,-0.0796397477388382
1768421486413077200,5.3190771484375,-0.3248111307621002,1.4278463125228882,-0.037949029356241226
1768421486423077400,5.329077392578125,-0.3173809349536896,1.4253982305526733,0.027002792805433273
1768421486433077200,5.3390771484375,-0.3069826066493988,1.4121907949447632,0.09203691780567169
1768421486443077400,5.349077392578125,-0.2918452322483063,1.400592565536499,0.14651714265346527
1768421486453077200,5.3590771484375,-0.27627241611480713,1.3913935422897339,0.18622593581676483
1768421486463077400,5.369077392578125,-0.2696332633495331,1.370805263519287,0.20867125689983368
1768421486473076200,5.379076171875,-0.2597135305404663,1.329279899597168,0.2207779884338379
1768421486483076400,5.389076416015625,-0.24826495349407196,1.2864412069320679,0.23793672025203705
1768421486493076200,5.399076171875,-0.24306751787662506,1.2695565223693848,0.2465089112520218
1768421486503076400,5.409076416015625,-0.24476422369480133,1.2559317350387573,0.2394271045923233
1768421486513076200,5.419076171875,-0.24351173639297485,1.2370290756225586,0.22216422855854034
1768421486523076400,5.429076416015625,-0.24062798917293549,1.2004276514053345,0.20280644297599792
1768421486533076200,5.439076171875,-0.23296821117401123,1.137391448020935,0.16635282337665558
1768421486543076400,5.449076416015625,-0.2263917773962021,1.0619877576828003,0.13268089294433594
1768421486553076200,5.459076171875,-0.21628108620643616,1.0043870210647583,0.12279896438121796
1768421486563076400,5.469076416015625,-0.2000795602798462,0.958911657333374,0.13226842880249023
1768421486573076200,5.479076171875,-0.1872529834508896,0.924090564250946,0.14943011105060577
1768421486583076400,5.489076416015625,-0.17056068778038025,0.8832515478134155,0.17150965332984924
1768421486593076200,5.499076171875,-0.15367969870567322,0.8268599510192871,0.19693990051746368
1768421486603076000,5.509076171875,-0.13162024319171906,0.7663847208023071,0.22146734595298767
1768421486613075200,5.5190751953125,-0.1154726967215538,0.7415046691894531,0.24128073453903198
1768421486623075300,5.529075439453125,-0.09080900996923447,0.7495657205581665,0.24650923907756805
1768421486633075200,5.5390751953125,-0.057955190539360046,0.7979856729507446,0.22610756754875183
1768421486643075300,5.549075439453125,-0.03206310048699379,0.8682159781455994,0.1799555867910385
1768421486653075200,5.5590751953125,-0.018382707610726357,0.910984218120575,0.12058014422655106
1768421486663075300,5.569075439453125,-0.010941915214061737,0.9224112629890442,0.07630189508199692
1768421486673075200,5.5790751953125,-0.0016730503411963582,0.9027630090713501,0.05163916200399399
1768421486683075000,5.589074951171875,0.021921470761299133,0.7861456871032715,0.03265209123492241
1768421486693075200,5.5990751953125,0.07449120283126831,0.5962492227554321,0.04809362813830376
1768421486703075000,5.609074951171875,0.09443479776382446,0.532416582107544,0.09974642843008041
1768421486713075200,5.6190751953125,0.09844152629375458,0.4608539938926697,0.03830970078706741
1768421486723075000,5.629074951171875,0.06258542090654373,0.4551732838153839,-0.15926650166511536
1768421486733075200,5.6390751953125,-0.018802374601364136,0.4510307312011719,-0.4232121407985687
1768421486743075300,5.649075439453125,-0.12951724231243134,0.45900967717170715,-0.6163184642791748
1768421486753075500,5.659075439453125,-0.23572944104671478,0.5662629008293152,-0.6494993567466736
1768421486763075300,5.669075439453125,-0.2822996973991394,0.8434330821037292,-0.475185364484787
1768421486773074200,5.67907421875,-0.19315382838249207,0.8922011256217957,-0.14705941081047058
1768421486783074300,5.68907421875,-0.1956319808959961,0.6964256167411804,0.023493004962801933
1768421486793074400,5.699074462890625,-0.42139479517936707,0.4335007667541504,-0.06796073913574219
1768421486803074300,5.70907421875,-0.5963868498802185,0.37211042642593384,-0.18992078304290771
1768421486813074400,5.719074462890625,-0.6163607835769653,0.3224366009235382,-0.1668146848678589
1768421486823074300,5.72907421875,-0.5999278426170349,0.3148582875728607,-0.14011767506599426
1768421486833074400,5.739074462890625,-0.5508905053138733,0.4340970516204834,-0.24083256721496582
1768421486843074300,5.74907421875,-0.42225968837738037,0.7256405353546143,-0.47232913970947266
1768421486853074400,5.759074462890625,-0.23503756523132324,1.0329746007919312,-0.7625753283500671
1768421486863074300,5.76907421875,-0.02926165983080864,1.2431426048278809,-0.9020370244979858
1768421486873074200,5.77907421875,0.06930939108133316,1.3313641548156738,-0.7607100009918213
1768421486883074300,5.78907421875,0.07020983099937439,1.313989520072937,-0.44439196586608887
1768421486893074200,5.79907421875,-0.0006558208260685205,1.2605760097503662,-0.11180708557367325
1768421486903074300,5.80907421875,-0.08927369862794876,1.1323485374450684,0.14217478036880493
1768421486913074200,5.81907421875,-0.1579776555299759,0.9253162145614624,0.2975422739982605
1768421486923073300,5.8290732421875,-0.1817493885755539,0.6407158970832825,0.3819515109062195
1768421486933073400,5.839073486328125,-0.14224566519260406,0.36680129170417786,0.4004732668399811
1768421486943073300,5.8490732421875,-0.05912964418530464,0.18455694615840912,0.34615910053253174
1768421486953073200,5.8590732421875,0.043013233691453934,0.10000211745500565,0.21738778054714203
1768421486963073300,5.8690732421875,0.14031101763248444,0.04532857984304428,0.008134151808917522
1768421486973073200,5.8790732421875,0.20624129474163055,0.005192611366510391,-0.24414309859275818
1768421486983073300,5.8890732421875,0.229983389377594,-0.03604041039943695,-0.4712095260620117
1768421486993073200,5.8990732421875,0.22795724868774414,-0.0440187081694603,-0.6048344373703003
1768421487003073300,5.9090732421875,0.20057131350040436,-0.05051080137491226,-0.609923243522644
1768421487013073200,5.9190732421875,0.18268074095249176,-0.06144307553768158,-0.5031946897506714
1768421487023073300,5.9290732421875,0.18415197730064392,-0.04283413290977478,-0.3219585120677948
1768421487033073200,5.9390732421875,0.1823921650648117,0.015194281935691833,-0.12900319695472717
1768421487043073300,5.9490732421875,0.18341688811779022,0.04545586183667183,0.04073750227689743
1768421487053073200,5.9590732421875,0.17795048654079437,0.09100204706192017,0.18087702989578247
1768421487063073300,5.9690732421875,0.15719059109687805,0.1439545899629593,0.2801007628440857
1768421487073072000,5.979072021484375,0.12127680331468582,0.1870000660419464,0.32643550634384155
1768421487083072300,5.989072265625,0.07912075519561768,0.20723222196102142,0.32569602131843567
1768421487093072100,5.999072021484375,0.03347577899694443,0.2320595383644104,0.28862428665161133
1768421487103072300,6.009072265625,0.001209841575473547,0.2437410205602646,0.23655103147029877
1768421487113072000,6.019072021484375,-0.025094732642173767,0.24252769351005554,0.18917499482631683
1768421487123072300,6.029072265625,-0.04234691709280014,0.22417186200618744,0.14171546697616577
1768421487133072400,6.039072265625,-0.06212780624628067,0.22758178412914276,0.11054768413305283
1768421487143072300,6.049072265625,-0.08494339883327484,0.22408515214920044,0.11324252188205719
1768421487153072400,6.059072265625,-0.11112946271896362,0.21401360630989075,0.12929527461528778
1768421487163072300,6.069072265625,-0.12967461347579956,0.18877334892749786,0.144041046500206
1768421487173072400,6.079072265625,-0.14542561769485474,0.15303292870521545,0.14524959027767181
1768421487183072300,6.089072265625,-0.1553879976272583,0.09532240778207779,0.1461237221956253
1768421487193072400,6.099072265625,-0.16976694762706757,0.010608583688735962,0.15633347630500793
1768421487203072300,6.109072265625,-0.1809385120868683,-0.10271789878606796,0.1643696427345276
1768421487213072400,6.119072265625,-0.18462538719177246,-0.21515949070453644,0.1491536796092987
1768421487223071200,6.1290712890625,-0.18846078217029572,-0.30728527903556824,0.08756526559591293
1768421487233071400,6.1390712890625,-0.20673805475234985,-0.3773341476917267,-0.00043223844841122627
1768421487243071200,6.1490712890625,-0.23900550603866577,-0.4048183858394623,-0.055308468639850616
1768421487253071400,6.1590712890625,-0.27877265214920044,-0.399196982383728,-0.05539262294769287
1768421487263071200,6.1690712890625,-0.3262941539287567,-0.3484256863594055,-0.022877074778079987
1768421487273071400,6.1790712890625,-0.3789171576499939,-0.2903765141963959,-0.003136393614113331
1768421487283071200,6.1890712890625,-0.416706383228302,-0.30814236402511597,-0.0439702533185482
1768421487293071400,6.1990712890625,-0.4062918424606323,-0.3829193711280823,-0.1326308697462082
1768421487303071200,6.2090712890625,-0.35019704699516296,-0.370050847530365,-0.18356718122959137
1768421487313071400,6.2190712890625,-0.24308602511882782,-0.28795892000198364,-0.18909190595149994
1768421487323071200,6.2290712890625,-0.12288590520620346,-0.19668971002101898,-0.22196908295154572
1768421487333071000,6.239071044921875,-0.014022806659340858,-0.11600391566753387,-0.28333231806755066
1768421487343071200,6.2490712890625,0.1147904247045517,-0.00941723957657814,-0.2199220508337021
1768421487353071000,6.259071044921875,0.25879552960395813,0.19348686933517456,0.19283275306224823
1768421487363071200,6.2690712890625,0.46130040287971497,0.08650278300046921,0.5879919528961182
1768421487373070300,6.2790703125,0.5092655420303345,0.21108919382095337,0.4916957914829254
1768421487383070200,6.2890703125,0.45076802372932434,0.36628293991088867,0.17173799872398376
1768421487393070300,6.2990703125,0.4174622595310211,0.585933268070221,-0.04583880305290222
1768421487403070500,6.309070556640625,0.42806679010391235,0.7306956052780151,-0.05670381709933281
1768421487413070300,6.3190703125,0.46653854846954346,0.747812807559967,0.000743495998904109
1768421487423070500,6.329070556640625,0.4646809697151184,0.6943274140357971,0.07997038960456848
1768421487433070300,6.3390703125,0.3895731568336487,0.47488266229629517,0.19628874957561493
1768421487443070500,6.349070556640625,0.24510103464126587,0.21021169424057007,0.3413684368133545
1768421487453070300,6.3590703125,0.06315388530492783,0.022446051239967346,0.42977768182754517
1768421487463070500,6.369070556640625,-0.05826110020279884,-0.14839304983615875,0.40054699778556824
1768421487473070300,6.3790703125,-0.07379692047834396,-0.3051871657371521,0.29409059882164
1768421487483070500,6.389070556640625,-0.04168126359581947,-0.384413480758667,0.1815704107284546
1768421487493070300,6.3990703125,0.013751901686191559,-0.43801891803741455,0.13664528727531433
1768421487503070500,6.409070556640625,0.07037129253149033,-0.5149608254432678,0.1355997771024704
1768421487513070300,6.4190703125,0.11914229393005371,-0.5487099885940552,0.14522869884967804
1768421487523069400,6.4290693359375,0.169168621301651,-0.5639835000038147,0.16772235929965973
1768421487533069300,6.4390693359375,0.21286684274673462,-0.5488101840019226,0.1710188090801239
1768421487543069400,6.4490693359375,0.2293315827846527,-0.4791800081729889,0.13148370385169983
1768421487553069300,6.4590693359375,0.22441884875297546,-0.346995085477829,0.10022938996553421
1768421487563069400,6.4690693359375,0.2205069363117218,-0.19181054830551147,0.11963877081871033
1768421487573069300,6.4790693359375,0.21146176755428314,-0.04447115957736969,0.16768884658813477
1768421487583069400,6.4890693359375,0.18572847545146942,0.07193008810281754,0.2113647162914276
1768421487593069300,6.4990693359375,0.1393609642982483,0.17987892031669617,0.21880345046520233
1768421487603069200,6.509069091796875,0.06950721889734268,0.26076212525367737,0.1784837245941162
1768421487613069300,6.5190693359375,-0.0014527064049616456,0.36292868852615356,0.09811431169509888
1768421487623069200,6.529069091796875,-0.05249751731753349,0.47884464263916016,0.0036812867037951946
1768421487633069300,6.5390693359375,-0.08367301523685455,0.5734337568283081,-0.06652123481035233
1768421487643069200,6.549069091796875,-0.1147095263004303,0.6511338353157043,-0.09781718254089355
1768421487653069300,6.5590693359375,-0.1386130005121231,0.7093364000320435,-0.09068869799375534
1768421487663069200,6.569069091796875,-0.1571534276008606,0.7174619436264038,-0.05480007454752922
1768421487673068300,6.579068359375,-0.1928967833518982,0.6855130791664124,-0.01278631016612053
1768421487683068200,6.589068115234375,-0.21724559366703033,0.6257412433624268,0.031880028545856476
1768421487693068300,6.599068359375,-0.21348920464515686,0.5591866970062256,0.07193450629711151
1768421487703068200,6.609068115234375,-0.19545751810073853,0.48771798610687256,0.1092916950583458
1768421487713068300,6.619068359375,-0.1595200151205063,0.43461376428604126,0.1419561505317688
1768421487723068200,6.629068115234375,-0.11877422779798508,0.3973010778427124,0.16469159722328186
1768421487733068300,6.639068359375,-0.07338863611221313,0.363667756319046,0.16978143155574799
1768421487743068400,6.649068359375,-0.04397355392575264,0.3500324487686157,0.1456083357334137
1768421487753068500,6.659068603515625,-0.02055957168340683,0.3397939205169678,0.09860698878765106
1768421487763068400,6.669068359375,0.004641143139451742,0.3212755024433136,0.05448167398571968
1768421487773068500,6.679068603515625,0.01956736110150814,0.2979547381401062,0.011857515200972557
1768421487783068400,6.689068359375,0.047252967953681946,0.2756803035736084,-0.027285682037472725
1768421487793068300,6.699068359375,0.07275006920099258,0.2441604733467102,-0.06971915811300278
1768421487803068400,6.709068359375,0.09577779471874237,0.20360030233860016,-0.09767509996891022
1768421487813068300,6.719068359375,0.12141285091638565,0.1749928891658783,-0.11684240400791168
1768421487823067400,6.7290673828125,0.15217432379722595,0.1731632649898529,-0.136323481798172
1768421487833067500,6.739067626953125,0.19316011667251587,0.19785955548286438,-0.15813210606575012
1768421487843067400,6.7490673828125,0.23422281444072723,0.2471972554922104,-0.16475552320480347
1768421487853067500,6.759067626953125,0.2613622844219208,0.28450337052345276,-0.14547157287597656
1768421487863067400,6.7690673828125,0.26942771673202515,0.29360321164131165,-0.10868195444345474
1768421487873067300,6.7790673828125,0.25332969427108765,0.2684491276741028,-0.07309067249298096
1768421487883067400,6.7890673828125,0.2258533090353012,0.21307829022407532,-0.05713759735226631
1768421487893067300,6.7990673828125,0.2244836539030075,0.19101905822753906,-0.05873735621571541
1768421487903067400,6.8090673828125,0.3016137480735779,0.24098831415176392,-0.08218175172805786
1768421487913067300,6.8190673828125,0.4243396818637848,0.32048657536506653,-0.13683301210403442
1768421487923067400,6.8290673828125,0.5202744007110596,0.39722904562950134,-0.2589598596096039
1768421487933067300,6.8390673828125,0.5337225794792175,0.4642179310321808,-0.45959338545799255
1768421487943067400,6.8490673828125,0.46574097871780396,0.5164640545845032,-0.6574286222457886
1768421487953067300,6.8590673828125,0.3311397433280945,0.5863935947418213,-0.7448077201843262
1768421487963067400,6.8690673828125,0.15518388152122498,0.6866185069084167,-0.7007899880409241
1768421487973067300,6.8790673828125,-0.0406508706510067,0.7774405479431152,-0.59260094165802
1768421487983066400,6.88906640625,-0.20025014877319336,0.8181887269020081,-0.5157563090324402
1768421487993066200,6.899066162109375,-0.24538566172122955,0.9549759030342102,-0.4288341701030731
1768421488003066400,6.90906640625,-0.26864075660705566,0.8832902312278748,-0.2633858323097229
1768421488013066200,6.919066162109375,-0.29541486501693726,0.6310287117958069,0.08712397515773773
1768421488023066400,6.92906640625,-0.41072776913642883,0.18481212854385376,0.2777788043022156
1768421488033066200,6.939066162109375,-0.5889603495597839,-0.18947811424732208,0.0957413762807846
1768421488043066400,6.94906640625,-0.6293870210647583,-0.31142884492874146,-0.16403920948505402
1768421488053066200,6.959066162109375,-0.5315312743186951,-0.3635498285293579,-0.26948651671409607
1768421488063066400,6.96906640625,-0.4369422495365143,-0.3658970594406128,-0.21767941117286682
1768421488073066200,6.979066162109375,-0.3107725977897644,-0.25965744256973267,-0.11142566800117493
1768421488083066000,6.989066162109375,-0.11544160544872284,-0.09146799892187119,-0.1281297355890274
1768421488093066500,6.99906640625,0.11789923906326294,0.03995367884635925,-0.3445323407649994
1768421488103066400,7.00906640625,0.25668808817863464,0.06810323894023895,-0.6173930764198303
1768421488113066500,7.01906640625,0.24610945582389832,-0.014084579423069954,-0.7294005751609802
1768421488123066400,7.02906640625,0.1599424034357071,-0.10824943333864212,-0.5706056952476501
1768421488133065500,7.0390654296875,0.08936196565628052,-0.15415115654468536,-0.21201372146606445
1768421488143065300,7.0490654296875,0.06637821346521378,-0.19924373924732208,0.17887240648269653
1768421488153065500,7.0590654296875,0.08374068886041641,-0.3339317739009857,0.4263647496700287
1768421488163065300,7.0690654296875,0.10666856169700623,-0.5381107926368713,0.482413649559021
1768421488173065500,7.0790654296875,0.12666437029838562,-0.7008464336395264,0.4167579412460327
1768421488183065300,7.0890654296875,0.1665257215499878,-0.8042142987251282,0.2758787274360657
1768421488193065500,7.0990654296875,0.21462586522102356,-0.8706830739974976,0.0686967670917511
1768421488203065300,7.1090654296875,0.25362637639045715,-0.8884968161582947,-0.15673553943634033
1768421488213065500,7.1190654296875,0.27379128336906433,-0.8959084153175354,-0.386283278465271
1768421488223065300,7.1290654296875,0.2628970742225647,-0.8852715492248535,-0.5614026188850403
1768421488233065500,7.1390654296875,0.2528076767921448,-0.8727765083312988,-0.6404510736465454
1768421488243065300,7.1490654296875,0.2624819278717041,-0.8714961409568787,-0.616409182548523
1768421488253065500,7.1590654296875,0.2924632430076599,-0.879976749420166,-0.5094078779220581
1768421488263065300,7.1690654296875,0.31973186135292053,-0.8942772746086121,-0.3578146696090698
1768421488273065200,7.179065185546875,0.3276297152042389,-0.9110741019248962,-0.20931175351142883
1768421488283064300,7.189064208984375,0.3180807828903198,-0.9138418436050415,-0.0918288603425026
1768421488293064400,7.199064453125,0.2896145284175873,-0.9329971671104431,-0.008441021665930748
1768421488303064300,7.209064208984375,0.24071656167507172,-0.9563040733337402,0.05650921165943146
1768421488313064400,7.219064453125,0.18348842859268188,-0.9742617607116699,0.09050233662128448
1768421488323064300,7.229064208984375,0.1295892745256424,-0.971962034702301,0.08361153304576874
1768421488333064200,7.239064208984375,0.07493481040000916,-0.9572637677192688,0.046221811324357986
1768421488343064300,7.249064208984375,0.026931429281830788,-0.9405218362808228,0.002979271113872528
1768421488353064200,7.259064208984375,-0.013318788260221481,-0.9356855154037476,-0.022844603285193443
1768421488363064300,7.269064208984375,-0.04419883340597153,-0.9292696118354797,-0.02700679376721382
1768421488373064700,7.279064697265625,-0.07809394598007202,-0.9203980565071106,-0.03013227880001068
1768421488383064800,7.28906494140625,-0.10836132615804672,-0.9112036228179932,-0.04077540338039398
1768421488393064700,7.299064697265625,-0.1439398229122162,-0.903516948223114,-0.055110666900873184
1768421488403064800,7.30906494140625,-0.1861470490694046,-0.9064152836799622,-0.06836821883916855
1768421488413064700,7.319064697265625,-0.2258625030517578,-0.8998948335647583,-0.07132459431886673
1768421488423064800,7.32906494140625,-0.2617037892341614,-0.8797434568405151,-0.04616370052099228
1768421488433064700,7.339064697265625,-0.2840096354484558,-0.857711911201477,0.0016395100392401218
1768421488443063800,7.349063720703125,-0.28653818368911743,-0.8568140864372253,0.060449689626693726
1768421488453063700,7.359063720703125,-0.28344786167144775,-0.8528822064399719,0.11903338134288788
1768421488463063800,7.369063720703125,-0.28824102878570557,-0.8188011646270752,0.19169366359710693
1768421488473063700,7.379063720703125,-0.3209925889968872,-0.7112885117530823,0.26898470520973206
1768421488483063800,7.389063720703125,-0.36933985352516174,-0.5573130249977112,0.3020877540111542
1768421488493063700,7.399063720703125,-0.37065786123275757,-0.6216866970062256,0.1777690052986145
1768421488503063600,7.4090634765625,-0.3409935534000397,-0.848075807094574,-0.013780193403363228
1768421488513063700,7.419063720703125,-0.3231210708618164,-0.9760428071022034,-0.08787066489458084
1768421488523063600,7.4290634765625,-0.29527169466018677,-0.9838297367095947,-0.09031310677528381
1768421488533063700,7.439063720703125,-0.24051499366760254,-0.9023604393005371,-0.14264929294586182
1768421488543063800,7.449063720703125,-0.18095701932907104,-0.8529949188232422,-0.2654818892478943
1768421488553064000,7.45906396484375,-0.10009492188692093,-0.8945682048797607,-0.3862924575805664
1768421488563063800,7.469063720703125,-0.041338201612234116,-0.8863068222999573,-0.39134442806243896
1768421488573064000,7.47906396484375,0.035318758338689804,-0.8681198358535767,-0.157687708735466
1768421488583063800,7.489063720703125,0.12132975459098816,-0.7560553550720215,0.2892456650733948
1768421488593064000,7.49906396484375,0.36114686727523804,-0.7834500074386597,0.3893112540245056
1768421488603062800,7.509062744140625,0.3381550908088684,-0.58613520860672,0.08968934416770935
1768421488613063000,7.51906298828125,0.14911964535713196,-0.38597795367240906,-0.14045944809913635
1768421488623062800,7.529062744140625,0.05302823334932327,-0.18387840688228607,-0.09585769474506378
1768421488633063000,7.53906298828125,0.12994378805160522,-0.15109382569789886,0.062206774950027466
1768421488643062800,7.549062744140625,0.20386716723442078,-0.2930988669395447,0.08294074237346649
1768421488653063000,7.55906298828125,0.1833251416683197,-0.4133613705635071,0.036262184381484985
1768421488663062800,7.569062744140625,0.18129701912403107,-0.6565778851509094,0.06202308461070061
1768421488673063000,7.57906298828125,0.21127408742904663,-0.9363501667976379,0.1855572611093521
1768421488683062800,7.589062744140625,0.22748881578445435,-1.1442018747329712,0.30559441447257996
1768421488693062700,7.599062744140625,0.26446443796157837,-1.346041202545166,0.32014405727386475
1768421488703062800,7.609062744140625,0.33726248145103455,-1.4222735166549683,0.25321415066719055
1768421488713062700,7.619062744140625,0.396518349647522,-1.2980122566223145,0.21610726416110992
1768421488723062800,7.629062744140625,0.41428741812705994,-1.1069166660308838,0.269683837890625
1768421488733062700,7.639062744140625,0.415966272354126,-0.9028676152229309,0.34327444434165955
1768421488743062800,7.649062744140625,0.40051597356796265,-0.7181521654129028,0.3291037082672119
1768421488753062700,7.659062744140625,0.3428249955177307,-0.5639431476593018,0.203384667634964
1768421488763061800,7.669061767578125,0.24639756977558136,-0.4446352422237396,0.047462381422519684
1768421488773061600,7.6790615234375,0.13121159374713898,-0.3678629398345947,-0.05881559103727341
1768421488783061800,7.689061767578125,-0.006846671923995018,-0.3148273229598999,-0.072715163230896
1768421488793061600,7.6990615234375,-0.14455179870128632,-0.28835391998291016,-0.013904046267271042
1768421488803061800,7.709061767578125,-0.21662326157093048,-0.28951314091682434,0.05503074824810028
1768421488813061600,7.7190615234375,-0.2150067239999771,-0.2701069414615631,0.08894611150026321
1768421488823061800,7.729061767578125,-0.1870105266571045,-0.23182371258735657,0.08922461420297623
1768421488833061600,7.7390615234375,-0.15230554342269897,-0.18207639455795288,0.09029015153646469
1768421488843061800,7.749061767578125,-0.12127654999494553,-0.12790609896183014,0.11113797873258591
1768421488853061600,7.7590615234375,-0.10046208649873734,-0.08184565603733063,0.15077035129070282
1768421488863061800,7.769061767578125,-0.09507041424512863,-0.04688619449734688,0.20438867807388306
1768421488873061600,7.7790615234375,-0.09617429971694946,-0.0412815697491169,0.253109872341156
1768421488883061800,7.789061767578125,-0.08193003386259079,-0.0473032109439373,0.27716195583343506
1768421488893062000,7.799061767578125,-0.04884504899382591,-0.07265357673168182,0.2846241295337677
1768421488903061800,7.809061767578125,-0.00563184916973114,-0.11803935468196869,0.2679179906845093
1768421488913060600,7.819060546875,0.06695979833602905,-0.1544937640428543,0.21858371794223785
1768421488923060700,7.829060791015625,0.15521641075611115,-0.17273399233818054,0.15995097160339355
1768421488933060600,7.839060546875,0.23392507433891296,-0.17378833889961243,0.09912385046482086
1768421488943061000,7.84906103515625,0.2696414887905121,-0.1712246537208557,0.04525868594646454
1768421488953060900,7.859060791015625,0.2827027142047882,-0.14952468872070312,0.01685500703752041
1768421488963060700,7.869060791015625,0.2812311351299286,-0.1389332413673401,-0.0050002834759652615
1768421488973060900,7.879060791015625,0.27805769443511963,-0.14258097112178802,-0.03292672336101532
1768421488983060700,7.889060791015625,0.2737845778465271,-0.12952780723571777,-0.06647636741399765
1768421488993060900,7.899060791015625,0.2706071436405182,-0.11031496524810791,-0.10023725777864456
1768421489003060700,7.909060791015625,0.2709875702857971,-0.07982515543699265,-0.12993276119232178
1768421489013060900,7.919060791015625,0.2751522362232208,-0.04126498103141785,-0.15688209235668182
1768421489023060700,7.929060791015625,0.2690357267856598,0.010181354358792305,-0.18664559721946716
1768421489033060900,7.939060791015625,0.2629240155220032,0.06299663335084915,-0.21546606719493866
1768421489043060700,7.949060791015625,0.25927048921585083,0.11950407177209854,-0.24547739326953888
1768421489053060900,7.959060791015625,0.2511712908744812,0.16111861169338226,-0.28220000863075256
1768421489063060700,7.969060791015625,0.22524796426296234,0.18545983731746674,-0.320707768201828
1768421489073059800,7.979059814453125,0.1848248988389969,0.19918817281723022,-0.334791898727417
1768421489083059700,7.989059814453125,0.12669816613197327,0.1929125338792801,-0.31118452548980713
1768421489093059800,7.999059814453125,0.06331758201122284,0.16750037670135498,-0.26777899265289307
1768421489103059700,8.009059814453124,0.0042381854727864265,0.13243407011032104,-0.23236747086048126
1768421489113059800,8.019059814453126,-0.039126865565776825,0.09890567511320114,-0.2323903739452362
1768421489123059700,8.029059814453126,-0.08333118259906769,0.060723502188920975,-0.284098356962204
1768421489133059800,8.039059814453125,-0.15267109870910645,0.02248024009168148,-0.35002678632736206
1768421489143059700,8.049059814453125,-0.21428680419921875,0.010319948196411133,-0.3977918326854706
1768421489153059800,8.059059814453125,-0.24308302998542786,0.08295367658138275,-0.3892308473587036
1768421489163059700,8.069059814453125,-0.22592048346996307,0.26129230856895447,-0.2967725992202759
1768421489173059600,8.0790595703125,-0.1752367913722992,0.24945242702960968,-0.13770148158073425
1768421489183059700,8.089059814453124,-0.16529779136180878,0.11614423990249634,0.06463771313428879
1768421489193059600,8.0990595703125,-0.31882211565971375,-0.3142119348049164,0.1089567095041275
1768421489203059700,8.109059814453126,-0.5519492626190186,-0.7054786086082458,-0.0915612056851387
1768421489213059600,8.1190595703125,-0.692527174949646,-0.8714004755020142,-0.32172757387161255
1768421489223059700,8.129059814453125,-0.7486600279808044,-0.8233250379562378,-0.36745598912239075
1768421489233058800,8.139058837890625,-0.6354994177818298,-0.7021791934967041,-0.2785290479660034
1768421489243058700,8.14905859375,-0.4206077754497528,-0.4222899377346039,-0.19114606082439423
1768421489253058600,8.15905859375,-0.22050794959068298,-0.11504103988409042,-0.2075769603252411
1768421489263058700,8.16905859375,-0.07421015948057175,0.12803223729133606,-0.3253841996192932
1768421489273058600,8.17905859375,0.014191607013344765,0.3035356104373932,-0.5144215226173401
1768421489283058700,8.18905859375,0.045685429126024246,0.39406126737594604,-0.7176552414894104
1768421489293058800,8.199058837890625,0.04870332404971123,0.417787104845047,-0.803983211517334
1768421489303059000,8.209058837890625,0.023732071742415428,0.3596755266189575,-0.6806728839874268
1768421489313058800,8.219058837890625,-0.03274372220039368,0.22111953794956207,-0.3962893486022949
1768421489323059000,8.229058837890625,-0.04742808640003204,0.04140517860651016,-0.04221530258655548
1768421489333058800,8.239058837890624,-0.016730358824133873,-0.1963392049074173,0.26141461730003357
1768421489343059000,8.249058837890624,0.029328113421797752,-0.4401443302631378,0.4524274468421936
1768421489353058800,8.259058837890626,0.0851128101348877,-0.6473414897918701,0.4857582449913025
1768421489363058700,8.26905859375,0.15571700036525726,-0.7656034827232361,0.3879553973674774
1768421489373058300,8.279058349609375,0.2472863346338272,-0.8128199577331543,0.19668397307395935
1768421489383058400,8.289058349609375,0.3341595232486725,-0.8071085810661316,-0.04671511426568031
1768421489393057000,8.29905712890625,0.36794066429138184,-0.7729724049568176,-0.2740843594074249
1768421489403057400,8.309057373046874,0.3571779131889343,-0.7506954073905945,-0.44390782713890076
1768421489413057300,8.319057373046874,0.3316960036754608,-0.732505202293396,-0.5209463834762573
1768421489423057400,8.329057373046876,0.2946711480617523,-0.7161019444465637,-0.49987488985061646
1768421489433057300,8.339057373046876,0.24228250980377197,-0.7136819362640381,-0.42205730080604553
1768421489443057400,8.349057373046875,0.20639583468437195,-0.7141817808151245,-0.31590837240219116
1768421489453057300,8.359057373046875,0.19457192718982697,-0.7082738280296326,-0.19557423889636993
1768421489463057200,8.36905712890625,0.18794290721416473,-0.7067133188247681,-0.0663946196436882
1768421489473057300,8.379057373046875,0.1830275058746338,-0.6974042057991028,0.05428706109523773
1768421489483057200,8.38905712890625,0.1593126803636551,-0.6747149229049683,0.14545872807502747
1768421489493057300,8.399057373046874,0.126013845205307,-0.648662805557251,0.19513148069381714
1768421489503057200,8.40905712890625,0.0911099910736084,-0.6212944388389587,0.18522797524929047
1768421489513057300,8.419057373046876,0.05191944167017937,-0.579284131526947,0.12715640664100647
1768421489523057200,8.42905712890625,0.014566597528755665,-0.5449825525283813,0.04496467113494873
1768421489533057300,8.439057373046875,-0.023473994806408882,-0.5081299543380737,-0.030795868486166
1768421489543057200,8.44905712890625,-0.06540799140930176,-0.4752655625343323,-0.0831281766295433
1768421489553056300,8.45905615234375,-0.11975511908531189,-0.4480810761451721,-0.09720218181610107
1768421489563056000,8.46905615234375,-0.17869876325130463,-0.42603805661201477,-0.09255816787481308
1768421489573056300,8.47905615234375,-0.2217375785112381,-0.4173750579357147,-0.09345485270023346
1768421489583056100,8.48905615234375,-0.25861862301826477,-0.43510890007019043,-0.07465659826993942
1768421489593056300,8.49905615234375,-0.3006800711154938,-0.5002754330635071,-0.020231707021594048
1768421489603056000,8.50905615234375,-0.33998793363571167,-0.5905020833015442,0.03993428498506546
1768421489613056300,8.51905615234375,-0.38599270582199097,-0.6721916198730469,0.0683014765381813
1768421489623056100,8.52905615234375,-0.43620118498802185,-0.7157403826713562,0.08022851496934891
1768421489633056300,8.53905615234375,-0.47631770372390747,-0.7337840795516968,0.09913083910942078
1768421489643056000,8.54905615234375,-0.49194326996803284,-0.7228323817253113,0.1263134479522705
1768421489653056300,8.55905615234375,-0.5143574476242065,-0.6597692370414734,0.14395715296268463
1768421489663056100,8.56905615234375,-0.49548113346099854,-0.5415214896202087,0.15026846528053284
1768421489673056000,8.579055908203125,-0.4452832043170929,-0.49453556537628174,0.08660052716732025
1768421489683056000,8.58905615234375,-0.40469586849212646,-0.6854777932167053,-0.045786671340465546
1768421489693056000,8.599055908203125,-0.41400495171546936,-0.8630738854408264,-0.11862305551767349
1768421489703056400,8.609056396484375,-0.408922404050827,-0.944635808467865,-0.09440646320581436
1768421489713056300,8.61905615234375,-0.35347113013267517,-0.9731321334838867,-0.05909161642193794
1768421489723055000,8.62905517578125,-0.28454896807670593,-1.020683765411377,-0.06761740893125534
1768421489733055200,8.63905517578125,-0.2244531512260437,-1.0616329908370972,-0.10461696982383728
1768421489743055000,8.64905517578125,-0.10179344564676285,-1.0037987232208252,-0.09802570194005966
1768421489753055200,8.65905517578125,0.15226680040359497,-0.7726435661315918,-0.027168570086359978
1768421489763055400,8.669055419921875,0.4616422653198242,-0.5317872762680054,0.17319053411483765
1768421489773055200,8.67905517578125,0.6508505344390869,-0.42216360569000244,0.21629859507083893
1768421489783055400,8.689055419921875,0.6921298503875732,-0.1543840765953064,0.055531155318021774
1768421489793055200,8.69905517578125,0.6491057276725769,-0.03441586345434189,-0.19835811853408813
1768421489803055400,8.709055419921874,0.4683689475059509,0.15937815606594086,-0.37081530690193176
1768421489813055200,8.71905517578125,0.3421745300292969,0.22509191930294037,-0.4122101366519928
1768421489823055400,8.729055419921876,0.2776157855987549,0.19284272193908691,-0.3348029553890228
1768421489833055200,8.73905517578125,0.21246951818466187,-0.03020792454481125,-0.05720677599310875
1768421489843055400,8.749055419921875,0.1322181671857834,-0.48174628615379333,0.2982766926288605
1768421489853055200,8.75905517578125,-0.02341456525027752,-0.8549368977546692,0.551276445388794
1768421489863055000,8.76905517578125,-0.11263593286275864,-1.150321125984192,0.5587925314903259
1768421489873054200,8.77905419921875,-0.12415517121553421,-1.2112776041030884,0.42493143677711487
1768421489883054300,8.789054443359374,-0.06609838455915451,-1.0545775890350342,0.3116486966609955
1768421489893054200,8.79905419921875,0.05710184946656227,-0.8150525689125061,0.31150782108306885
1768421489903054300,8.809054443359376,0.20146796107292175,-0.5408679842948914,0.36617785692214966
1768421489913054200,8.81905419921875,0.341064453125,-0.2544271647930145,0.3477399945259094
1768421489923054300,8.829054443359375,0.43210211396217346,-0.029027050361037254,0.22160913050174713
1768421489933054200,8.83905419921875,0.3868004083633423,0.13542234897613525,0.054909639060497284
1768421489943054000,8.84905419921875,0.21753562986850739,0.2206082046031952,-0.06979326158761978
1768421489953054200,8.85905419921875,-0.028838729485869408,0.18211807310581207,-0.1213693767786026
1768421489963054000,8.86905419921875,-0.25051969289779663,0.06240589916706085,-0.07228825986385345
1768421489973054200,8.87905419921875,-0.3651898205280304,-0.025622230023145676,0.06500248610973358
1768421489983054000,8.88905419921875,-0.38990864157676697,-0.08647085726261139,0.2127973586320877
1768421489993054200,8.89905419921875,-0.35231757164001465,-0.09838024526834488,0.3174521028995514
1768421490003054000,8.90905419921875,-0.28739622235298157,-0.06504207104444504,0.3778453469276428
1768421490013054200,8.91905419921875,-0.2260734736919403,-0.024538055062294006,0.4091835618019104
1768421490023054000,8.92905419921875,-0.16889868676662445,-0.017216792330145836,0.4573492407798767
1768421490033053200,8.93905322265625,-0.11205218732357025,0.012100618332624435,0.527193546295166
1768421490043053000,8.949052978515626,-0.043434157967567444,0.014842570759356022,0.585996150970459
1768421490053053200,8.95905322265625,-0.006146972067654133,0.03856121376156807,0.6091094613075256
1768421490063053000,8.969052978515625,0.01903020218014717,0.08855997025966644,0.5715937614440918
1768421490073053200,8.97905322265625,0.0435030534863472,0.1074439138174057,0.4795277714729309
1768421490083053000,8.989052978515625,0.05451846495270729,0.12484023720026016,0.3413865268230438
1768421490093053200,8.99905322265625,0.05727936699986458,0.14754422008991241,0.19754788279533386
1768421490103053300,9.00905322265625,0.01473458856344223,0.1756172627210617,0.08168686181306839
1768421490113053400,9.019053466796874,-0.05163751170039177,0.19806239008903503,0.040730107575654984
1768421490123053300,9.02905322265625,-0.11274397373199463,0.19788266718387604,0.06159977614879608
1768421490133053200,9.03905322265625,-0.1686362624168396,0.19334837794303894,0.06945370137691498
1768421490143053300,9.04905322265625,-0.2001257836818695,0.20087601244449615,0.04943278431892395
1768421490153053200,9.05905322265625,-0.1960170567035675,0.19275256991386414,0.01065209973603487
1768421490163053300,9.06905322265625,-0.17067460715770721,0.16939911246299744,-0.03604675456881523
1768421490173053200,9.07905322265625,-0.14427869021892548,0.16067592799663544,-0.05492803454399109
1768421490183053300,9.08905322265625,-0.10785076022148132,0.17393919825553894,-0.031974319368600845
1768421490193053200,9.09905322265625,-0.06647775322198868,0.2097983956336975,0.0014044074341654778
1768421490203052300,9.10905224609375,-0.027729131281375885,0.245968759059906,-0.005345494020730257
1768421490213052200,9.11905224609375,-0.008684067986905575,0.29053303599357605,-0.08141602575778961
1768421490223052300,9.12905224609375,-0.0050886510871350765,0.35049694776535034,-0.20531721413135529
1768421490233052200,9.13905224609375,-0.010343067348003387,0.432049036026001,-0.33049190044403076
1768421490243052300,9.14905224609375,-0.010455581359565258,0.5118674039840698,-0.4518895745277405
1768421490253052200,9.15905224609375,-0.03316941484808922,0.5751797556877136,-0.5680726170539856
1768421490263052300,9.16905224609375,-0.09068096429109573,0.5771514177322388,-0.6288085579872131
1768421490273052200,9.17905224609375,-0.13906794786453247,0.5467583537101746,-0.6226843595504761
1768421490283052300,9.18905224609375,-0.16632315516471863,0.5078567862510681,-0.5540226697921753
1768421490293052200,9.19905224609375,-0.134804368019104,0.48734092712402344,-0.44731777906417847
1768421490303052300,9.20905224609375,-0.03298572078347206,0.5044695138931274,-0.3299689292907715
1768421490313052200,9.21905224609375,0.12766867876052856,0.5399795770645142,-0.24438798427581787
1768421490323052300,9.22905224609375,0.31494560837745667,0.5914100408554077,-0.18321309983730316
1768421490333052200,9.23905224609375,0.5046359300613403,0.642876148223877,-0.14127762615680695
1768421490343052000,9.249052001953125,0.6130000948905945,0.6689794063568115,-0.09058310836553574
1768421490353052200,9.25905224609375,0.6155239939689636,0.6333958506584167,-0.015937896445393562
1768421490363051300,9.26905126953125,0.5868628621101379,0.5356390476226807,0.019779235124588013
1768421490373051100,9.279051025390626,0.52259361743927,0.40695589780807495,-0.03185706213116646
1768421490383051300,9.28905126953125,0.4505418539047241,0.2785857021808624,-0.15847693383693695
1768421490393051100,9.299051025390625,0.3811372220516205,0.1740284115076065,-0.27407699823379517
1768421490403051300,9.30905126953125,0.35128942131996155,0.11564847081899643,-0.33119896054267883
1768421490413051100,9.319051025390625,0.37403973937034607,0.10460087656974792,-0.32727986574172974
1768421490423051000,9.329051025390624,0.3758895993232727,0.026763511821627617,-0.26199832558631897
1768421490433051100,9.339051025390624,0.2522883117198944,-0.1996014565229416,-0.14043381810188293
1768421490443051000,9.349051025390626,-0.12311123311519623,-0.4629303514957428,-0.023736432194709778
1768421490453051100,9.359051025390626,-0.5279761552810669,-0.581229031085968,-0.04085097089409828
1768421490463051000,9.369051025390625,-0.736073911190033,-0.42952919006347656,-0.3251163065433502
1768421490473051100,9.379051025390625,-0.6536445617675781,-0.10345254838466644,-0.819059431552887
1768421490483051000,9.389051025390625,-0.35238492488861084,0.26750853657722473,-1.2185295820236206
1768421490493051100,9.399051025390625,-0.03867040202021599,0.5042576789855957,-1.3233468532562256
1768421490503051000,9.409051025390625,0.12124405801296234,0.6044338941574097,-1.1141053438186646
1768421490513051100,9.419051025390624,0.17210298776626587,0.7195698022842407,-0.6850956082344055
1768421490523051000,9.429051025390624,0.14022409915924072,0.834178626537323,-0.28995877504348755
1768421490533050000,9.439050048828125,0.08540824800729752,0.924746572971344,-0.09013037383556366
1768421490543050000,9.449050048828125,0.04005427658557892,0.9361708164215088,-0.0765911117196083
1768421490553050000,9.459050048828125,-0.0011256501311436296,0.8793229460716248,-0.1341678649187088
1768421490563050000,9.469050048828125,-0.03372928500175476,0.7696650624275208,-0.1799330860376358
1768421490573050000,9.479050048828125,-0.04466049745678902,0.6697113513946533,-0.21869246661663055
1768421490583050000,9.489050048828124,-0.03919154405593872,0.5852247476577759,-0.27811381220817566
1768421490593050000,9.499050048828124,-0.03801283240318298,0.5120218992233276,-0.36477333307266235
1768421490603050000,9.509050048828126,-0.04009361192584038,0.43273648619651794,-0.39703503251075745
1768421490613049900,9.5190498046875,-0.0415668748319149,0.36227643489837646,-0.32721173763275146
1768421490623050200,9.52905029296875,-0.04607261344790459,0.3200109302997589,-0.17569687962532043
1768421490633050000,9.539050048828125,-0.035117167979478836,0.26345762610435486,-0.026939082890748978
1768421490643050200,9.54905029296875,-0.01348941307514906,0.1982216089963913,0.0611237958073616
1768421490653050000,9.559050048828125,0.006817989982664585,0.15310393273830414,0.09238877892494202
1768421490663050200,9.56905029296875,0.016692431643605232,0.13467241823673248,0.07521131634712219
1768421490673050000,9.579050048828124,-0.001451685093343258,0.12577266991138458,0.017445221543312073
1768421490683050200,9.58905029296875,-0.03979828953742981,0.11536053568124771,-0.06108453497290611
1768421490693050000,9.599050048828126,-0.08563901484012604,0.12809842824935913,-0.14377328753471375
1768421490703049200,9.60904931640625,-0.14011305570602417,0.1789359152317047,-0.20981208980083466
1768421490713049000,9.619049072265625,-0.19804079830646515,0.23559626936912537,-0.24063339829444885
1768421490723049200,9.62904931640625,-0.2590824067592621,0.28773656487464905,-0.22267276048660278
1768421490733049000,9.639049072265625,-0.299437016248703,0.32215234637260437,-0.15779389441013336
1768421490743049200,9.64904931640625,-0.3174591660499573,0.3326386511325836,-0.09059815108776093
1768421490753049000,9.659049072265624,-0.32434210181236267,0.35338735580444336,-0.06569360196590424
1768421490763049200,9.66904931640625,-0.3338877260684967,0.3747297525405884,-0.09800826758146286
1768421490773049000,9.679049072265625,-0.34790873527526855,0.39212071895599365,-0.1737445890903473
1768421490783049200,9.68904931640625,-0.3751412034034729,0.4310325086116791,-0.255357027053833
1768421490793049000,9.699049072265625,-0.4092696011066437,0.466682106256485,-0.29897773265838623
1768421490803049000,9.709049072265625,-0.4554368257522583,0.48210346698760986,-0.29718247056007385
1768421490813049000,9.719049072265625,-0.5165284276008606,0.4656597971916199,-0.2424396127462387
1768421490823049000,9.729049072265624,-0.5967226028442383,0.410105437040329,-0.1688508242368698
1768421490833049000,9.739049072265624,-0.6583007574081421,0.32754823565483093,-0.09202661365270615
1768421490843049000,9.749049072265626,-0.6813866496086121,0.2375783771276474,0.006657358258962631
1768421490853049000,9.759049072265626,-0.6786326766014099,0.18261152505874634,0.1350582093000412
1768421490863049000,9.769049072265625,-0.6577979922294617,0.1410820186138153,0.2816945016384125
1768421490873048000,9.779048095703125,-0.6196815371513367,0.021243229508399963,0.4129422605037689
1768421490883048000,9.7890478515625,-0.5770178437232971,-0.13525456190109253,0.45565780997276306
1768421490893048000,9.799048095703125,-0.5271080732345581,-0.29135096073150635,0.3727671802043915
1768421490903048000,9.8090478515625,-0.4773353338241577,-0.41458210349082947,0.24372835457324982
1768421490913048000,9.819048095703126,-0.42740264534950256,-0.5073610544204712,0.1729907989501953
1768421490923048000,9.8290478515625,-0.3784056305885315,-0.5958377122879028,0.19780774414539337
1768421490933048000,9.839048095703125,-0.31996044516563416,-0.6641155481338501,0.27391183376312256
1768421490943048000,9.8490478515625,-0.24567674100399017,-0.6552238464355469,0.34109047055244446
1768421490953048000,9.859048095703125,-0.16338346898555756,-0.5692010521888733,0.34605512022972107
1768421490963048000,9.8690478515625,-0.08172013610601425,-0.4661083519458771,0.2841517925262451
1768421490973048300,9.87904833984375,-0.03386419638991356,-0.3396289646625519,0.2072935253381729
1768421490983048200,9.889048095703124,-0.01753329299390316,-0.20715805888175964,0.14833073318004608
1768421490993048000,9.899048095703124,-0.013258387334644794,-0.11461720615625381,0.08469077199697495
1768421491003048200,9.909048095703126,-0.02800588496029377,-0.08963288366794586,-0.028879931196570396
1768421491013048000,9.919048095703126,-0.05484841763973236,-0.10805690288543701,-0.14548297226428986
1768421491023048200,9.929048095703125,-0.08379857242107391,-0.10429980605840683,-0.1599561870098114
1768421491033048000,9.939048095703125,-0.08130665123462677,-0.06327727437019348,-0.02593659982085228
1768421491043047200,9.949047119140625,-0.057694464921951294,0.01089537888765335,0.1972317099571228
1768421491053047300,9.95904736328125,-0.018695667386054993,0.0956086665391922,0.39521774649620056
1768421491063047200,9.969047119140624,0.017182253301143646,0.14952528476715088,0.4913581311702728
1768421491073047000,9.979047119140626,0.03321901336312294,0.126878559589386,0.48106980323791504
1768421491083047200,9.989047119140626,0.026336662471294403,0.017651772126555443,0.39082154631614685
1768421491093047000,9.999047119140625,-0.008727049455046654,-0.13221655786037445,0.2902134358882904
1768421491103047200,10.009047119140625,-0.04229690879583359,-0.2789178192615509,0.2502441704273224
1768421491113047000,10.019047119140625,-0.030743317678570747,-0.46498969197273254,0.2525595426559448
1768421491123047200,10.029047119140625,0.020258964970707893,-0.666002094745636,0.1595393270254135
1768421491133047000,10.039047119140625,0.13621166348457336,-0.8153242468833923,-0.16293220221996307
1768421491143047200,10.049047119140624,0.28813669085502625,-0.8279224634170532,-0.6524139046669006
1768421491153047000,10.059047119140626,0.4765838086605072,-0.7547308206558228,-0.9482210874557495
1768421491163047200,10.069047119140626,0.6859779357910156,-0.7813313603401184,-0.839419960975647
1768421491173047000,10.079047119140625,0.7123839855194092,-0.8670566082000732,-0.6322540044784546
1768421491183047200,10.089047119140625,0.5995082259178162,-0.9015207886695862,-0.5974606275558472
1768421491193047000,10.099047119140625,0.4648822844028473,-0.8685234189033508,-0.6480095982551575
1768421491203047000,10.109046875,0.3156002461910248,-0.8044678568840027,-0.6255398392677307
1768421491213046000,10.1190458984375,0.18933363258838654,-0.8073195219039917,-0.5819990634918213
1768421491223046100,10.129046142578124,0.10744766145944595,-0.8338893055915833,-0.6210126876831055
1768421491233046000,10.1390458984375,0.05763855576515198,-0.7758963108062744,-0.7050290703773499
1768421491243046100,10.149046142578126,0.011657082475721836,-0.6545358300209045,-0.7529367208480835
1768421491253046000,10.1590458984375,-0.06798981130123138,-0.5526260137557983,-0.7426473498344421
1768421491263046100,10.169046142578125,-0.1522291898727417,-0.5450007915496826,-0.730799674987793
1768421491273046000,10.1790458984375,-0.21639832854270935,-0.6245318651199341,-0.7355301976203918
1768421491283046000,10.1890458984375,-0.2526262104511261,-0.7074568271636963,-0.7587220668792725
1768421491293046000,10.1990458984375,-0.2556001543998718,-0.7178665995597839,-0.7846945524215698
1768421491303046000,10.2090458984375,-0.23238380253314972,-0.7616724371910095,-0.8099954724311829
1768421491313046000,10.2190458984375,-0.1955871731042862,-0.8208745121955872,-0.8385778665542603
1768421491323046100,10.229046142578126,-0.1516372263431549,-0.8253719806671143,-0.8805754780769348
1768421491333046300,10.23904638671875,-0.0814802423119545,-0.7560881972312927,-0.9174450635910034
1768421491343046100,10.249046142578125,-0.0045274063013494015,-0.683729350566864,-0.9547708630561829
1768421491353046300,10.25904638671875,0.042417462915182114,-0.5966274738311768,-0.9894660115242004
1768421491363046100,10.269046142578125,0.08043541759252548,-0.4896323084831238,-0.9894838333129883
1768421491373046300,10.27904638671875,0.11227191239595413,-0.3891618847846985,-0.981948971748352
1768421491383046100,10.289046142578124,0.10934507101774216,-0.3425307869911194,-1.0134575366973877
1768421491393046000,10.2990458984375,0.061498451977968216,-0.3427606225013733,-1.0853036642074585
1768421491403045000,10.309045166015625,0.03027806244790554,-0.36186763644218445,-1.1300297975540161
1768421491413045200,10.319045166015625,0.029512669891119003,-0.38453567028045654,-1.145278811454773
1768421491423045000,10.329045166015625,0.04948784410953522,-0.3622259795665741,-1.1764881610870361
1768421491433045200,10.339045166015625,0.07115399092435837,-0.2987774908542633,-1.1986174583435059
1768421491443045000,10.349045166015625,0.10244637727737427,-0.24760793149471283,-1.2026118040084839
1768421491453045200,10.359045166015624,0.1275637000799179,-0.2071201503276825,-1.20882248878479
1768421491463045000,10.369045166015624,0.11665578931570053,-0.17403943836688995,-1.2423524856567383
1768421491473045000,10.379044921875,0.06454944610595703,-0.1904546320438385,-1.3043184280395508
1768421491483045000,10.389045166015626,0.016409892588853836,-0.23099543154239655,-1.3509811162948608
1768421491493045000,10.399044921875,0.013324087485671043,-0.31035682559013367,-1.4037830829620361
1768421491503045000,10.409045166015625,0.05887000262737274,-0.4236346483230591,-1.5137215852737427
1768421491513045000,10.419044921875,0.15668363869190216,-0.44372475147247314,-1.562182068824768
1768421491523045000,10.429045166015625,0.32683247327804565,-0.32324784994125366,-1.4339479207992554
1768421491533045000,10.439044921875,0.5278681516647339,-0.1665053814649582,-1.2464027404785156
1768421491543045000,10.449045166015624,0.6500826478004456,-0.06007070094347,-1.2128851413726807
1768421491553045000,10.459044921875,0.6735621690750122,-0.010498890653252602,-1.283540964126587
1768421491563045000,10.469045166015626,0.6432253122329712,0.0034964606165885925,-1.304232120513916
1768421491573044000,10.4790439453125,0.5613360404968262,0.020299674943089485,-1.2554256916046143
1768421491583044000,10.489044189453125,0.4769226014614105,0.09303868561983109,-1.2591679096221924
1768421491593044000,10.4990439453125,0.46001020073890686,0.08144088089466095,-1.3718364238739014
1768421491603044000,10.509044189453125,0.4785069525241852,0.03594597801566124,-1.542781114578247
1768421491613044000,10.5190439453125,0.48444393277168274,0.03125055879354477,-1.7353490591049194
1768421491623044000,10.529044189453124,0.4998006522655487,-0.03171598166227341,-1.8510141372680664
1768421491633044000,10.5390439453125,0.50289386510849,-0.10142448544502258,-1.9278292655944824
1768421491643044000,10.549044189453125,0.48979759216308594,-0.0875493511557579,-2.026132106781006
1768421491653044000,10.5590439453125,0.44996336102485657,-0.05774325877428055,-2.1923582553863525
1768421491663044000,10.569044189453125,0.4158588647842407,-0.09731052815914154,-2.397411823272705
1768421491673044200,10.579044189453125,0.3799240291118622,-0.10888702422380447,-2.5500404834747314
1768421491683044000,10.589044189453125,0.35646378993988037,-0.07815124094486237,-2.6967411041259766
1768421491693044200,10.599044189453124,0.3462494909763336,-0.11598943173885345,-2.831918478012085
1768421491703044000,10.609044189453124,0.3409406840801239,-0.16821736097335815,-2.9134292602539062
1768421491713044200,10.619044189453126,0.36264410614967346,-0.1301506757736206,-3.0295164585113525
1768421491723044000,10.629044189453126,0.42726224660873413,-0.008730772882699966,-3.110661268234253
1768421491733044200,10.639044189453125,0.49015918374061584,0.12161658704280853,-3.08778715133667
1768421491743044000,10.649044189453125,0.5566479563713074,0.31629320979118347,-3.0440773963928223
1768421491753043200,10.659043212890625,0.5901683568954468,0.44430577754974365,-3.0338494777679443
1768421491763043000,10.66904296875,0.5573233962059021,0.3673917353153229,-3.119849681854248
1768421491773043200,10.679043212890624,0.5206695199012756,0.014150027185678482,-3.3472039699554443
1768421491783043000,10.68904296875,0.6142520308494568,-0.15527775883674622,-3.5045382976531982
1768421491793043200,10.699043212890626,0.7819539308547974,-0.029342997819185257,-3.4167191982269287
1768421491803043000,10.70904296875,0.95571368932724,0.13786892592906952,-3.308654546737671
1768421491813043200,10.719043212890625,1.0018845796585083,0.12417840212583542,-3.321180820465088
1768421491823043000,10.72904296875,0.7692221999168396,0.04965962842106819,-3.1437811851501465
1768421491833043200,10.739043212890625,0.6186904907226562,0.06314081698656082,-2.8328964710235596
1768421491843043000,10.74904296875,0.6879857778549194,0.1047825738787651,-2.6531500816345215
1768421491853043200,10.759043212890624,0.8307895064353943,-0.12529350817203522,-3.047368288040161
1768421491863043000,10.76904296875,0.9576174020767212,-0.09729368984699249,-3.6548638343811035
1768421491873043000,10.77904296875,1.026360273361206,0.06335297971963882,-3.8497209548950195
1768421491883043000,10.78904296875,1.0090763568878174,0.07088161259889603,-3.6336007118225098
1768421491893043000,10.79904296875,0.8378496766090393,-0.8729307055473328,-3.3148725032806396
1768421491903043000,10.80904296875,0.38881638646125793,-0.9210028648376465,-2.6138179302215576
1768421491913043000,10.81904296875,-0.17624644935131073,-0.34771984815597534,-1.6388038396835327
1768421491923043000,10.82904296875,-0.5801613330841064,0.447672963142395,-0.859706699848175
1768421491933042200,10.839042236328124,-0.8278084397315979,0.5591390132904053,-1.5925897359848022
1768421491943042000,10.8490419921875,-0.7441951036453247,0.7104656100273132,-2.0631766319274902
1768421491953042000,10.8590419921875,-0.26820728182792664,2.101095199584961,-2.2703402042388916
1768421491963042000,10.8690419921875,0.32722973823547363,2.8368232250213623,-2.172635555267334
1768421491973042000,10.8790419921875,0.7969815135002136,2.9954466819763184,-2.3992979526519775
1768421491983042000,10.8890419921875,0.7600007057189941,2.397873878479004,-2.697882890701294
1768421491993042000,10.8990419921875,0.2123110145330429,2.0465621948242188,-2.496579647064209
1768421492003042000,10.9090419921875,-0.35947349667549133,1.8527146577835083,-1.7118885517120361
1768421492013042200,10.919042236328124,-0.7787171006202698,1.4853994846343994,-0.5633132457733154
1768421492023042300,10.929042236328126,-1.0902693271636963,1.0956834554672241,0.5253089666366577
1768421492033042200,10.939042236328126,-1.0303572416305542,0.8272636532783508,0.7838515639305115
1768421492043042300,10.949042236328125,-0.9116908311843872,0.6074039936065674,0.47558268904685974
1768421492053042200,10.959042236328125,-0.8844158053398132,0.4805712401866913,-0.009037784300744534
1768421492063042000,10.9690419921875,-0.7220658659934998,0.42945271730422974,-0.4350053369998932
1768421492073042200,10.979042236328125,-0.36172792315483093,0.41455578804016113,-0.4702405631542206
1768421492083042000,10.9890419921875,-0.1102384626865387,0.4256233870983124,-0.1849958300590515
1768421492093042200,10.999042236328124,-0.02859313413500786,0.521263062953949,0.03996484726667404
1768421492103042000,11.0090419921875,-0.025486866012215614,0.4986094534397125,0.1170315369963646
1768421492113042200,11.019042236328126,-0.11546842008829117,0.4420827627182007,0.08054516464471817
1768421492123041300,11.029041259765625,-0.2671808898448944,0.4616684913635254,-0.01838834211230278
1768421492133041200,11.039041259765625,-0.375326544046402,0.46673381328582764,-0.09798703342676163
1768421492143041000,11.049041015625,-0.4180508553981781,0.5727025866508484,-0.14984916150569916
1768421492153041200,11.059041259765625,-0.4102432429790497,0.7436801791191101,-0.16523078083992004
1768421492163041000,11.069041015625,-0.3824979066848755,0.8414880037307739,-0.18444256484508514
1768421492173041200,11.079041259765624,-0.3829309344291687,0.8807624578475952,-0.21966233849525452
1768421492183041000,11.089041015625,-0.4339483976364136,0.8876475095748901,-0.23427170515060425
1768421492193041200,11.099041259765626,-0.48464593291282654,0.8493784070014954,-0.24549080431461334
1768421492203041000,11.109041015625,-0.494838148355484,0.8062505125999451,-0.26398539543151855
1768421492213041200,11.119041259765625,-0.45780476927757263,0.787274181842804,-0.2714851200580597
1768421492223041000,11.129041015625,-0.427035391330719,0.7839315533638,-0.25834566354751587
1768421492233041200,11.139041259765625,-0.4071091115474701,0.7803144454956055,-0.22918033599853516
1768421492243041000,11.149041015625,-0.39992615580558777,0.8225593566894531,-0.21487957239151
1768421492253041200,11.159041259765624,-0.3799436688423157,0.8699839115142822,-0.23342688381671906
1768421492263041000,11.169041015625,-0.35574233531951904,0.9127230048179626,-0.2714405357837677
1768421492273041000,11.179041015625,-0.3168790936470032,0.9408223032951355,-0.2988165020942688
1768421492283041000,11.189041015625,-0.26894429326057434,0.9163059592247009,-0.3323271572589874
1768421492293041000,11.199041015625,-0.20996086299419403,0.8867022395133972,-0.34164369106292725
1768421492303040000,11.2090400390625,-0.15919643640518188,0.8311798572540283,-0.31307876110076904
1768421492313040100,11.2190400390625,-0.15720012784004211,0.745798647403717,-0.2745918035507202
1768421492323040000,11.2290400390625,-0.14536945521831512,0.6946662068367004,-0.2282828390598297
1768421492333039900,11.239039794921876,-0.11228740215301514,0.6723989844322205,-0.17868094146251678
1768421492343040000,11.2490400390625,-0.07309482246637344,0.6385458707809448,-0.10516305267810822
1768421492353040000,11.259039794921875,-0.027624275535345078,0.6104676723480225,-0.029103972017765045
1768421492363040300,11.269040283203125,0.024879654869437218,0.6001420617103577,0.033738844096660614
1768421492373040600,11.27904052734375,0.041544120758771896,0.5585799813270569,0.0790509283542633
1768421492383040800,11.289040771484375,0.04196015000343323,0.46750450134277344,0.09669796377420425
1768421492393040600,11.29904052734375,0.05057680979371071,0.34495168924331665,0.10955996811389923
1768421492403040800,11.309040771484375,0.06560207158327103,0.23423504829406738,0.13416245579719543
1768421492413040600,11.31904052734375,0.10457424074411392,0.1825803816318512,0.15676149725914001
1768421492423040500,11.32904052734375,0.1510494500398636,0.20176254212856293,0.17930595576763153
1768421492433040600,11.33904052734375,0.19209274649620056,0.2652967572212219,0.20075611770153046
1768421492443040500,11.34904052734375,0.22759072482585907,0.32212963700294495,0.21964679658412933
1768421492453040600,11.35904052734375,0.25559091567993164,0.3481053113937378,0.2301124930381775
1768421492463040500,11.36904052734375,0.2714424729347229,0.3431450426578522,0.2293727844953537
1768421492473040600,11.37904052734375,0.2932170033454895,0.3097921311855316,0.22145281732082367
1768421492483040500,11.38904052734375,0.30890557169914246,0.25992095470428467,0.2153306007385254
1768421492493040600,11.39904052734375,0.32565179467201233,0.23633572459220886,0.21222083270549774
1768421492503039500,11.40903955078125,0.33718112111091614,0.24598020315170288,0.20374606549739838
1768421492513039600,11.41903955078125,0.3383859395980835,0.26601704955101013,0.20151832699775696
1768421492523039500,11.42903955078125,0.3306232988834381,0.2676909863948822,0.19962601363658905
1768421492533039600,11.43903955078125,0.32382825016975403,0.27369004487991333,0.19342456758022308
1768421492543039500,11.44903955078125,0.3277047276496887,0.2821594774723053,0.17579911649227142
1768421492553039600,11.45903955078125,0.3294173777103424,0.282478004693985,0.14427074790000916
1768421492563039500,11.46903955078125,0.3289685547351837,0.2850155830383301,0.11555954068899155
1768421492573039600,11.47903955078125,0.32690539956092834,0.27902719378471375,0.10159365832805634
1768421492583039500,11.48903955078125,0.3180859088897705,0.25933128595352173,0.07753971219062805
1768421492593039600,11.49903955078125,0.30679595470428467,0.25287631154060364,0.054292187094688416
1768421492603039500,11.50903955078125,0.29651010036468506,0.2617071866989136,0.05327099561691284
1768421492613039600,11.51903955078125,0.28532296419143677,0.26531365513801575,0.0733933076262474
1768421492623039500,11.52903955078125,0.274450421333313,0.22489026188850403,0.08587261289358139
1768421492633039600,11.53903955078125,0.27769070863723755,0.15936239063739777,0.09587091952562332
1768421492643039700,11.549039794921875,0.2798484265804291,0.09033025056123734,0.11921632289886475
1768421492653039600,11.55903955078125,0.274364173412323,0.028778472915291786,0.14198555052280426
1768421492663039700,11.569039794921874,0.26127392053604126,-0.020261963829398155,0.1594051569700241
1768421492673039600,11.57903955078125,0.2470337152481079,-0.04293345287442207,0.17119097709655762
1768421492683038700,11.589038818359375,0.22559913992881775,-0.035899557173252106,0.19284392893314362
1768421492693038600,11.59903857421875,0.20147861540317535,-0.032628133893013,0.21739988029003143
1768421492703038700,11.609038818359375,0.16073967516422272,-0.0791342556476593,0.25054338574409485
1768421492713038600,11.61903857421875,0.119135782122612,-0.1550745666027069,0.27561652660369873
1768421492723038700,11.629038818359374,0.09507761150598526,-0.22700053453445435,0.28571343421936035
1768421492733038600,11.63903857421875,0.08950920403003693,-0.28696826100349426,0.27975165843963623
1768421492743038700,11.649038818359376,0.0793846845626831,-0.33891263604164124,0.26133599877357483
1768421492753038600,11.65903857421875,0.05052241310477257,-0.36252954602241516,0.24263472855091095
1768421492763038700,11.669038818359375,0.020370744168758392,-0.3549361824989319,0.22339637577533722
1768421492773038600,11.67903857421875,-0.005157251842319965,-0.31454479694366455,0.2011677771806717
1768421492783038700,11.689038818359375,-0.03998338058590889,-0.2962997853755951,0.1800100952386856
1768421492793038600,11.69903857421875,-0.08672372251749039,-0.321179062128067,0.17244112491607666
1768421492803038700,11.709038818359375,-0.1326206624507904,-0.38950666785240173,0.17811758816242218
1768421492813038600,11.71903857421875,-0.1633301079273224,-0.446536660194397,0.1858721822500229
1768421492823038500,11.72903857421875,-0.17118065059185028,-0.49961593747138977,0.1893141269683838
1768421492833038600,11.73903857421875,-0.18758146464824677,-0.5225100517272949,0.17835575342178345
1768421492843038500,11.74903857421875,-0.2036014050245285,-0.5190464854240417,0.18501557409763336
1768421492853038600,11.75903857421875,-0.20993387699127197,-0.4949962794780731,0.2038784772157669
1768421492863038500,11.76903857421875,-0.2080380618572235,-0.4595000147819519,0.21558760106563568
1768421492873038600,11.77903857421875,-0.19468683004379272,-0.4404144883155823,0.2426953911781311
1768421492883037400,11.789037353515624,-0.17076240479946136,-0.4570625126361847,0.27318185567855835
1768421492893037600,11.79903759765625,-0.1500059962272644,-0.46165621280670166,0.2806307375431061
1768421492903037400,11.809037353515626,-0.12900769710540771,-0.46440389752388,0.2557612359523773
1768421492913037600,11.81903759765625,-0.11898223310709,-0.48730307817459106,0.20877590775489807
1768421492923037400,11.829037353515625,-0.12916991114616394,-0.4725266098976135,0.1623213142156601
1768421492933037600,11.83903759765625,-0.1333838403224945,-0.39987316727638245,0.15929703414440155
1768421492943037400,11.849037353515625,-0.11489477753639221,-0.316168874502182,0.20280663669109344
1768421492953037600,11.85903759765625,-0.0776563286781311,-0.3037513494491577,0.2517315447330475
1768421492963037400,11.869037353515624,-0.024645840749144554,-0.3139127492904663,0.27693361043930054
1768421492973037600,11.87903759765625,0.0260492954403162,-0.28243446350097656,0.2865031361579895
1768421492983037700,11.88903759765625,0.08007435500621796,-0.2687998116016388,0.2839467525482178
1768421492993037800,11.899037841796876,0.11979886889457703,-0.3030397891998291,0.243507981300354
1768421493003037700,11.90903759765625,0.1311488002538681,-0.29652389883995056,0.2047828882932663
1768421493013037600,11.91903759765625,0.12316011637449265,-0.21535684168338776,0.2043759673833847
1768421493023037700,11.92903759765625,0.13212068378925323,-0.1681177020072937,0.21455729007720947
1768421493033037600,11.93903759765625,0.13890987634658813,-0.21699868142604828,0.25873541831970215
1768421493043037700,11.94903759765625,0.13115696609020233,-0.2676624059677124,0.3428584635257721
1768421493053037600,11.95903759765625,0.12346628308296204,-0.3674936592578888,0.4023638665676117
1768421493063037700,11.96903759765625,0.12226322293281555,-0.4345759451389313,0.3778369128704071
1768421493073037600,11.97903759765625,0.1276201605796814,-0.40905168652534485,0.34869977831840515
1768421493083036700,11.98903662109375,0.12343667447566986,-0.33600082993507385,0.3129023015499115
1768421493093036500,11.99903662109375,0.11314781755208969,-0.28632408380508423,0.2925621569156647
1768421493103036700,12.00903662109375,0.0933222845196724,-0.24451154470443726,0.2952761650085449
1768421493113036500,12.01903662109375,0.0763547495007515,-0.1931879073381424,0.30566808581352234
1768421493123036700,12.02903662109375,0.05547834932804108,-0.19651377201080322,0.30027687549591064
1768421493133036500,12.03903662109375,0.02101038582623005,-0.22523117065429688,0.28986629843711853
1768421493143036700,12.04903662109375,-0.018394559621810913,-0.2048826515674591,0.2691439688205719
1768421493153036500,12.05903662109375,-0.040302254259586334,-0.18345512449741364,0.245489239692688
1768421493163036700,12.06903662109375,-0.05303402990102768,-0.19815151393413544,0.20834879577159882
1768421493173036500,12.07903662109375,-0.07504605501890182,-0.20433971285820007,0.15766604244709015
1768421493183036700,12.08903662109375,-0.08432099968194962,-0.1570020467042923,0.12273222953081131
1768421493193036500,12.09903662109375,0.009374064393341541,-0.045850493013858795,0.07894400507211685
1768421493203036700,12.10903662109375,-0.04736204817891121,-0.1300279051065445,-0.14733560383319855
1768421493213036500,12.11903662109375,-0.1655808389186859,-0.3149053454399109,-0.09518186002969742
1768421493223036400,12.129036376953126,-0.25189441442489624,-0.3224940299987793,0.04940301924943924
1768421493233036500,12.13903662109375,-0.27439412474632263,0.041393645107746124,-0.16203145682811737
1768421493243036400,12.149036376953125,-0.21807608008384705,0.008747130632400513,-0.49744346737861633
1768421493253036500,12.15903662109375,-0.19695907831192017,-0.14351564645767212,-0.5874596834182739
1768421493263036400,12.169036376953125,-0.19796404242515564,-0.08369950205087662,-0.5083123445510864
1768421493273035500,12.179035400390624,-0.19364306330680847,0.004434347152709961,-0.4500780999660492
1768421493283035400,12.189035400390624,-0.2094719558954239,0.02594568394124508,-0.478098064661026
1768421493293035500,12.199035400390626,-0.23646867275238037,0.04064233973622322,-0.5504817366600037
1768421493303035400,12.209035400390626,-0.24641864001750946,0.04284881055355072,-0.6113668084144592
1768421493313035500,12.219035400390625,-0.24766047298908234,0.03182385489344597,-0.617586076259613
1768421493323035400,12.229035400390625,-0.2503539025783539,0.02167338877916336,-0.5833233594894409
1768421493333035800,12.239035888671875,-0.2548844516277313,0.019160430878400803,-0.5333376526832581
1768421493343035600,12.24903564453125,-0.24690206348896027,-0.008039469830691814,-0.4869481027126312
1768421493353035800,12.259035888671875,-0.23354871571063995,-0.041763611137866974,-0.44722917675971985
1768421493363035600,12.26903564453125,-0.20746184885501862,-0.06892044097185135,-0.3969072699546814
1768421493373035800,12.279035888671874,-0.16539162397384644,-0.08907763659954071,-0.33178314566612244
1768421493383035400,12.289035400390626,-0.11036598682403564,-0.0903906524181366,-0.23837482929229736
