time,seconds_elapsed,z,y,x
1768418361065449200,0.05344921875,-0.006226929957140237,0.004192190992832184,0.014929049822199158
1768418361075451100,0.063451171875,-0.0065343702048063276,0.004195113602280616,0.015373364090174436
1768418361085452300,0.073452392578125,0.009722352591156959,-0.024984803652763364,0.01692975865274202
1768418361095453200,0.083453125,0.0005114749197848141,-0.046534956681728364,0.01099249582455959
1768418361105454000,0.0934541015625,-0.04482113850116729,-0.04878068978190422,0.02057125239367597
1768418361115456300,0.103456298828125,-0.07184062631931155,-0.009720014503598213,0.01733417016859166
1768418361125457400,0.11345751953125,-0.09264319411767646,-0.007761281651258468,0.025120435564056968
1768418361135458300,0.123458251953125,-0.06825695001310668,-0.028542788395285606,0.0256530400368385
1768418361145459200,0.133459228515625,-0.04745790761238895,-0.05560147571265697,0.03399083380126394
1768418361155460400,0.14346044921875,-0.0371457633013837,-0.06454699871242046,0.03747927413864527
1768418361165462300,0.153462158203125,-0.012440361111890523,-0.05942366434931755,0.03952407783924136
1768418361175463200,0.163463134765625,0.0338292134987656,-0.07555237685143947,0.04066657153840642
1768418361185464000,0.173464111328125,0.06487609366946853,-0.056525020298361775,0.03421410289681517
1768418361195465200,0.18346533203125,0.06377838896010071,-0.01790215191543102,0.008603020571870729
1768418361205466400,0.19346630859375,0.0688222100798972,0.005453004708886146,0.004608101150230504
1768418361215468300,0.20346826171875,0.02296760034514591,0.01982932058572769,-0.0200293138369685
1768418361225469400,0.213469482421875,-0.01622108522700146,0.049024435409903526,-0.008439938964648171
1768418361235470300,0.22347021484375,-0.011289474043715745,0.03243219704926014,-0.005299421582370996
1768418361245471200,0.23347119140625,-0.010139134964812547,0.0418757326990366,0.029291880596382543
1768418361255472000,0.24347216796875,0.012170330265164375,0.038304303953051566,0.07446878286581486
1768418361265474300,0.253474365234375,0.010675707793235779,0.0012105448335409164,0.0968195299542509
1768418361275475200,0.26347509765625,-0.004025035998690873,0.032201310902833936,0.07585944263976999
1768418361285476000,0.27347607421875,-0.019681436547636984,0.06334113005399704,0.0994621351512149
1768418361295477200,0.283477294921875,-0.029770868885517117,0.07981295690536498,0.10285365901933982
1768418361305478400,0.293478515625,-0.033612365010846405,0.13803250616192816,0.006999677028460428
1768418361315480300,0.303480224609375,-0.06926993558108806,0.14942834492325782,-0.06199006250491365
1768418361325481200,0.313481201171875,-0.15596680678129196,0.1704132652848959,-0.08177075817594304
1768418361335482400,0.323482421875,-0.2655722598820925,0.13424421979486942,-0.21305925170406698
1768418361345483300,0.333483154296875,-0.25405542508959766,0.1413286250978708,-0.2896950398780405
1768418361355484200,0.343484130859375,-0.3014946371346712,0.0469733480989933,-0.25437735052034255
1768418361365486000,0.353486083984375,-0.24526772300004956,-0.12069967856705188,-0.14796901296041906
1768418361375487200,0.3634873046875,-0.099685541244084,-0.22732757716178892,-0.0906517006400507
1768418361385488400,0.37348828125,-0.12494682375066912,-0.2552612937480211,0.04766406117635779
1768418361395489300,0.3834892578125,-0.1965723734140396,-0.3077554510951042,0.1508588435172569
1768418361405490200,0.393490234375,-0.28901334122419353,-0.2653974878370762,0.15577731209117918
1768418361415492400,0.403492431640625,-0.4124854071140289,-0.20165596028864383,0.11996151875192299
1768418361425493200,0.4134931640625,-0.5195248091191053,-0.11368015519380568,0.02609513038168661
1768418361435494100,0.423494140625,-0.5829419270187616,-0.05758592752814293,-0.0258005404824391
1768418361445495300,0.433495361328125,-0.6147042619824409,-0.022149287965893744,-0.04537132886298932
1768418361455496200,0.44349609375,-0.6111041916638612,-0.0202384859085083,-0.034494445075001566
1768418361465498000,0.453498046875,-0.5392015694916248,-0.04123217409849167,0.00882388764778152
1768418361475499300,0.463499267578125,-0.3995230496883392,-0.047268531653285026,0.09466262591499834
1768418361485500400,0.47350048828125,-0.31386955006122585,-0.059742813301086425,0.11939813098181039
1768418361495501300,0.483501220703125,-0.30550387277603147,-0.08643617443740367,0.153552950572595
1768418361505502200,0.493502197265625,-0.371716174352169,-0.0837993961930275,0.18083521751277148
1768418361515504400,0.50350439453125,-0.46964580270648,-0.052580666586756704,0.22316059367544946
1768418361525505300,0.51350537109375,-0.4659411029696464,-0.002059270617365837,0.27327841381262985
1768418361535506200,0.523506103515625,-0.36455928833484647,0.01794189940392971,0.2955824539488181
1768418361545507000,0.533507080078125,-0.2106196034669876,0.014162380865216255,0.25319405901990827
1768418361555508200,0.54350830078125,-0.07468903802037238,-0.028655601119995114,0.1875233535071835
1768418361565510400,0.553510498046875,0.010434884774684905,-0.03688625384867191,0.12056708342963829
1768418361575511300,0.56351123046875,0.04326280314326286,-0.07277823596298694,0.06806593921934254
1768418361585512200,0.57351220703125,0.0769581519961357,-0.05688450126051903,0.04410115366354585
1768418361595513000,0.58351318359375,0.1226852994263172,-0.007020692417025565,0.025584513978427273
1768418361605514000,0.593513916015625,0.16332710641622541,0.01710837118923664,0.017514869630895553
1768418361615516200,0.60351611328125,0.22701778056025504,0.033760230782628055,0.04032190911946818
1768418361625517000,0.61351708984375,0.23945056115388869,0.040536008527874944,0.055118003044649956
1768418361635518000,0.62351806640625,0.23280337822437286,0.032499417066574096,0.09566236840891651
1768418361645519400,0.633519287109375,0.20978081455528735,0.044810617107152936,0.14932958812336436
1768418361655520300,0.643520263671875,0.13762041822969912,0.046347909677028655,0.15687369249314068
1768418361665522200,0.653522216796875,0.08775602486431598,0.04714227492511272,0.07723480437989347
1768418361675523300,0.6635234375,0.1093137766778469,0.02803893052637577,0.017847069860482588
1768418361685524200,0.673524169921875,0.13137071018517016,0.041103579282760615,-0.07116524780839681
1768418361695525000,0.683525146484375,0.18897534241378305,-0.01856441521644592,-0.07474644902972503
1768418361705527000,0.693527099609375,0.2307353397786617,-0.06672609631717205,-0.10256872286442667
1768418361715528200,0.703528076171875,0.26054654067456723,-0.10278934334516525,-0.07456279955850914
1768418361725529000,0.713529052734375,0.247902163156867,-0.12825637755692004,-0.03753997765020467
1768418361735530200,0.7235302734375,0.26753800699710845,-0.14178338312804697,0.04735537425309885
1768418361745531100,0.73353125,0.3211690594196319,-0.12496318123042582,0.07165304502507205
1768418361755533300,0.743533203125,0.3289747647345066,-0.0936544352531433,0.00285873216567561
1768418361765534200,0.7535341796875,0.3077420070916414,-0.01073708259165287,-0.06550671059004962
1768418361775535000,0.76353515625,0.22088205428421495,0.0723182172358036,-0.10490439013722352
1768418361785536000,0.773535888671875,0.18821663300096989,0.11810732398629188,-0.10582086566132493
1768418361795537200,0.783537109375,0.16561024891734122,0.12094400871694087,-0.09953402221049182
1768418361805539000,0.7935390625,0.1982651305402629,0.08995499621331692,-0.05385602028481662
1768418361815540000,0.8035400390625,0.23217328189359976,0.03696457978188991,-0.026765748235804493
1768418361825541400,0.813541259765625,0.24231413389146328,0.0028238252490758895,0.005946489026720519
1768418361835542300,0.823542236328125,0.2456131937031634,-0.05137947410345077,-0.01637424480347545
1768418361845543200,0.833543212890625,0.22502516370462253,-0.0945130979090929,-0.03900694493022747
1768418361855545300,0.84354541015625,0.18202187001407144,-0.09573533318042754,-0.07560368691356852
1768418361865546200,0.853546142578125,0.15379938134802504,-0.06835691238939762,-0.05461644673068076
1768418361875547100,0.863547119140625,0.1543745691537857,-0.001595160236954689,-0.05283936318871565
1768418361885548000,0.873548095703125,0.1601601302852854,0.05607435392141342,-0.09115403327215463
1768418361895549200,0.883549072265625,0.17943009995520115,0.08729249900579451,-0.07239098564449231
1768418361905551000,0.893551025390625,0.17687807738482952,0.08532675189077854,-0.027165924251242538
1768418361915552300,0.90355224609375,0.21734628137350082,0.06274082607328892,0.0023914114814484492
1768418361925553200,0.91355322265625,0.23050854528546333,0.011744213807582855,0.03190667077123653
1768418361935554300,0.92355419921875,0.2558031090071425,-0.056606853362917896,0.021160569189488887
1768418361945555200,0.93355517578125,0.26945876419292764,-0.08020809370279312,-0.033008453434100374
1768418361955557000,0.94355712890625,0.24010758202420546,-0.06953180138766765,-0.0659292605507886
1768418361965558000,0.95355810546875,0.2123012729436159,-0.05121522345244884,-0.059093245084863154
1768418361975559200,0.96355908203125,0.1949444616849534,-0.023915128594636917,-0.11335572727872058
1768418361985560000,0.97356005859375,0.19856440574778242,0.014016834914684294,-0.13782900121277197
1768418361995561200,0.983561279296875,0.22817339860247446,0.04447334797680378,-0.15276022929232566
1768418362005563100,0.993563232421875,0.2040863840396516,0.06206687233448028,-0.15243514379011466
1768418362015564300,1.003564208984375,0.20933190174400806,0.06949263842105866,-0.1789350099146366
1768418362025565200,1.013565185546875,0.21550154855595902,0.04503974968791008,-0.16579335039928556
1768418362035566000,1.023566162109375,0.21885317880511282,0.04467325446307659,-0.16921638365052638
1768418362045567200,1.033567138671875,0.20507365977764128,0.03591594751179218,-0.16964175118943675
1768418362055569200,1.043569091796875,0.18101884871767832,0.011743629285693167,-0.146154346487578
1768418362065570000,1.053570068359375,0.17437924630641935,-0.019164719197154043,-0.13074165503401308
1768418362075571000,1.063571044921875,0.184669169652462,-0.009228431594371795,-0.11803395735598168
1768418362085572400,1.073572265625,0.19695233090864495,0.015813655203580856,-0.09691391197312622
1768418362095573200,1.0835732421875,0.21128597668753935,0.015108137282729148,-0.06650608775778673
1768418362105575200,1.0935751953125,0.2486047584682703,-0.008054127117991448,-0.03017940402063541
1768418362115576300,1.103576416015625,0.27217268106043335,-0.03151975837945938,0.001245928957464639
1768418362125577200,1.1135771484375,0.24971595284687353,-0.021025836893916128,0.01953997768375557
1768418362135578000,1.123578125,0.21787353838430717,-0.01518295608460903,-0.018863277148723136
1768418362145579000,1.1335791015625,0.19108197757052256,-0.029103929409384725,-0.07882652141759172
1768418362155581200,1.143581298828125,0.12644554700898006,-0.02088555164039135,-0.07055427630320191
1768418362165582000,1.15358203125,0.06777472858726978,-0.023892916762828825,-0.047144412083271886
1768418362175583200,1.163583251953125,0.06486147148907184,-0.07718553101122379,-0.05415078371400013
1768418362185584000,1.173584228515625,0.10634849713146687,-0.1384317346125841,-0.017999947450810575
1768418362195585300,1.183585205078125,0.1441267313838005,-0.2269452998459339,-0.006665161544200964
1768418362205587200,1.193587158203125,0.17597089941203592,-0.2679167771816254,-0.00825879426106112
1768418362215588000,1.203588134765625,0.17799977489113808,-0.2594067229896784,-0.048475067031988874
1768418362225589200,1.21358935546875,0.1795511142526753,-0.23656419206261634,-0.10774839052464813
1768418362235590100,1.223590087890625,0.1753881310880184,-0.21465105094015596,-0.1451450233145617
1768418362245591000,1.233591064453125,0.2393436119143851,-0.19727789133489132,-0.13154245915603824
1768418362255593000,1.243593017578125,0.3709451899796724,-0.16920447401702404,-0.1318559272856917
1768418362265594400,1.253594482421875,0.41791733250226826,-0.12161211723685264,-0.29043886224897575
1768418362275595300,1.26359521484375,0.48421029809918253,0.0014648118555545806,-0.36540154784526674
1768418362285596200,1.27359619140625,0.4235790480583906,0.11012333949506282,-0.36784473974630233
1768418362295597000,1.28359716796875,0.3964560998657718,0.2172381448239088,-0.38051596873831
1768418362305599200,1.29359912109375,0.41494098357260223,0.26145430316925045,-0.3366598758770153
1768418362315600100,1.30360009765625,0.44611645855903626,0.29771336503028867,-0.25023411323577166
1768418362325601000,1.31360107421875,0.40758185298144817,0.28311785344481466,-0.2958099060291424
1768418362335602200,1.323602294921875,0.32292499970886857,0.3160316965311766,-0.3170383528230712
1768418362345603300,1.333603271484375,0.22322598706185817,0.34980712488293647,-0.3398797512389719
1768418362355605200,1.343605224609375,0.03774374746084213,0.37104046704769134,-0.2892014476748183
1768418362365606100,1.353606201171875,-0.1612462084889412,0.37498189814984795,-0.17845548276938497
1768418362375607300,1.363607177734375,-0.30719902278874067,0.3183808900058269,-0.009676495022280142
1768418362385608200,1.373608154296875,-0.39523152650687843,0.1977706432878971,0.12514236458907835
1768418362395609000,1.383609130859375,-0.43846974319815635,0.07655716997981071,0.34258575879465786
1768418362405611300,1.393611328125,-0.4227519861171022,-0.06612871494591235,0.41636254080832
1768418362415612200,1.403612060546875,-0.342711613664031,-0.20071429552435874,0.3668122548934072
1768418362425613000,1.413613037109375,-0.24779636469483374,-0.30687399208545685,0.3736402012173086
1768418362435614200,1.4236142578125,-0.211012402176857,-0.3497656238287687,0.2917987158927135
1768418362445615000,1.433614990234375,-0.08381284019649028,-0.3124643594384193,0.3153975268134847
1768418362455617300,1.4436171875,-0.09507661354336887,-0.2791998032182455,0.2387320558873005
1768418362465618200,1.4536181640625,-0.03517300192369148,-0.20628537365496158,0.14975879158717578
1768418362475619000,1.463619140625,0.031489399773813785,-0.057362640166282654,0.12839204143425448
1768418362485620200,1.4736201171875,0.003484937772620469,0.07973521549403667,0.06585430931816809
1768418362495621000,1.48362109375,0.015451215099357068,0.15844225698411463,0.013650040579040068
1768418362505623000,1.493623046875,0.038403672674298284,0.18876959070861338,-0.027070153992879202
1768418362515624200,1.503624267578125,-0.035070710592996324,0.2073819367200136,-0.08271731831105425
1768418362525625300,1.513625244140625,-0.15484744736254213,0.20037761091589926,-0.09872173771322704
1768418362535626200,1.523626220703125,-0.21052317562149836,0.1499567527115345,-0.12978287473814562
1768418362545627100,1.533627197265625,-0.2527074993456714,0.11463117230832576,-0.11297988883680664
1768418362555629300,1.54362939453125,-0.2533855264713988,0.041129298245906824,-0.04152389162064064
1768418362565629700,1.553629638671875,-0.31265549809634685,-0.0446639021128416,0.044126941125351
1768418362575630600,1.563630615234375,-0.27515082008838654,-0.07513035204708576,0.19325965040316803
1768418362585631500,1.573631591796875,-0.19062778579592704,-0.08364274432659148,0.2906082822654396
1768418362595632600,1.583632568359375,-0.21566344285309313,-0.055526656910777086,0.3421738535255194
1768418362605634800,1.593634765625,-0.24945699138343333,-0.03417582584619522,0.3689661449916661
1768418362615635700,1.6036357421875,-0.26033085209727286,-0.013753215542435646,0.3675221567284316
1768418362625636600,1.61363671875,-0.2502268067121506,0.017568974438309667,0.30690197607092556
1768418362635637500,1.623637451171875,-0.25423195070028304,0.008019640326499938,0.1934743708660826
1768418362645638700,1.633638671875,-0.1975707368016243,0.004441781839728355,0.13391783738471566
1768418362655640600,1.643640625,-0.16069558886885643,-0.041942952716350554,0.0978166877654381
1768418362665641500,1.653641357421875,-0.1360626673936844,-0.10434884774684905,0.10222983716572634
1768418362675642600,1.663642578125,-0.11885901913642882,-0.14670505743920803,0.06205036872425116
1768418362685643800,1.673643798828125,-0.15245499926805495,-0.16766133622825144,0.029270951972785404
1768418362695644700,1.683644775390625,-0.15134791480898857,-0.14746201328635214,-0.022577130589680746
1768418362705646600,1.693646484375,-0.15416881744861602,-0.13548632881045342,-0.007910133803728967
1768418362715647700,1.703647705078125,-0.1295394031047821,-0.10315233143866062,-0.012739969679550267
1768418362725648600,1.713648681640625,-0.15361118356585501,-0.04986439336538315,-0.012574403854296541
1768418362735649500,1.7236494140625,-0.19761749855279923,0.01883680241703987,-0.0035254752789856863
1768418362745650400,1.733650390625,-0.24791677620410918,0.05940320608317852,0.02947772659126203
1768418362755652600,1.743652587890625,-0.2779004110574722,0.08515081080198288,0.020306836153694892
1768418362765653500,1.753653564453125,-0.26926234657168385,0.0761783997952938,0.002484473759494722
1768418362775654700,1.763654541015625,-0.25136428630948066,0.048648003312945366,-0.019868531501397956
1768418362785655800,1.77365576171875,-0.2342693591237068,0.007046995902061462,-0.0068465596928261215
1768418362795656700,1.78365673828125,-0.1850736588001251,-0.055955111455917354,-0.02116493027077522
1768418362805658600,1.79365869140625,-0.1416775846660137,-0.10624094510376453,-0.03202342445212416
1768418362815659500,1.803659423828125,-0.12481529719233513,-0.10894318979978561,-0.06226881551421247
1768418362825660700,1.81366064453125,-0.12683657388687133,-0.09832768776118755,-0.06909923235641326
1768418362835661600,1.82366162109375,-0.1500526234345976,-0.10761281797885894,-0.058834877276467155
1768418362845662700,1.833662841796875,-0.157689977312088,-0.10986322725415229,-0.05498058560164645
1768418362855664600,1.84366455078125,-0.19342530755996704,-0.11824760923981666,-0.057680994533607734
1768418362865665800,1.853665771484375,-0.19933716195225715,-0.08353869943022728,-0.04892487489241175
1768418362875666700,1.863666748046875,-0.17376549832224844,-0.05361877746284008,-0.06196734834960661
1768418362885667600,1.87366748046875,-0.15301613114899953,-0.037765374770760536,-0.06267126796841621
1768418362895668500,1.88366845703125,-0.14855506008691152,-0.022210662764310836,-0.04793546199626289
1768418362905670700,1.893670654296875,-0.1065992570221424,-0.06905366248190403,-0.05261452775716316
1768418362915671600,1.903671630859375,-0.0646761780500412,-0.10781447803080081,-0.030439959219540468
1768418362925672400,1.91367236328125,-0.026024083572626113,-0.13101122922301292,-0.0212572413468617
1768418362935673600,1.923673583984375,-0.033784196180105204,-0.12068798812925814,0.0006418849499779753
1768418362945674800,1.9336748046875,-0.04178512267298065,-0.058141807845234865,-0.009323491749970707
1768418362955676700,1.9436767578125,-0.03966915343231521,-0.002330488774180412,-0.003957752049295231
1768418362965677800,1.953677734375,-0.03848725017136894,0.04225508740544319,0.005739034559053834
1768418362975678700,1.9636787109375,-0.02842880662679672,0.058408934348821634,0.024031016909133177
1768418362985679600,1.9736796875,-0.04147065902948379,0.04358545922636985,0.040806966389785516
1768418362995680500,1.983680419921875,-0.035839375144243235,0.036841830185055734,0.052060770898498594
1768418363005682700,1.9936826171875,-0.020621932268142698,0.0045090018570423124,0.08615176800545304
1768418363015683600,2.00368359375,0.008346972584724426,-0.00537877042889595,0.06962453030557371
1768418363025684500,2.0136845703125,0.0470563502073288,0.002540332132577896,0.04885831702880095
1768418363035685600,2.023685546875,0.0861737241089344,0.016294716718792915,0.04669464988862164
1768418363045686800,2.033686767578125,0.0667453855395317,0.03139467069506645,0.023465115238237192
1768418363055688700,2.043688720703125,0.03495908517837524,0.055021045476198197,0.01524284674541559
1768418363065689600,2.053689697265625,-0.010065466940402983,0.04467968420386314,0.04000355018556583
1768418363075690500,2.0636904296875,-0.011869292358821257,0.030745851397514342,0.06278050049655139
1768418363085691600,2.073691650390625,0.007652560579776763,0.0009527706801891326,0.07177693169964477
1768418363095692500,2.083692626953125,0.038752641375595705,-0.010433131209015846,0.06067958269454538
1768418363105694500,2.093694580078125,0.053342298609018325,-0.02630699216723442,0.024808061129658016
1768418363115695600,2.103695556640625,0.0669417848944664,-0.04711655596196651,0.025010935891151893
1768418363125696800,2.11369677734375,0.0655880413311068,-0.048324178186059,0.007284190774976741
1768418363135697700,2.12369775390625,0.04028757759160362,-0.02633914087116718,0.010068985488184261
1768418363145698600,2.133698486328125,0.0049754320587031544,-0.007348024675250053,0.029015499923971944
1768418363155700700,2.14370068359375,-0.018677812463045118,-0.030256022053956985,0.010362659788690507
1768418363165701600,2.15370166015625,-0.02483749500340782,-0.026080197674036024,0.009366748653096146
1768418363175702500,2.16370263671875,0.0006160769385751336,-0.048990533140301704,-0.01898712500738911
1768418363185703400,2.173703369140625,-0.013282675421237945,-0.03988134401142597,-0.02550828410417307
1768418363195704600,2.18370458984375,-0.019274033923679962,-0.03182078715264797,-0.008753968783305026
1768418363205706500,2.19370654296875,0.0006862195653375238,-0.037377836757898325,-0.020617790382564997
1768418363215707600,2.203707763671875,0.019049568384885786,-0.030367081212997436,-0.016431033616675993
1768418363225708800,2.213708740234375,0.022191958063840864,-0.03472527642250061,-0.006229140180535614
1768418363235709700,2.223709716796875,0.01986205381155014,-0.0532996285110712,0.011885978632140904
1768418363245710600,2.233710693359375,0.014761515802145003,-0.025337854874134064,0.017453266503615304
1768418363255712500,2.24371240234375,0.015589207931095733,-0.01952303111553192,0.00645191151916515
1768418363265713700,2.253713623046875,0.025434876374667507,0.001107084459066391,-0.012035707567445934
1768418363275714600,2.263714599609375,0.03237432024902664,0.0048299043744802475,-0.019507125726924278
1768418363285715500,2.273715576171875,0.030911855614185333,-0.002072130098938942,-0.028853105586627497
1768418363295716600,2.283716552734375,0.049665655922889705,-0.0031382980257272717,-0.02549899568601977
1768418363305718800,2.29371875,0.06307343729482963,-0.01961889270544052,-0.014037192716123536
1768418363315719700,2.3037197265625,0.06308980390774085,-0.023082184901833534,-0.026186886618635614
1768418363325720600,2.313720458984375,0.0582733435367234,-0.023403671941161153,-0.04061324761570431
1768418363335721700,2.3237216796875,0.06985504199266433,-0.024175825357437133,-0.02102157171075232
1768418363345722600,2.33372265625,0.057263289711344985,-0.0023509470403194426,-0.006708957303443458
1768418363355724500,2.343724609375,0.06620179844843223,0.018583119916915893,0.0030081437238608484
1768418363365725400,2.353725341796875,0.05706687209010124,0.0395230320930481,0.014886249576800036
1768418363375726600,2.3637265625,0.03934884456992149,0.041457215026021,-0.0003634379013557918
1768418363385727700,2.373727783203125,0.013580799851287156,0.05147182856202125,0.014794107464072294
1768418363395728600,2.383728759765625,-0.03784779235720634,0.05086392579674721,0.019295645250577944
1768418363405729500,2.3937294921875,-0.030436054795980452,0.050851650837063785,0.00941484384483192
1768418363415731700,2.403731689453125,-0.01044423712491989,0.03003624182343483,0.023495377945760263
1768418363425732600,2.413732666015625,0.019378069686889647,0.011316343784332274,0.008631627895135897
1768418363435733500,2.4237333984375,0.03265725624309852,-0.029247721794247627,-0.0019371991572552359
1768418363445734700,2.433734619140625,0.052825581258535384,-0.050504444834589955,-0.0015531705590197816
1768418363455736600,2.443736572265625,0.08027357842074706,-0.09839315421283244,0.0062196987820439965
1768418363465737500,2.453737548828125,0.09755553434491157,-0.10078677135109901,0.017592677257594187
1768418363475738600,2.463738525390625,0.08956513837920502,-0.08103110052347183,0.03477487858473323
1768418363485739800,2.47373974609375,0.044328989336360244,-0.02835340330302715,0.0654304578829091
1768418363495740700,2.48374072265625,0.016880992174148558,0.025672785916924474,0.06567675166102126
1768418363505742600,2.49374267578125,-0.004250643181800842,0.06099778179824352,0.07303190476337913
1768418363515743700,2.50374365234375,-0.0022960019826889035,0.0759738171339035,0.08869175307815894
1768418363525744600,2.51374462890625,-0.017530962249170987,0.068954878282547,0.0750220100015169
1768418363535745500,2.52374560546875,-0.04182486102832481,0.06762041480839252,0.052323120762268076
1768418363545746700,2.53374658203125,-0.05978372983336448,0.07062193471193313,0.0552746001121588
1768418363555747600,2.54374755859375,-0.05604978573573753,0.0737690005660057,0.0765731438670773
1768418363565749800,2.553749755859375,-0.07936287505030631,0.04189619096517563,0.07667069509057328
1768418363575751000,2.5637509765625,-0.05054244789057411,0.014511340433359145,0.07772919116755947
1768418363585751800,2.573751708984375,-0.04463526054024696,-0.0038940848290920254,0.08004723145212046
1768418363595752700,2.583752685546875,-0.05704816738963127,-0.0007528641939163207,0.05888204088644124
1768418363605753900,2.59375390625,-0.08409517340236343,0.007172083586454391,0.08013874566047452
1768418363615755800,2.603755859375,-0.12788869502199812,0.027805706292390823,0.07913536817105486
1768418363625756700,2.613756591796875,-0.13778116174936295,0.03121288438737392,0.0746523410054855
1768418363635757600,2.623757568359375,-0.16596795804752035,0.03564122222363949,0.07650569552090018
1768418363645759000,2.633759033203125,-0.20095981298433616,0.06681728173196315,0.05655963952059392
1768418363655760000,2.643759765625,-0.2663701139952056,0.07175766074359416,0.057478421166213226
1768418363665761800,2.65376171875,-0.3407727545559406,0.08428045770823955,0.12292018589442595
1768418363675763000,2.663762939453125,-0.3745148651599884,0.1398386788010597,0.16892344685224817
1768418363685763800,2.673763916015625,-0.48986909104585646,0.17662731749415397,0.13312914382559246
1768418363695764700,2.6837646484375,-0.6820049433171749,0.1481342134594917,0.12633228675969876
1768418363705765600,2.693765625,-0.9063514588415622,0.09147299956083298,0.1062093261227943
1768418363715767800,2.703767822265625,-1.133468608123064,-0.0568114360243082,0.09936511365068144
1768418363725768700,2.713768798828125,-1.1443699413657187,-0.26783319055140015,0.0840900679689832
1768418363735769900,2.723769775390625,-1.0585422542154788,-0.4048188180088997,0.09646903601614758
1768418363745770800,2.733770751953125,-0.9741267719507217,-0.4478694397062063,0.15187213047933765
1768418363755772000,2.74377197265625,-0.9007108226060867,-0.43633974543213844,0.3042365379876457
1768418363765773800,2.75377392578125,-0.8923334548830986,-0.37531799823641776,0.5199374450406059
1768418363775774700,2.763774658203125,-0.9380652784883975,-0.2660012989491224,0.7260586045771836
1768418363785775900,2.77377587890625,-1.0000479796707629,-0.13742752600610256,0.8959083176951855
1768418363795776800,2.78377685546875,-1.0959364575862884,-0.0958592518210411,1.004919385099411
1768418363805777700,2.793777587890625,-1.196819090527296,-0.04864858783483505,0.9801176829285919
1768418363815779600,2.803779541015625,-1.2170482240855693,-0.043946693754196166,0.9167308871019632
1768418363825781000,2.813781005859375,-1.1833680728018283,-0.09248071529865265,0.9229130098029971
1768418363835782000,2.823781982421875,-1.1079413681566714,-0.07527472895383834,0.9659525255843996
1768418363845782800,2.83378271484375,-1.0655074170529841,-0.08493453770279884,1.0842058339126408
1768418363855783700,2.84378369140625,-0.9718927292883396,-0.14821253939270973,1.1869069144524633
1768418363865785900,2.853785888671875,-0.9257529094040393,-0.1739811868995428,1.2456858511574567
1768418363875786800,2.863786865234375,-0.9430746310830116,-0.14788929878771304,1.2472349802955984
1768418363885787600,2.87378759765625,-0.9748246910870074,-0.15418927571475505,1.2335060224115848
1768418363895788800,2.883788818359375,-0.9802619867701082,-0.11627250977456569,1.188973053202033
1768418363905790000,2.8937900390625,-0.9949649773180484,-0.05027706581950187,1.1607879922032356
1768418363915792000,2.9037919921875,-0.9369932653427123,0.02867722842991352,1.123048263330385
1768418363925792800,2.913792724609375,-0.8642916017472744,0.09831950445473193,1.0975890470989047
1768418363935794000,2.9237939453125,-0.737151076477766,0.16810206573307512,1.0021214249439536
1768418363945794800,2.933794921875,-0.5821919489016756,0.2303735207289457,0.9275359934285282
1768418363955795700,2.943795654296875,-0.43254849992301314,0.29843408052027226,0.8376762742832302
1768418363965798000,2.9537978515625,-0.29318328385259956,0.294454655495286,0.771717070685327
1768418363975798800,2.963798828125,-0.15610705550219864,0.30444530363380906,0.7328551328495144
1768418363985799700,2.973799560546875,-0.023058219504356384,0.2735685193330049,0.5699512933466583
1768418363995800800,2.98380078125,0.1383879320034757,0.2501116558998823,0.3362644102860242
1768418364005801700,2.9938017578125,0.314186360925436,0.2769990783035755,0.04748480475246906
1768418364015804000,3.003803955078125,0.4790227028608322,0.3202829242348671,-0.2846559131996706
1768418364025804800,3.0138046875,0.4492775529384613,0.4076666086554527,-0.5440939446430653
1768418364035805700,3.0238056640625,0.17782909449934958,0.5365694674223661,-0.7061484738402068
1768418364045806800,3.033806884765625,-0.17243512650132178,0.6247942788422107,-0.8203865551777183
1768418364055807700,3.043807861328125,-0.5641992326259613,0.5951093346744776,-0.8036664526537061
1768418364065809700,3.0538095703125,-0.7219593525648117,0.33724633399546144,-0.6483851439185441
1768418364075810800,3.063810791015625,-0.6443851144969462,-0.0658697717487812,-0.4682524486519396
1768418364085812000,3.07381201171875,-0.47909518357515335,-0.5188888493031263,-0.2840983158495277
1768418364095812900,3.083812744140625,-0.22339491388797758,-0.9620902971982955,-0.15572240356616676
1768418364105813800,3.093813720703125,0.003387870606314391,-1.2460036849349736,0.044192448676191265
1768418364115816000,3.10381591796875,0.11685409992164932,-1.3417629835128784,0.2484190997030586
1768418364125816800,3.11381689453125,0.10357959867371246,-1.288431790819764,0.43134694211352614
1768418364135817700,3.123817626953125,0.048169270752137526,-1.1276157904416322,0.6473349042132497
1768418364145818600,3.133818603515625,0.0020364742636680604,-0.922614611378312,0.8756314725376665
1768418364155819800,3.14381982421875,-0.05735445685982704,-0.7436375158876181,1.1187380719810724
1768418364165821700,3.15382177734375,-0.08241524835824966,-0.5986655658513307,1.330767542245984
1768418364175822800,3.16382275390625,-0.1230138098614756,-0.4606394894301891,1.4710110024556518
1768418364185823700,3.17382373046875,-0.1903893008649349,-0.2159796691954136,1.4981183512203395
1768418364195825000,3.183824951171875,-0.313149419093132,0.11364859101176261,1.3653541408501564
1768418364205825800,3.19382568359375,-0.4278618399441242,0.5643354262262582,1.0859364570975303
1768418364215827700,3.20382763671875,-0.48846273137927054,0.946414004638791,0.7024730001978575
1768418364225828900,3.213828857421875,-0.5499135176420211,1.2155272981286047,0.32041298035532234
1768418364235829800,3.223829833984375,-0.565980855345726,1.3764216244399547,-0.0026334903087466954
1768418364245830700,3.23383056640625,-0.5410463205754756,1.4287182133883236,-0.252928832212463
1768418364255831800,3.243831787109375,-0.5350315903306007,1.389539464688301,-0.4253774757824838
1768418364265833700,3.253833740234375,-0.5909025306344032,1.3063999937087296,-0.5461270579058677
1768418364275835000,3.2638349609375,-0.7019090827047825,1.18261871573925,-0.6492840655196458
1768418364285835800,3.273835693359375,-0.89574355558753,1.0227776978731156,-0.6110662708062679
1768418364295836700,3.283836669921875,-1.1175310342788696,0.8872416847020387,-0.5716068785339593
1768418364305837800,3.293837890625,-1.291484748649597,0.8651093478709458,-0.5479759737081825
1768418364315839700,3.30383984375,-1.3838859689712524,0.9149696495831012,-0.5247193090222776
1768418364325840600,3.313840576171875,-1.5180243903040884,0.9138906221747398,-0.44695714716687795
1768418364335841800,3.323841796875,-1.729423745971918,0.875648277541995,-0.26250921904966235
1768418364345843000,3.333843017578125,-1.8418132768332958,0.8087567615300416,0.027185601632669566
1768418364355843800,3.34384375,-1.8600281479597092,0.6666378628373145,0.33253340706415474
1768418364365845800,3.353845703125,-1.8360031292498111,0.6009685820966959,0.6419281497988849
1768418364375847000,3.363846923828125,-1.785371843165159,0.6652525459587574,0.8940184122953564
1768418364385847800,3.373847900390625,-1.7452607820510864,0.6419090797722339,1.0192160598687827
1768418364395848700,3.3838486328125,-1.7984896834135053,0.6042120940625667,1.0216627954337745
1768418364405849600,3.393849609375,-1.9360989957273005,0.5762929905235767,1.0348331695869564
1768418364415851800,3.403851806640625,-2.0960919892847536,0.5538093560367823,1.0495378406353295
1768418364425852700,3.413852783203125,-2.116913828039169,0.5243734181940555,1.0680852316517382
1768418364435853800,3.423853759765625,-2.081287218862772,0.49060441958308215,0.9751448629520832
1768418364445855000,3.43385498046875,-2.0365221944630143,0.37183950847089287,0.8112639220453798
1768418364455855900,3.44385595703125,-1.9635762007176876,0.2008212630301714,0.5722572322014718
1768418364465857800,3.45385791015625,-1.8896470411539077,-0.04878478143513203,0.2684889875790104
1768418364475858700,3.463858642578125,-1.9760311931431291,-0.3957604822844267,-0.003294548033364117
1768418364485859800,3.47385986328125,-2.1836557064473627,-0.8249445107430219,-0.0863661779411137
1768418364495860700,3.48386083984375,-2.3955448914587496,-1.307970019504428,0.05470821666736155
1768418364505861600,3.493861572265625,-2.591399471992254,-1.7568576963424682,0.45955750287976116
1768418364515863800,3.50386376953125,-2.5633751545131207,-2.141694633552432,1.0424449597649275
1768418364525865000,3.513864990234375,-2.424530162924528,-2.238745725506544,1.5391031264290214
1768418364535865900,3.523865966796875,-2.404835282373428,-1.9786954439163207,1.8777097889922558
1768418364545866800,3.53386669921875,-2.6436229957044124,-1.5437386772751807,1.9846995066367088
1768418364555868000,3.543867919921875,-3.0045290222287178,-1.2362170349359511,1.8924734967514871
1768418364565869800,3.553869873046875,-3.306445099645853,-1.1332470743268728,1.7867960307493804
1768418364575870700,3.56387060546875,-3.5812826160013675,-1.113347026592493,1.8503925968691706
1768418364585871600,3.57387158203125,-3.7434091144561767,-1.0052034627377986,1.9513648077897727
1768418364595872800,3.583872802734375,-3.7155309274494646,-0.7255401336610316,2.148234848976135
1768418364605874000,3.5938740234375,-3.0411878970623016,-0.14006781138181684,2.1361839073069393
1768418364615875800,3.603875732421875,-1.5936054087281226,0.4044336180835962,1.5297817558541893
1768418364625876700,3.613876708984375,0.22759287703447043,0.29906711772680283,0.26704649715311823
1768418364635878000,3.6238779296875,2.045615016978979,-1.1122972252786159,-1.296962595538795
1768418364645878800,3.633878662109375,3.146240509164333,-3.7131981005877255,-2.6786925555199383
1768418364655879700,3.643879638671875,3.2559470845520493,-5.473906042617559,-3.665615388418734
1768418364665881600,3.653881591796875,3.4187796854496,-4.684794477277994,-4.378718357571959
1768418364675882800,3.6638828125,2.859447182077169,-2.380582884648442,-4.129048307959735
1768418364685883600,3.673883544921875,0.5487479079287498,-0.8170587259292602,-3.141391315567493
1768418364695884800,3.683884765625,-1.846939533805847,-0.4913865098714828,-3.3245579717025158
1768418364705885700,3.6938857421875,-1.576406582776457,0.8791203375667334,-2.100151786069572
1768418364715887900,3.703887939453125,-0.71794821722731,2.3019570917010306,-1.1227074140034616
1768418364725888800,3.713888671875,0.29141236518993974,2.4964625957131386,-0.5788434787239879
1768418364735889700,3.7238896484375,1.029435548327118,1.8579414048135279,-0.07454042332991957
1768418364745890800,3.733890869140625,1.2458501018084585,-0.3292582578510046,0.5664086157711222
1768418364755891700,3.7438916015625,0.6118680156432091,-3.1556349449753758,1.138027002079785
1768418364765893600,3.7538935546875,0.09055047788843512,-3.7949014012843367,1.1856624673493206
1768418364775894500,3.76389453125,0.48608475020155306,-3.4747762979596852,0.5974021583193913
1768418364785896000,3.77389599609375,1.2705037738107143,-3.0714380738973617,-0.3640112625306472
1768418364795896800,3.783896728515625,1.7621837136708198,-2.6114286990642546,-1.1436965721488
1768418364805897700,3.793897705078125,1.4002654413640498,-1.8200094413042067,-1.348809687153995
1768418364815898600,3.803898681640625,0.609905337268114,-0.5753232687085866,-1.0800375352520495
1768418364825900800,3.81390087890625,0.013937193807214497,0.4404898508489132,-0.7541063029319047
1768418364835901700,3.823901611328125,-0.24081607735343277,1.020775710400939,-0.5576305217601358
1768418364845902600,3.833902587890625,-0.2954278844416141,1.254466392853856,-0.3716760615374893
1768418364855903700,3.84390380859375,-0.25004443588256836,1.28586573972404,-0.2304324295756407
1768418364865905700,3.85390576171875,-0.18425766624212264,1.2420114004284142,-0.09878416282441467
1768418364875906800,3.86390673828125,-0.22600779980011282,1.197113689559698,0.09933472764557227
1768418364885907700,3.87390771484375,-0.14130729004889725,1.2195873871743679,0.3135270202338695
1768418364895908900,3.883908935546875,0.07118906707540154,1.3120125728935002,0.5398887480381875
1768418364905909800,3.89390966796875,0.17933482288718222,1.3713544041782617,0.6503703994516283
1768418364915910700,3.90391064453125,0.30867183528766035,1.5944266619831322,0.76551032499969
1768418364925912800,3.913912841796875,0.3031283758163452,1.90609197999835,0.9667597503140568
1768418364935913700,3.923913818359375,0.2704536021828651,2.3416706779301166,1.3077806344121694
1768418364945914600,3.93391455078125,0.17152926370278,2.7718337805539366,1.5330764134854078
1768418364955915800,3.943915771484375,0.05118438992276787,3.1147225043505427,1.6357998519875108
1768418364965916700,3.953916748046875,-0.16671981759443877,3.2929543344318866,1.4896810700036585
1768418364975918800,3.9639189453125,-0.44666605526581404,3.1805390846073625,1.2231664147049188
1768418364985919700,3.973919677734375,-0.6685621088981628,2.8987796600341795,0.960783525448665
1768418364995920600,3.983920654296875,-0.7699975534163415,2.6315169628471136,0.6613665713708847
1768418365005921800,3.993921875,-0.8878316134192049,2.3658599472910162,0.4235864276472479
1768418365015922700,4.003922607421875,-1.0244354019522666,2.022789437186718,0.26130190735282377
1768418365025924600,4.013924560546875,-1.052710917713493,1.67128778334558,0.28447869346924126
1768418365035925800,4.02392578125,-1.0510676805511117,1.3686369619131087,0.38112715943921355
1768418365045927000,4.033927001953125,-1.0270156277038156,1.0724328324019907,0.5091640855591744
1768418365055927800,4.043927734375,-0.998723745329678,0.8739104939639568,0.6441193031676113
1768418365065928700,4.0539287109375,-1.0852622110977768,0.7988473619341849,0.8498343295887112
1768418365075931000,4.063930908203125,-1.2244867035232483,0.7300871294409036,1.0172709902156143
1768418365085931800,4.073931884765625,-1.4355800619818269,0.6759972273349761,1.087142764147371
1768418365095932700,4.0839326171875,-1.6973443078830837,0.6067401512354612,0.9591280863918363
1768418365105933600,4.09393359375,-1.838984337017685,0.44664369730353354,0.6671199472658336
1768418365115935000,4.10393505859375,-1.7525474319279193,0.16722469837665557,0.5177581282401457
1768418365125936600,4.1139365234375,-1.6060663925029337,-0.1462140590518713,0.6267953895315528
1768418365135937800,4.123937744140625,-1.592804613739252,-0.4425228179812431,0.9286123904883861
1768418365145938700,4.133938720703125,-1.5446763965167105,-0.6262602597415446,1.250148821915686
1768418365155939800,4.14393994140625,-1.498330678796768,-0.8039689427316188,1.396251821808517
1768418365165940700,4.153940673828125,-1.6221053808949886,-1.2363865462839603,1.2573913403898478
1768418365175942700,4.163942626953125,-1.7527813868142663,-1.7659937734782696,0.9964324195221066
1768418365185943800,4.17394384765625,-2.1387081650875506,-2.31186123059988,0.7942652948409319
1768418365195944700,4.18394482421875,-2.982280950063467,-2.74053321788311,0.8052561329979449
1768418365205945900,4.19394580078125,-3.935875806117058,-2.713634105041623,1.1898812540881336
1768418365215946800,4.20394677734375,-4.558005834186077,-2.027041249412298,1.983385355298221
1768418365225949000,4.213948974609375,-4.225952977180481,-0.362941331744194,3.102162882506847
1768418365235949800,4.22394970703125,-2.7452374500513077,1.342905139285326,3.725903268381953
1768418365245950700,4.23395068359375,-0.4733331129170954,1.6178858635038136,3.3477933013394474
1768418365255951600,4.24395166015625,3.0120401285111904,0.17227204489409922,2.7333146648064255
1768418365265952800,4.253952880859375,5.7308045821785925,-2.796777667674422,2.353499062889814
1768418365275954700,4.26395458984375,6.654549074369669,-5.641984727475047,1.2796608937345444
1768418365285955600,4.27395556640625,6.884172653514146,-7.239820321118831,0.029765224596019834
1768418365295956700,4.283956787109375,6.462160708642005,-7.591823494741321,-0.9761717217817902
1768418365305958000,4.2939580078125,5.479614483392238,-5.778098832795024,-1.5841814545616506
1768418365315958800,4.303958740234375,3.9599569389283653,-3.2031875542670485,-2.284104624146223
1768418365325960700,4.313960693359375,2.4734745188355443,-1.245766369047761,-3.4048788781300185
1768418365335961900,4.3239619140625,1.5359588370539248,-0.1566752473115921,-4.5478237551286815
1768418365345962800,4.333962646484375,0.711531482052803,0.23622166223526,-5.1562014444381
1768418365355963600,4.343963623046875,-0.11187062155380845,0.0939466961979866,-4.815084114228188
1768418365365964500,4.353964599609375,-0.6679857703149318,-0.28948680395483967,-3.702349958837032
1768418365375966700,4.363966796875,-0.7969955965876578,-0.9598410569667816,-2.0828850094482303
1768418365385967600,4.373967529296875,-0.2147113297600299,-1.73751411344707,-0.48444271861556915
1768418365395968800,4.38396875,0.6542424916446209,-2.4633839174538847,0.5213270727680995
1768418365405970000,4.393969970703125,1.2261832783080637,-2.765648954439163,0.8589766903348267
1768418365415970800,4.403970703125,1.4106640857815742,-2.5433880130171773,0.753239968426153
1768418365425972700,4.41397265625,1.1507106156293303,-1.8153636613249777,0.281285998375155
1768418365435973600,4.4239736328125,0.8273100708305835,-0.7206985388487577,-0.2270074052967131
1768418365445974800,4.433974853515625,0.34644495497345923,0.49891164467930793,-0.5945952476724982
1768418365455975700,4.4439755859375,-0.06653035454936325,1.5490800383031367,-0.7841445905819535
1768418365465976800,4.453976806640625,-0.2819489557959139,2.4907161610156296,-0.9997302189584821
1768418365475978800,4.463978759765625,-0.4117140574153512,3.241508809354901,-1.3684504994302986
1768418365485980000,4.47397998046875,-0.32692433501072227,3.6258828052282333,-1.638433853752911
1768418365495980800,4.483980712890625,-0.2512625795006752,3.948887263381481,-1.6072458115458488
1768418365505981700,4.493981689453125,-0.3364040379524231,4.114058536359668,-1.604703141325712
1768418365515982800,4.50398291015625,-0.3699825554925948,4.1542432472318405,-1.6831570848375559
1768418365525984800,4.51398486328125,-0.4323790251076221,4.082809411615133,-1.8726419842086732
1768418365535985700,4.523985595703125,-0.5826771386027336,3.9404789159983395,-2.194798447230458
1768418365545986600,4.533986572265625,-0.740819535857439,3.7840842391937968,-2.350320871245116
1768418365555987700,4.54398779296875,-1.0484697730123995,3.625491760084033,-2.366483632147312
1768418365565988400,4.55398828125,-1.2862544467806816,3.4151556497335434,-2.08383661108464
1768418365575990500,4.563990478515625,-1.5424913075625895,3.269140912646055,-1.5939624054722488
1768418365585991400,4.573991455078125,-1.776391102721542,3.1557471731781956,-1.1155122418023644
1768418365595992300,4.583992431640625,-1.7695406523048878,3.0024837801367044,-0.8018843184772878
1768418365605993200,4.5939931640625,-1.5493793135106562,2.9323236177176235,-0.6699088473320007
1768418365615994400,4.603994384765625,-1.2785599467553197,2.8772295070052145,-0.5880247101757675
1768418365625996300,4.613996337890625,-1.106324434479326,2.8358266525149345,-0.32525680365730075
1768418365635997200,4.6239970703125,-1.006281467232853,2.740736046978831,0.06395202392737846
1768418365645998600,4.63399853515625,-1.0389830558080226,2.2783815703243016,0.38032095762286333
1768418365655999500,4.64399951171875,-1.2569921119391918,1.436140472343564,0.6070504958262667
1768418365666000400,4.65400048828125,-1.5506921496748924,0.43174423433542247,0.7034526588849723
1768418365676002300,4.664002197265625,-1.9752607932925224,-0.551944731208682,0.5480052728679031
1768418365686003500,4.67400341796875,-1.9978677618980407,-1.4525257899552584,0.2576392566594295
1768418365696004400,4.68400439453125,-1.5347496073946356,-2.2690005785167218,0.1279384159152396
1768418365706005200,4.694005126953125,-1.2892682416439056,-3.036104310187697,0.2286610359889455
1768418365716006400,4.70400634765625,-1.636324606513977,-3.604420915004611,0.5020032905517146
1768418365726008300,4.71400830078125,-2.7232477365612984,-3.8196640866190195,0.8277647557955234
1768418365736009500,4.724009521484375,-4.360008396404981,-3.8516748433858154,1.009125385421887
1768418365746010400,4.73401025390625,-5.906192713266611,-3.7823452865719793,1.0641779220148921
1768418365756011500,4.744011474609375,-6.335701735895872,-3.500160914584994,1.023217696725577
1768418365766013400,4.754013427734375,-5.94806318526864,-2.769059639665484,0.8306187569871545
1768418365776014300,4.764014404296875,-5.338527265834808,-1.411274326634407,0.052591078382916746
1768418365786015200,4.77401513671875,-4.1511704156577585,0.022376666980981827,-0.7620741400059312
1768418365796016400,4.784016357421875,-2.0619442204892633,0.22312661834061145,-1.7798884433180093
1768418365806017300,4.794017333984375,0.2282604740977287,-1.1336726062625646,-2.837423566317558
1768418365816019200,4.804019287109375,2.0103660089433193,-3.5028923853754996,-3.2925755642473695
1768418365826020400,4.814020263671875,3.0254268488287925,-5.68752307433486,-2.7047692460626362
1768418365836021500,4.824021484375,2.6264497425854203,-5.871325398024917,-3.903457345332205
1768418365846022400,4.8340224609375,4.9545361317992205,-5.177165322011709,-5.891272207510471
1768418365856023300,4.844023193359375,6.048838266181946,-4.6077556612610815,-4.0698774493277075
1768418365866025500,4.854025390625,3.9429964517772196,-3.7867537506639954,-2.505136023773253
1768418365876026400,4.8640263671875,2.705818462854624,-2.3388807549506425,-1.0107301172047853
1768418365886027300,4.87402734375,2.590565943777561,-1.003418332886696,0.19861268360260873
1768418365896028200,4.884028076171875,2.223514254105091,0.2834890248447656,0.9844831846617161
1768418365906029600,4.894029541015625,1.697030711889267,1.2895178324908017,1.5166107241138815
1768418365916031500,4.904031494140625,1.479361774432659,1.223266367948055,1.9191388008370995
1768418365926032400,4.914032470703125,1.4684148484826087,-0.05529810885190963,2.1624624040320515
1768418365936033500,4.924033447265625,1.610272465890646,-1.2740724260777234,2.4485246403656897
1768418365946034400,4.934034423828125,1.742950751543045,-1.349921155527234,1.9136944178260862
1768418365956035300,4.944035400390625,1.5770271988928317,-1.1890507946133613,0.6787094089031219
1768418365966037200,4.954037353515625,1.496317439278215,-1.14295013769567,-0.638940731485933
1768418365976038400,4.964038330078125,1.6322189247608183,-0.9445499643325805,-1.5386811016246675
1768418365986039300,4.974039306640625,1.536271848525852,-0.35151509784460067,-1.6311958653233944
1768418365996040400,4.98404052734375,0.9854278451006859,0.3878425487667322,-1.4205287694528699
1768418366006041300,4.994041259765625,0.23183073379993438,1.087443939051032,-1.4270809675753116
1768418366016043500,5.00404345703125,-0.23718714626654983,1.7559201232314108,-1.4708182563625276
1768418366026044400,5.01404443359375,-0.48254269368052477,2.4279402636289595,-1.4351026537284255
1768418366036045300,5.02404541015625,-0.5474630557499826,3.0595073976069687,-1.3219503218010067
1768418366046046200,5.034046142578125,-0.40457565690279007,3.560772327414155,-0.9886182386398314
1768418366056047400,5.04404736328125,-0.32573885155320165,3.9280695162802934,-0.6330353798996656
1768418366066049300,5.05404931640625,-0.2768249638456851,4.157986525413394,-0.21902113751685245
1768418366076050200,5.06405029296875,-0.22698285537734628,4.220738457402587,0.30982754466142504
1768418366086051600,5.074051513671875,-0.061762044169008726,4.088507915517687,0.8163768080797046
1768418366096052500,5.084052490234375,0.12380977341160178,3.953676835745573,1.5177151782244442
1768418366106053400,5.094053466796875,0.19875468588918446,3.8563860898166893,2.2409337370701135
1768418366116055600,5.1040556640625,0.17340630962103604,3.7173756785333154,2.7737334766954183
1768418366126056400,5.114056396484375,-0.029586013837903737,3.517437043556571,2.932026388336718
1768418366136057300,5.124057373046875,-0.3203612501680851,3.298071239054203,2.7599712010636925
1768418366146058200,5.134058349609375,-0.8356149578392505,3.0914445046156644,2.2899837453126906
1768418366156059400,5.144059326171875,-1.304361912009865,2.9162995346337555,1.6630812421448529
1768418366166061300,5.154061279296875,-1.5233144595362245,2.5803765581965443,1.0161593026466667
1768418366176062500,5.1640625,-1.3458162044264375,2.1996955716222524,0.5754280077246948
1768418366186063400,5.1740634765625,-0.979671692726761,1.6925106041163205,0.27039133233530444
1768418366196064500,5.184064453125,-0.916276494397968,1.0833359192103147,0.10731188053721562
1768418366206065400,5.1940654296875,-1.311730394951254,0.48954175878763195,0.07641807203637435
1768418366216067300,5.2040673828125,-1.4537949331082403,-0.17988427346348762,0.16018749321624637
1768418366226068200,5.214068115234375,-1.3143592821501195,-0.9213011906921863,0.18086269004158675
1768418366236069400,5.2240693359375,-1.0397745715118945,-1.6960802792966365,0.25942754658199846
1768418366246070300,5.2340703125,-0.9205551946304737,-2.289882038503885,0.4277881901860237
1768418366256071400,5.244071533203125,-1.148105036240816,-2.5820997287273406,0.6690854021199047
1768418366266073300,5.2540732421875,-1.6841186233460903,-2.476920275375247,1.0903504010822622
1768418366276074500,5.264074462890625,-2.3205657844506202,-2.227121338686347,1.5748153680622576
1768418366286075400,5.274075439453125,-2.8282863201379773,-1.9834791710615156,2.045314280466735
1768418366296076300,5.284076171875,-3.3461855738818644,-2.00870479773283,2.5821587654381988
1768418366306077400,5.294077392578125,-3.7261984519362445,-2.12336519613564,2.8444688086539505
1768418366316079400,5.304079345703125,-3.8742566775500773,-2.006589997535944,2.8177810004755854
1768418366326080300,5.314080322265625,-3.795527424228191,-1.3910866941303015,2.57821236589998
1768418366336081200,5.3240810546875,-3.2713772933959957,-0.556892709004879,1.83535255638659
1768418366346082600,5.33408251953125,-1.759505434372276,0.043862522602081296,0.8189393520440906
1768418366356083500,5.34408349609375,1.2926434171654284,0.05558335553407669,0.04136443130918778
1768418366366085400,5.35408544921875,5.18234886212945,-1.2622539779901503,-0.24173669932968914
1768418366376086500,5.36408642578125,7.799780601000785,-3.790948864266276,0.3444526851776987
1768418366386087400,5.37408740234375,7.85661600242257,-5.726287397015095,0.6693528939496726
1768418366396088300,5.38408837890625,6.337892523938417,-5.999300036031007,0.07277757837586105
1768418366406089200,5.394089111328125,4.643679207557439,-4.849534373101592,-0.9977001744356006
1768418366416091400,5.40409130859375,2.9909888649150727,-3.056703446102142,-1.4040494899474083
1768418366426092300,5.41409228515625,1.827262188911438,-0.7971294521003961,-1.249816082829982
1768418366436093400,5.424093505859375,1.0675696102797985,0.589606645604968,-1.5110707717739045
1768418366446094300,5.43409423828125,0.5241686163369565,0.6830225959271192,-1.8450693560197948
1768418366456095500,5.444095458984375,0.020337708499282597,-0.17221067009568214,-2.075945565573871
1768418366466097400,5.454097412109375,-0.20252046816349029,-1.6098381661266088,-1.9568805024713276
1768418366476098300,5.464098388671875,-0.006996580889075994,-3.1115561492741106,-1.2734770905330777
1768418366486099500,5.474099365234375,0.37914559370055795,-4.476531081548333,-0.4989458757424727
1768418366496100400,5.484100341796875,0.9598772242587059,-5.3512283419758075,0.24296828695125877
1768418366506101200,5.494101318359375,1.4002594500146806,-5.324153872567415,0.9002605946205556
1768418366516103200,5.504103271484375,1.4501368489921092,-4.327754478532076,1.2342920582227408
1768418366526104600,5.5141044921875,1.486303556394577,-2.782505396693945,1.0136575489588082
1768418366536105500,5.52410546875,1.444064835602045,-1.0133107813477515,0.3206725446069613
1768418366546106400,5.5341064453125,1.2551309942424296,0.8394605273514986,-0.4192042670402676
1768418366556108500,5.544108642578125,0.9366799616098404,2.5452006153970954,-1.0839366615824402
1768418366566109400,5.554109375,0.5812449869077653,4.0290743142962455,-1.6872110364034771
1768418366576111000,5.564111083984375,0.27164595377258954,5.110258023908734,-2.087242035613954
1768418366586112000,5.574112060546875,0.08996157208457589,5.73910830014348,-2.231629609891027
1768418366596113200,5.584113037109375,-0.11938260461911558,6.041350540775061,-2.1647527069263157
1768418366606115000,5.594114990234375,-0.3871464562613517,5.990457973405719,-1.7983004444517194
1768418366616116000,5.604115966796875,-0.733181076868251,5.687722396299242,-1.302882779368013
1768418366626117000,5.6141171875,-1.017468047157675,5.193789124554395,-0.9174413734588771
1768418366636118300,5.6241181640625,-1.1001275526005774,4.547551075667142,-0.6691501379191875
1768418366646119200,5.634119140625,-1.0739351997889577,3.8371798695653676,-0.4927469845697283
1768418366656121000,5.64412109375,-1.034857281114906,3.286782367798686,-0.4734235311469063
1768418366666122200,5.654122314453125,-0.9260451703488827,2.9166765512526034,-0.5044462632570416
1768418366676123100,5.664123046875,-1.0306642133392392,2.7375650157272813,-0.5887452430026605
1768418366686124000,5.6741240234375,-1.0182967530667781,2.6275872221827505,-0.5162875076983123
1768418366696125000,5.684125,-1.129206128372997,2.496050507780909,-0.41869967851899564
1768418366706127000,5.694127197265625,-1.5140461343228817,2.4325883816957474,-0.22189210810959337
1768418366716128000,5.7041279296875,-1.9579975238025187,2.4565455958664417,-0.18712154950695112
1768418366726129200,5.714129150390625,-2.335989125162363,2.4151848269522187,-0.33542854398377236
1768418366736130300,5.72413037109375,-2.5859528970241543,2.0806296317368744,-0.5321226440813392
1768418366746131200,5.734131103515625,-2.6248984214901925,1.4741758962273597,-0.47425859373155976
1768418366756133000,5.744133056640625,-2.535442022448778,0.6416068819552659,-0.12313508902043103
1768418366766134000,5.754134033203125,-2.1785130828619,-0.2256254494190216,0.23738610290475187
1768418366776135200,5.76413525390625,-1.479809518200159,-0.8451099314153194,0.36957054062560196
1768418366786136000,5.774135986328125,-0.8734159884452819,-1.2833493729889391,0.16455478504765778
1768418366796137200,5.78413720703125,-0.6410673682510852,-1.533840968117118,-0.04287017339675221
1768418366806139100,5.79413916015625,-1.5116624540567398,-1.7347709522187709,0.0907804872520268
1768418366816140300,5.804140380859375,-4.088104010891914,-2.5487685370117426,0.33405999557692556
1768418366826141200,5.81414111328125,-6.428084251517057,-4.090121195933222,0.4788623246673494
1768418366836142000,5.82414208984375,-7.023661788225174,-5.173554730299115,0.5929384569087996
1768418366846143000,5.83414306640625,-5.882541788566112,-4.478749926641584,0.413277361209318
1768418366856145200,5.844145263671875,-4.1348400431036945,-2.3581436738252637,-0.20338219955936074
1768418366866146000,5.85414599609375,-2.662310160517692,0.21921265976727008,-0.22726925283698363
1768418366876147000,5.86414697265625,-0.74057520570755,1.3548106811344622,0.10848844090276397
1768418366886148000,5.874148193359375,1.7041817526876926,0.14936638560295104,-0.24715189277883617
1768418366896149200,5.884149169921875,4.157342966812849,-2.665740134966373,-1.3490980025760828
1768418366906151200,5.894151123046875,5.7073874662339685,-5.117410818272829,-2.0097481693059205
1768418366916152300,5.90415234375,6.125016665977239,-5.688575798258185,-3.144323277366161
1768418366926153200,5.9141533203125,6.176838038629293,-5.84317423929572,-3.4999060630410908
1768418366936154000,5.924154052734375,4.591660266506672,-5.569826084715127,-2.4306750954203307
1768418366946155000,5.934155029296875,2.6101941888332365,-3.3345284538358446,-1.0244263418629764
1768418366956157200,5.9441572265625,1.8527905979216097,-0.6583516805291175,0.27305143665634096
1768418366966158000,5.954157958984375,2.3429893593132496,1.040814874345064,1.0266836192704736
1768418366976159000,5.964158935546875,2.5887761377513407,1.4818933387368916,1.2767410607650875
1768418366986160000,5.97416015625,2.288199784505367,-0.22959669113755224,1.6673589194640517
1768418366996161300,5.984161376953125,1.2530746462345121,-2.795815544643998,1.5371378177054225
1768418367006163200,5.9941630859375,1.1188590680122374,-3.97251889885962,1.2713833331242204
1768418367016164000,6.0041640625,1.6033786147236824,-4.002554556161165,0.7199215631268918
1768418367026165000,6.0141650390625,1.9505659124970436,-3.676249887418747,-0.2756182549370453
1768418367036166100,6.024166259765625,2.2852350894808766,-3.4367110634595153,-1.11381391345188
1768418367046168000,6.03416796875,2.352210776644945,-3.277684869107604,-1.5493711302042006
1768418367056169000,6.0441689453125,2.075370688295364,-2.5998884833961724,-1.2543905511386693
1768418367066170000,6.054170166015625,1.4339128594219683,-1.5241490106642246,-0.5582951231487095
1768418367076171300,6.064171142578125,0.5458428341370075,-0.3624386429190635,0.0148178673655726
1768418367086172200,6.074172119140625,-0.1406324595272541,0.9337719652086496,0.2844961743270047
1768418367096174300,6.08417431640625,-0.4775532878953963,2.177547452700138,0.4657570881722495
1768418367106175200,6.09417529296875,-0.508169302368164,3.3036966777205463,0.4076475751614198
1768418367116176100,6.104176025390625,-0.3826888192653656,4.258121554857492,0.10648306503025814
1768418367126177000,6.114177001953125,-0.2655927912134677,5.0442807001322505,-0.17489833827707915
1768418367136178000,6.124177978515625,-0.17024207343645392,5.537888977706432,-0.23879127526124938
1768418367146180000,6.13418017578125,-0.18764920837655663,5.774323990431427,-0.10130518746832386
1768418367156181000,6.144180908203125,-0.15724004158750177,5.840646766644716,0.31986426043137905
1768418367166182100,6.15418212890625,0.03234028098210692,5.79985181491971,0.7482976166531443
1768418367176183300,6.164183349609375,0.08507716104388237,5.682324336647987,1.0960559923127293
1768418367186184200,6.17418408203125,0.11471936204843222,5.3202270545125,1.3349166247494517
1768418367196186000,6.18418603515625,0.08224215681366621,4.755960017347336,1.5830845992356537
1768418367206187000,6.19418701171875,0.007085574346780777,4.196874182212352,1.876771339098364
1768418367216188200,6.204188232421875,-0.28111878858208655,3.6702041775137184,2.1403823819100856
1768418367226189000,6.21418896484375,-0.701973380112648,3.191060478621721,2.417817805804312
1768418367236190200,6.224190185546875,-0.8012463858999311,2.808161231476068,2.7480016540676355
1768418367246192000,6.234192138671875,-0.8169184406757354,2.317745027941465,2.7904826591834424
1768418367256193300,6.244193359375,-0.8955097468316554,1.6258640027761457,2.5925831288188697
1768418367266194200,6.254194091796875,-1.1686274536572396,0.8325070549517869,2.364761630660295
1768418367276195000,6.264195068359375,-1.4801285210214554,-0.013459201031923293,1.94403110390082
1768418367286196200,6.2741962890625,-1.5879647724926471,-0.7360720490694046,1.209452289063856
1768418367296198100,6.2841982421875,-1.5064216307938099,-1.2134797179490326,0.30822737945578993
1768418367306199000,6.294198974609375,-1.2840204041182994,-1.48156074578166,-0.46110502458270636
1768418367316200000,6.304199951171875,-1.2143280053414405,-1.630214599201083,-0.9634430269815027
1768418367326201000,6.314201171875,-1.7595559955157338,-1.6659586972773075,-1.0597953960817306
1768418367336202200,6.3242021484375,-2.6486066293358803,-1.7596850287228822,-0.577482163775526
1768418367346204200,6.3342041015625,-3.3136803115963933,-2.0535890645980834,0.30015294020213185
1768418367356205300,6.344205322265625,-3.821140004390478,-2.5161831952273843,1.2104984371159224
1768418367366206200,6.354206298828125,-4.095825545054674,-2.5727222440510986,2.157253291081637
1768418367376207000,6.36420703125,-4.380202458649873,-1.973681999668479,2.8827555769503115
1768418367386208000,6.3742080078125,-4.088606699717045,-0.8963035275578498,2.9076754986733198
1768418367396210200,6.384210205078125,-2.4132944831609726,0.10474223097860813,2.205293976151198
1768418367406211000,6.394211181640625,0.7886275812149047,0.4162678482621908,1.4256097259789704
1768418367416212000,6.4042119140625,4.836028994840383,-0.3181242848962545,0.8730700245518237
1768418367426213000,6.414213134765625,8.247379407072067,-2.4298113181978462,0.6095406686741859
1768418367436214300,6.42421435546875,8.455296181321144,-4.440022428840399,1.053873312556371
1768418367446216200,6.43421630859375,6.15545272077322,-5.645306565374136,1.6000896561808884
1768418367456217000,6.444217041015625,3.6610593325495717,-5.523191174790263,1.4167624026566743
1768418367466218200,6.45421826171875,2.900184850656986,-4.234787441021203,0.1638995908082463
1768418367476219100,6.46421923828125,3.212131323701143,-3.0452398028016088,-0.6248938667591661
1768418367486220000,6.474219970703125,3.191141142642498,-1.9260931500196457,-1.1418384501267225
1768418367496222000,6.484221923828125,1.9519081208862363,-1.57018595469594,-2.1758298351272938
1768418367506223000,6.49422314453125,0.7710112605035304,-1.8545856646448373,-3.16361922172755
1768418367516224300,6.504224365234375,-0.020307459491491316,-2.8578204576581716,-3.5256267797529697
1768418367526225200,6.51422509765625,0.017340280248969792,-3.8534874457657335,-2.681224119824171
1768418367536226000,6.52422607421875,0.854250611661002,-4.474003024375438,-1.4309705223597586
1768418367546228200,6.534228271484375,1.424071848887205,-4.525532720604539,-0.5731967050086707
1768418367556229000,6.54422900390625,1.613585682091862,-3.941097340157628,-0.1772481710725464
1768418367566230000,6.55422998046875,1.599492713201046,-2.9479379509568213,-0.4916341644896194
1768418367576230400,6.56423046875,1.2778045983433723,-1.5439280623674392,-0.7955603030875324
1768418367586231600,6.5742314453125,0.8892039977509528,-0.161446114975214,-0.7753150951772928
1768418367596233500,6.5842333984375,0.4365186091303825,1.0333335786789655,-0.8133531494095921
1768418367606234400,6.594234375,0.04740932836346328,2.177988182204962,-0.8634050281710922
1768418367616235500,6.604235595703125,-0.09562186286859213,3.155315796023607,-0.9217022457737475
1768418367626236400,6.614236328125,-0.13075754672288895,3.851011995562911,-0.9610220834448933
1768418367636238300,6.62423828125,-0.19047931723594663,4.298582160061597,-1.001267292332649
1768418367646239500,6.634239501953125,-0.16737090191431342,4.612781964990496,-0.9899939109072089
1768418367656240400,6.644240478515625,-0.27169870687313374,4.744281854513288,-1.101166759455204
1768418367666241300,6.6542412109375,-0.5480968966741114,4.691779513859749,-1.1644005566772073
1768418367676242400,6.664242431640625,-0.6682289314210414,4.63457761721313,-1.2579422522708772
1768418367686244600,6.67424462890625,-0.6779636320371181,4.615539739266038,-1.3354893100708722
1768418367696245500,6.68424560546875,-0.7938054222442209,4.6500008117944,-1.4189476377412675
1768418367706246400,6.694246337890625,-0.9077448128961026,4.6610459374219175,-1.4149211587041615
1768418367716247300,6.704247314453125,-0.9729645963035524,4.523543008092045,-1.2742518742978572
1768418367726248400,6.71424853515625,-1.2201661369103938,4.2430175092279905,-1.0949307876750827
1768418367736250400,6.72425048828125,-1.3979437204182148,3.9355437976837155,-0.8160242683149874
1768418367746251300,6.734251220703125,-1.5310533832252025,3.5861873391777275,-0.6197878488570452
1768418367756252400,6.74425244140625,-1.7076630189321935,3.1786025635868307,-0.5983550385974348
1768418367766253600,6.754253662109375,-1.8600678954482077,2.7916455654829737,-0.6260404064457863
1768418367776254500,6.76425439453125,-1.9307529585242271,2.288065344470739,-0.7717140750106424
1768418367786256400,6.77425634765625,-1.9155553893923758,1.6506208428919313,-0.9957058588132262
1768418367796257500,6.784257568359375,-1.6234885058164596,0.8047241450130939,-1.2251039586387573
1768418367806258400,6.794258544921875,-1.405314687577635,-0.18111819917261598,-1.1239913163341582
1768418367816259300,6.80425927734375,-1.4903589692652224,-1.155125144135952,-0.6590798486731946
1768418367826260200,6.81426025390625,-1.4148001626729965,-2.0825375111848117,-0.016326975020579993
1768418367836262400,6.824262451171875,-1.0262052611690013,-2.9195284335523843,0.6658408672407269
1768418367846263300,6.83426318359375,-1.0485294673103838,-3.522788925978541,1.248229105899483
1768418367856264400,6.844264404296875,-2.254919446194172,-3.6971500521063803,1.2722279672548173
1768418367866265600,6.854265625,-4.283735304063558,-3.4855718327403067,0.5561549693148583
1768418367876266500,6.8642666015625,-5.839187800008058,-3.33554493740201,-0.6182131468862295
1768418367886268400,6.874268310546875,-6.150195530897379,-3.1745752077668903,-1.5892824309624731
1768418367896269300,6.884269287109375,-5.779059202259779,-2.774470558798313,-2.3687504080355164
1768418367906270500,6.8942705078125,-4.904408703583479,-1.903421299484372,-3.020263182455301
1768418367916271400,6.904271240234375,-3.3830864407777783,-0.9509364504992961,-3.1568308767616746
1768418367926272500,6.9142724609375,-1.129192319043353,-1.0545166519612073,-3.0786367532297967
1768418367936274400,6.9242744140625,1.2366940047979353,-2.557346395742893,-3.0123978559076785
1768418367946275600,6.934275634765625,2.9937048458755013,-4.903929395633936,-2.907331215280294
1768418367956276500,6.9442763671875,3.813519007992744,-7.075819845485687,-2.145093189949542
1768418367966277400,6.95427734375,4.100311166036128,-7.944560827857256,-1.3345030755124985
1768418367976278300,6.9642783203125,3.967378028839826,-6.7781661016881465,-1.1041647722274064
1768418367986280400,6.974280517578125,4.088184674912691,-3.2922470629453655,-1.166701380965486
1768418367996281300,6.98428125,5.234173741912842,-0.4203244301766157,-0.9530592878721654
1768418368006282200,6.9942822265625,5.344238044697046,0.983937971869111,-0.5801671285431832
1768418368016283400,7.004283447265625,4.39285268138647,1.5344009400874374,0.19570932684391737
1768418368026284500,7.014284423828125,3.721703478604555,0.6098305184662342,1.2411409012041985
1768418368036286500,7.024286376953125,3.0348727225661274,-1.576045786640048,2.009038121340424
1768418368046287400,7.034287353515625,2.0433073245584965,-3.2135166405797,2.174607161464542
1768418368056288500,7.04428857421875,1.183991100070998,-3.228056038063764,1.6779633155867457
1768418368066289400,7.054289306640625,0.9110802409291267,-2.1735925775945186,0.6951901497133076
1768418368076290300,7.064290283203125,0.9503039978146552,-1.3458359320402145,-0.7252829440295696
1768418368086292500,7.07429248046875,0.9189946673154831,-1.0579121396183968,-1.770158345811814
1768418368096293400,7.08429345703125,0.7610369059126824,-0.7381395029932261,-2.0706126801133156
1768418368106294300,7.094294189453125,0.4203810557346791,-0.020185878938436506,-1.7832038514763116
1768418368116295400,7.10429541015625,-0.01871872899532318,0.8432745326817035,-1.490027837614715
1768418368126296600,7.114296630859375,-0.40571788574047385,1.913240682709217,-1.4477533148564397
1768418368136298500,7.124298583984375,-0.6706674836795776,2.869835305100679,-1.322157680941373
1768418368146299400,7.13429931640625,-0.6824654735010117,3.7581110090255736,-1.0648320750746876
1768418368156300300,7.14430029296875,-0.594065963101387,4.523195802089572,-0.744539652359113
1768418368166301400,7.154301513671875,-0.5468028382755815,5.186967169579863,-0.3789380884297192
1768418368176302300,7.16430224609375,-0.3837959767896682,5.598596836647391,-0.008471375282527878
1768418368186304300,7.17430419921875,-0.21895378963537512,5.747213865187764,0.46933428907189517
1768418368196305400,7.184305419921875,0.03758241941928863,5.577864429742098,1.0024934731267392
1768418368206306600,7.194306640625,0.23301862841024992,5.149007733541727,1.7516000680752097
1768418368216307500,7.204307373046875,0.29754838372692466,4.54901062682569,2.46043705034703
1768418368226308400,7.214308349609375,0.2574443368755281,3.8830473022490737,3.11382380194515
1768418368236310500,7.224310546875,-0.009198328717052937,3.234167798942327,3.6007027712643143
1768418368246311400,7.2343115234375,-0.26318580313697454,2.7369734795749188,3.89505601221174
1768418368256312300,7.244312255859375,-0.5978149403713643,2.4117986916452643,4.023131480243801
1768418368266313200,7.254313232421875,-0.9201870919704437,2.2803952482342718,3.914491072782874
1768418368276314600,7.264314697265625,-1.0294003308832644,2.212580187636614,3.596932605075836
1768418368286316300,7.27431640625,-1.0518727133236825,2.1131687962919474,3.0671839235842224
1768418368296317400,7.2843173828125,-1.0000513406716287,1.9114473695516585,2.1732605691611764
1768418368306318600,7.294318603515625,-0.9658895433507859,1.5439754086405038,0.9456813064500689
1768418368316319500,7.304319580078125,-0.9541722175501286,1.0452297681778668,-0.3056974591193721
1768418368326320400,7.3143203125,-0.9765398244418203,0.4894172556251287,-1.218459990579635
1768418368336322300,7.324322265625,-1.0416215145528316,-0.023992285484075546,-1.7213469686307012
1768418368346323500,7.334323486328125,-1.0579346437111496,-0.4584808500915766,-1.8075876204960046
1768418368356324400,7.344324462890625,-1.1636159091055394,-0.7499608736902474,-1.423377290751785
1768418368366325500,7.354325439453125,-1.7164309934079647,-0.9034253422617912,-0.5821968442725017
1768418368376326400,7.364326416015625,-2.613086403143406,-1.1145137322843075,0.4285749566495418
1768418368386328600,7.37432861328125,-3.3663737909078595,-1.5539631341695785,1.0876000063955784
1768418368396329500,7.38432958984375,-3.6938837437868117,-2.2548802832275627,1.2007551878672091
1768418368406330400,7.394330322265625,-4.015941276478767,-3.221174461856484,0.8743461089022457
1768418368416331500,7.40433154296875,-4.53869673808217,-4.014728978079557,0.38353104224316775
1768418368426332400,7.41433251953125,-4.732212062013149,-3.981157547867298,0.11451890757288784
1768418368436334300,7.424334228515625,-3.852238907009363,-2.377764904618263,0.6985054848063736
1768418368446335200,7.434335205078125,-0.9714533149577677,-0.3003437135338783,1.83474129262045
1768418368456336400,7.44433642578125,3.492995260739326,-0.27618074765801426,2.998205664426088
1768418368466337500,7.454337646484375,8.724429933077097,-2.0872692158818245,4.275741967222094
1768418368476338400,7.46433837890625,11.634462808531522,-4.712964925229549,4.059415676546097
1768418368486340600,7.474340576171875,9.935808294832706,-6.657089991024137,2.7261393663495777
1768418368496341500,7.484341552734375,7.127263616997003,-7.087420851430297,1.5046166271984576
1768418368506342400,7.49434228515625,4.460709827560186,-6.816903536361456,-0.1326575716579333
1768418368516343300,7.50434326171875,3.0711750390470027,-4.628452996852993,-0.8529159289911389
1768418368526344200,7.51434423828125,1.7145115696527062,-1.0812842473775148,-1.2691047206677495
1768418368536346400,7.524346435546875,0.16182839229106902,0.6307195772379637,-2.1658228203758596
1768418368546347300,7.53434716796875,-0.5062228444755077,0.17180968807935715,-2.814012295591831
1768418368556348400,7.544348388671875,-0.4723240820050239,-1.704438357797265,-3.107845312057435
1768418368566349600,7.554349609375,-0.0357014279782772,-3.7979029211878776,-2.711847221624851
1768418368576351700,7.564351806640625,0.5404677900351583,-5.0357513567179435,-1.4261229361981154
1768418368586352600,7.5743525390625,0.910440920112282,-5.3116795909196135,-0.021165026168897746
1768418368596353500,7.584353515625,1.5468483337283134,-4.846998132622241,0.7483636676266789
1768418368606354700,7.594354736328125,1.9764450346410274,-3.7239836984962222,0.845718710963428
1768418368616355600,7.60435546875,1.8608616761744021,-2.0986995414346454,0.6213150584243238
1768418368626357500,7.614357421875,1.3979412362001835,-0.3433586793959141,0.24409228601250796
1768418368636358700,7.624358642578125,0.9267243117194622,1.3905658851265907,-0.3207832019072026
1768418368646359800,7.63435986328125,0.6176992790799588,2.9318261895895,-0.8532628427326678
1768418368656360700,7.644360595703125,0.39613523388095195,4.148715423721074,-1.1990877661116421
1768418368666361600,7.654361572265625,0.34483277053646744,5.07867104551196,-1.3095777469620107
1768418368676363800,7.66436376953125,0.20091778220720588,5.731096258601546,-1.3357717802740632
1768418368686364700,7.67436474609375,0.04758008182048797,6.015003216597438,-1.1237706593208014
1768418368696365600,7.684365478515625,-0.11549677616171539,5.913152615407109,-0.8882537112887948
1768418368706366500,7.694366455078125,-0.27911512060947713,5.584816733098029,-0.8634910990193486
1768418368716367600,7.70436767578125,-0.37605683390498157,5.13147032328546,-0.8999797318525612
1768418368726369500,7.71436962890625,-0.66165532518439,4.74494879398942,-1.13765378485322
1768418368736370700,7.72437060546875,-0.7674924387276172,4.451102625781298,-1.3079953000761568
1768418368746371600,7.73437158203125,-1.0652771154284477,4.3152129768669605,-1.5397573525540529
1768418368756372700,7.744372802734375,-1.4136790496885776,4.29106170142889,-1.514794176211208
1768418368766373600,7.75437353515625,-1.4490940619409083,4.206935557499528,-1.3331500534683465
1768418368776375600,7.76437548828125,-1.381650757265091,4.101405391013622,-1.1397957653179764
1768418368786376700,7.774376708984375,-1.3767127163410187,3.886604702469706,-0.9870201557934284
1768418368796377600,7.784377685546875,-1.6250994481444359,3.638074178281426,-0.8676461728721857
1768418368806378500,7.79437841796875,-1.8758944101333617,3.3064661424338815,-0.8376056201998144
1768418368816379600,7.804379638671875,-2.0812509785056115,2.755691624048352,-0.8139516998246311
1768418368826381600,7.814381591796875,-2.184871511977911,1.9412047944337127,-0.7219959582481533
1768418368836382700,7.8243828125,-2.1149276226580143,0.9036153118759394,-0.5444298255339265
1768418368846383600,7.834383544921875,-1.6517793652772903,-0.2206020682990551,-0.419585996366851
1768418368856384500,7.844384521484375,-0.9476854128140956,-1.197736789894104,-0.25949390808278694
1768418368866385700,7.8543857421875,-0.42008302263617514,-1.8908266063272952,-0.18972415148708968
1768418368876387600,7.8643876953125,-0.30947518755979836,-2.526868839892745,-0.36571813951376825
1768418368886388500,7.874388427734375,-1.002921489280462,-2.9940187341302633,-0.3429274849044159
1768418368896389600,7.8843896484375,-2.747493704545498,-3.343851577976346,0.03764680815869942
1768418368906390800,7.894390869140625,-4.87165560401678,-3.7401749548405405,0.4484724105680361
1768418368916391700,7.9043916015625,-6.289663622820377,-4.1559839534193275,0.548961112288013
1768418368926393600,7.9143935546875,-6.4931380307078355,-3.970757734405994,0.3381310809407383
1768418368936394800,7.924394775390625,-5.6458034089803695,-2.7906150533914564,-0.09577087941784411
1768418368946395600,7.934395751953125,-4.1970472006917,-0.8908306491047143,-0.48102089094072575
1768418368956396500,7.944396484375,-2.248874320811033,0.33903730906546115,-0.7729577183961868
1768418368966397400,7.9543974609375,0.5350187308490276,-0.4189823679178953,-1.394035899324715
1768418368976399600,7.964399658203125,3.6845980290472506,-3.1054519871801136,-1.9284050802238284
1768418368986400500,7.974400390625,5.361254645949602,-6.2971069245636455,-1.7321321281477808
1768418368996401700,7.984401611328125,3.915084362500906,-8.306165942561625,-1.4667134513922035
1768418369006402800,7.99440283203125,3.145401135730743,-8.93546630065143,-1.744086477574706
1768418369016403700,8.00440380859375,3.473501455718279,-7.585655619761347,0.18229739901982248
1768418369026405600,8.014405517578124,3.2834932631254192,-2.8891432321608064,0.6413125751838088
1768418369036406500,8.024406494140624,4.033568118584156,1.0506108766943216,1.0639439671285449
1768418369046407700,8.03440771484375,3.8289036241292953,2.5390257261544464,1.486242912248522
1768418369056408600,8.04440869140625,2.9936545769929883,2.6664088280081746,1.9562115171685814
1768418369066409500,8.054409423828124,2.389928805142641,0.6525958934813737,2.373171439348161
1768418369076411600,8.06441162109375,1.719345419549942,-2.4838626418590546,2.0720753000117837
1768418369086412500,8.07441259765625,1.6914894443750381,-4.149747689378262,1.4251334867693484
1768418369096413700,8.08441357421875,1.8922937562704085,-4.1674651323765515,0.6567626577720046
1768418369106414600,8.09441455078125,1.790333264964819,-3.6621938895374533,-0.316973836219497
1768418369116416800,8.104416748046875,1.5948726521849632,-3.1917426156669855,-1.3076138995431363
1768418369126417700,8.114417724609375,1.4701473713636397,-2.638673848864436,-1.7066818989403545
1768418369136418600,8.12441845703125,1.4559621941447256,-1.7862684997439384,-1.413128137807548
1768418369146419500,8.13441943359375,1.3361059806644915,-0.6758534349501133,-0.9302942060954869
1768418369156420600,8.144420654296875,1.0486217487037182,0.6100806938350201,-0.5233323847085237
1768418369166422500,8.154422607421875,0.5148433367719873,2.0382629006505013,-0.19431608238723128
1768418369176423400,8.16442333984375,0.11049798149373381,3.4036019900619983,-0.05798564916914328
1768418369186424800,8.1744248046875,-0.03179689482040703,4.490765358605981,-0.027441786617133763
1768418369196425700,8.18442578125,-0.017444544341042638,5.35536383434534,-0.1070616869021207
1768418369206426600,8.194426513671875,0.19405191502571104,6.184432147020101,0.02679041003631428
1768418369216428500,8.204428466796875,0.2743547743398696,6.340919762805104,0.1997895636285655
1768418369226429700,8.2144296875,0.24206571208834646,6.269912628167868,0.5933770309891552
1768418369236430600,8.2244306640625,0.391097824235633,6.1853942700505256,1.0300245271962136
1768418369246431500,8.234431396484375,0.15127777218222618,5.514087830880284,1.05043910032399
1768418369256432600,8.2444326171875,0.04352349990606308,5.10362603854835,1.4245381512247026
1768418369266434600,8.2544345703125,0.030784429842233656,4.590505251252651,1.7186444316737353
1768418369276435700,8.264435791015625,-0.25058110004253686,3.8674166023969647,1.553852075010538
1768418369286436600,8.2744365234375,-0.4889773298379034,3.2912235651165247,1.7734980116285384
1768418369296437800,8.284437744140625,-0.864361817439273,2.7224551248788833,2.0091082639671862
1768418369306439700,8.294439697265625,-1.0903906600274145,2.369160157880187,2.366320696670562
1768418369316440600,8.304440673828125,-1.2320553852118552,2.134734146890044,2.6495012400880453
1768418369326441500,8.31444140625,-1.2948995255291462,1.9638480033963917,2.776300404573977
1768418369336442600,8.324442626953125,-1.0642692535601557,1.5973878498762846,2.7575387132197617
1768418369346443800,8.33444384765625,-0.914708952820301,0.9709358669549226,2.4736907919347284
1768418369356445400,8.344445556640625,-0.8955154459200799,0.24159049579203126,1.8863406930848956
1768418369366446800,8.35444677734375,-1.0385526285015045,-0.4462900615602731,1.2092071551963686
1768418369376447700,8.36444775390625,-1.4595195943653583,-0.8216068907529115,0.6092269996151328
1768418369386448600,8.37444873046875,-1.691191338211298,-0.9179062875568866,0.13468283040784298
1768418369396449500,8.384449462890625,-1.5613945993445812,-0.8001672123610973,-0.05779949721358716
1768418369406451700,8.39445166015625,-1.5306149918079375,-0.6009025311231613,0.29318781389724463
1768418369416452600,8.40445263671875,-1.9247196697093545,-0.44466333714127537,1.3660308710679412
1768418369426453500,8.41445361328125,-2.50634452278018,-0.8089058146119117,2.6496038236796853
1768418369436454700,8.42445458984375,-3.3089094439327713,-1.7763783893704412,3.257738351882994
1768418369446456600,8.43445654296875,-4.187545212852955,-3.032427082979679,3.065560706296563
1768418369456457700,8.444457763671876,-4.290876992511749,-3.9479812544524666,2.338373828341812
1768418369466458600,8.454458740234376,-3.2493630299866196,-3.3562942954421042,1.4668636735178529
1768418369476459800,8.464459716796876,-1.0336134915988893,-0.581503418648243,1.1031013807795942
1768418369486460700,8.474460693359376,2.794215708231926,0.9619038347154855,0.2872987558586523
1768418369496462600,8.484462646484374,6.923273660802841,-0.7874263887315988,-0.4104596734400838
1768418369506463500,8.49446337890625,7.984913881033658,-4.254256111600995,0.5359046103054658
1768418369516464600,8.504464599609374,6.9361810731709,-6.990138288807868,0.9689905050408094
1768418369526465500,8.514465576171874,6.062571023458242,-8.536064246994256,0.5209906438879668
1768418369536466700,8.524466796875,5.563356596440077,-8.754201971006394,-0.29156236811988057
1768418369546468600,8.534468505859374,5.064458980286121,-7.12475192643702,-0.7156639056824148
1768418369556469800,8.5444697265625,4.296217184495926,-4.227533524370193,-1.1105001127287746
1768418369566470700,8.554470703125,2.5205390523493287,-2.656666017150879,-3.00954071291089
1768418369576471800,8.564471923828124,1.1080348185937852,-1.99367264829576,-4.506133900390565
1768418369586474000,8.574473876953125,0.08387063479833304,-1.9582026909857988,-4.774512742125988
1768418369596475000,8.584474853515625,-0.3781015645403415,-2.259626016449928,-3.90652491620928
1768418369606475800,8.594475830078125,0.09016608168072998,-2.562410108873248,-2.002108175946772
1768418369616477000,8.604476806640625,0.7826655310053378,-3.101512894165516,-0.38095030503496524
1768418369626478000,8.61447802734375,1.3080197038650512,-3.330011268672347,0.586950139746815
1768418369636479700,8.624479736328125,1.5634896719276905,-3.1114889292567964,1.1757874814797191
1768418369646481000,8.63448095703125,1.437395440840721,-2.527595985123515,1.1845519488241523
1768418369656482000,8.64448193359375,1.225950492465496,-1.4030179549425839,0.8903819554891437
1768418369666483000,8.65448291015625,1.050745901250839,0.16444880392253397,0.5024932660257444
1768418369676484900,8.66448486328125,0.8619313023567199,1.774593844041228,0.00038867052402347325
1768418369686486000,8.674486083984375,0.7261340079009533,3.38632819917798,-0.4020250225719064
1768418369696487000,8.68448681640625,0.5943173075139522,4.891552729141712,-0.6524089195419103
1768418369706487800,8.69448779296875,0.4458990529486909,5.911044244951009,-0.9284334537249058
1768418369716489000,8.704489013671875,0.1920505486080423,6.776886583271622,-1.0389912391144782
1768418369726491000,8.714490966796875,-0.10836213850881904,7.327211604323983,-1.2388343778274953
1768418369736492000,8.724491943359375,-0.3899497501790523,7.347744689264893,-1.5342872505798935
1768418369746493000,8.734492919921875,-0.49276243786718693,6.977549440869689,-1.7029969268172978
1768418369756493800,8.744493896484375,-0.7365022571802139,6.320273280617594,-1.8494059239193796
1768418369766495000,8.754494873046875,-0.9950456413388251,5.532253602167963,-2.0398503159724175
1768418369776497000,8.764496826171875,-1.1378303835291415,4.686352228114009,-2.1603639704480764
1768418369786497800,8.774497802734375,-1.22254857506752,3.8115532608777283,-2.1484623741216957
1768418369796499000,8.7844990234375,-1.2915665817141533,2.917301405152678,-1.906051355727017
1768418369806499800,8.794499755859375,-1.3250573479056358,2.0479846687197685,-1.548078898436576
1768418369816501800,8.804501708984375,-1.3914391608297825,1.3153127834826708,-1.3485909298367798
1768418369826503000,8.8145029296875,-1.453766729927063,0.936769977980852,-1.1810000284962356
1768418369836504000,8.824504150390625,-1.5951929701805114,0.8206365844160318,-0.9474836066316813
1768418369846505000,8.8345048828125,-1.6780162148177622,0.7165916880518197,-0.6607857027430087
1768418369856505900,8.844505859375,-1.5270178440988063,0.5780284360140562,-0.4857859499180689
1768418369866508000,8.854508056640626,-1.5176397749006747,0.3935480669319629,-0.3366690090315416
1768418369876509000,8.864509033203126,-1.7116496043503284,0.1508440569400787,-0.1646960201492533
1768418369886509800,8.874509765625,-1.7918226267397404,-0.04651742102503776,0.1703894642842002
1768418369896510700,8.8845107421875,-1.618511886447668,-0.14697919820547103,0.6767302908498793
1768418369906513000,8.894512939453126,-1.0906477035284041,-0.20065233620405196,1.023114382481575
1768418369916513800,8.904513671875,-0.5036322434604168,-0.3323983094424009,1.259807753881812
1768418369926515000,8.914514892578126,-1.0334954912424086,-0.5313268905937671,1.3924072752095757
1768418369936515800,8.924515869140626,-3.182574389827251,-0.9873276143074035,1.3734301875390111
1768418369946517000,8.93451708984375,-5.281300234746933,-1.871345076265931,1.0534336790300904
1768418369956519000,8.944518798828126,-5.604761789017916,-2.9319916092842817,0.560452374247834
1768418369966519800,8.954519775390626,-4.758034485533833,-3.3857962842583653,0.17181261068880557
1768418369976521000,8.96452099609375,-3.9299411553710697,-2.8288088827073574,-0.33395138410329817
1768418369986521900,8.97452197265625,-3.486320605280995,-1.567971785777807,-0.8659145267739892
1768418369996523000,8.98452294921875,-2.7781939632356165,-0.3496089719623327,-1.480116246061772
1768418370006525000,8.99452490234375,-0.6061129592478275,-0.5592722976177931,-2.5643568590268493
1768418370016526000,9.004526123046874,1.704330221247673,-2.9264602786421774,-3.4479628175750374
1768418370026527000,9.01452685546875,3.7502223016023635,-5.60409894119501,-3.4972757145375013
1768418370036527900,9.02452783203125,5.309383004415035,-7.024747829896211,-3.1594980501443146
1768418370046530000,9.034530029296874,4.926379712373018,-7.582415030404925,-5.834042838335037
1768418370056531000,9.044531005859374,6.9933952447772025,-7.371993579858541,-3.831763105213642
1768418370066531800,9.05453173828125,4.555587082606554,-5.486050069397687,-1.0417685218080877
1768418370076532700,9.06453271484375,2.061329303461313,-2.8778526073396202,0.58411279742904
1768418370086534100,9.0745341796875,1.409830557566881,0.08951017505526541,1.8054427174217997
1768418370096535800,9.084535888671875,1.618665031182766,1.8807827666968107,2.3598788270547986
1768418370106537000,9.094536865234375,1.5576619886875152,2.1275977191388606,2.3548992850765584
1768418370116537900,9.104537841796875,1.1148282050609588,0.7157680967092513,2.0472738901019096
1768418370126539000,9.1145390625,0.38789574025869367,-1.2706599872857332,1.485816941921413
1768418370136540000,9.124539794921875,0.05213584542870521,-2.4236335063457486,0.6745752317078412
1768418370146541800,9.134541748046875,0.2525344626000151,-2.6794436661481855,-0.5252005166679621
1768418370156543000,9.14454296875,0.5653284923842177,-2.6286948911637067,-1.7150171810872852
1768418370166544000,9.1545439453125,1.3857260438799857,-2.740776963511109,-2.446802492748201
1768418370176545000,9.164544921875,1.994651722460985,-2.4725907217383383,-2.4407221499212084
1768418370186546700,9.174546630859375,1.7598165461480617,-1.2890250805377959,-1.7231389666140078
1768418370196548000,9.184548095703125,0.9627765258967876,0.36618659727573394,-0.7691280771054327
1768418370206549000,9.194549072265625,0.06486563620753585,1.9035802894383669,-0.07099343490544706
1768418370216550000,9.2045498046875,-0.4656055874049663,3.2763445604145525,0.17543816250851377
1768418370226550800,9.21455078125,-0.5561141258478164,4.533973801213502,0.20843608541544525
1768418370236553000,9.224552978515625,-0.6012941607892512,5.623319189971685,0.18329477602671831
1768418370246553900,9.234553955078125,-0.6089934100549668,6.411746280178427,0.07759692482370882
1768418370256554800,9.2445546875,-0.37709954789094624,6.765182701474428,-0.04221657289280556
1768418370266556000,9.254555908203125,-0.21131525758095085,6.625349283370375,-0.22129728402160107
1768418370276557000,9.26455712890625,-0.22248189069628715,6.001352292385697,-0.48435325023382897
1768418370286559000,9.27455908203125,-0.2836579516708851,5.026662625855207,-0.3132581036319956
1768418370296559900,9.284559814453125,-0.2590998489975929,4.029136273616552,0.40711346828471867
1768418370306561000,9.29456103515625,-0.11184482952542603,3.2057933528512716,1.3386226396605372
1768418370316562000,9.30456201171875,-0.1558859966300428,2.524274147224426,2.1384758176364005
1768418370326563800,9.314563720703125,-0.4688998066447675,2.1854308994263407,2.893516040417552
1768418370336565000,9.32456494140625,-0.6163759945869446,2.0493612177699805,3.6073590142831202
1768418370346566000,9.33456591796875,-0.9581237316548824,2.0043600465267897,3.7996763606011865
1768418370356566800,9.34456689453125,-0.9768189336441456,1.9211749828398226,3.949929465910792
1768418370366568000,9.35456787109375,-0.8145708546362816,1.6365601688355207,3.940970206646621
1768418370376570000,9.364570068359376,-0.6110052613340318,1.2004162382364272,3.849771347852051
1768418370386571000,9.374571044921876,-0.43193829560279845,0.6633581105142832,3.4020977229788896
1768418370396572000,9.384572021484376,-0.20046412015557288,0.11542729112207889,2.720442616012692
1768418370406572800,9.39457275390625,0.02949497455358505,-0.35579847425222394,1.9248872813612221
1768418370416575000,9.404574951171876,0.10845686758756637,-0.6564595831722021,1.0919007723294198
1768418370426576000,9.414575927734376,0.03120287445001304,-0.6206605400383473,0.3681111721301451
1768418370436576800,9.42457666015625,-0.5403448943078517,-0.4242541708409786,-0.2056320243127644
1768418370446578000,9.434577880859376,-1.683322504532337,-0.3318359993845224,-0.09954893665183336
1768418370456579000,9.4445791015625,-2.9807565169751644,-0.6710293757945299,0.4070834750052541
1768418370466581000,9.4545810546875,-3.850823194992542,-1.77884273365736,0.3422089979041368
1768418370476582000,9.464581787109376,-4.267034344631433,-3.388346553263068,-0.14838325631711632
1768418370486583000,9.4745830078125,-4.48004230453968,-4.528723041078448,-0.7819283758372068
1768418370496584000,9.484583984375,-4.376490744650364,-3.8818613073348995,-1.1583325618751346
1768418370506584800,9.494584716796876,-3.3371476964235303,-1.4995470688492059,-1.2628615884944796
1768418370516587000,9.5045869140625,-1.0362895789403468,-0.012609890726208686,-1.2720026340663433
1768418370526588000,9.514587890625,2.25292257328853,-0.7690805847018957,-0.8556719497010111
1768418370536588800,9.5245888671875,6.132463474851846,-3.097344084048271,0.6653805562525987
1768418370546590000,9.53458984375,8.832112893682718,-5.881387357833981,1.9380344938345253
1768418370556591900,9.544591796875,8.4461624422729,-7.651866752293706,2.92233355410099
1768418370566593000,9.554593017578124,6.31129210178256,-7.77273009698987,3.091765991654992
1768418370576593700,9.56459375,4.19113534629941,-6.441006861454248,1.7695514659598468
1768418370586594800,9.5745947265625,2.776760715562105,-4.019247916808724,0.25456348420958963
1768418370596595700,9.584595703125,2.3203730383574963,-1.3216951779961585,-0.7775590747117995
1768418370606597600,9.59459765625,1.3428969559788704,0.4744289453297853,-2.2092384759932755
1768418370616598800,9.604598876953125,-0.21071663410067556,1.1578671363204718,-3.455516886216402
1768418370626599700,9.614599609375,-1.356655432218313,0.7043184819340705,-3.769650055649876
1768418370636600800,9.624600830078125,-1.5388520742774008,-0.8435930971115827,-3.139898446661234
1768418370646602800,9.634602783203125,-0.7814590047597885,-2.5813141313076016,-1.8456285973377524
1768418370656604000,9.64460400390625,0.3042179976839572,-3.6936306458085775,-0.41384544342085716
1768418370666604800,9.654604736328125,1.2072996410746126,-4.014847051501274,0.6990761973664165
1768418370676605700,9.664605712890625,1.8526269317924975,-3.499402205172181,1.5269167218118904
1768418370686606600,9.674606689453125,2.0814869792185724,-2.374253097105026,1.5220803876966238
1768418370696608800,9.68460888671875,1.8363269543766974,-0.8677735986441373,0.8234629669483751
1768418370706609700,9.694609619140625,1.4121417571187018,1.1242682335793972,-0.001076780652347952
1768418370716610600,9.704610595703125,0.8859235878407955,2.8901854346901175,-0.8501512865833938
1768418370726612000,9.714612060546875,0.23366025078203528,4.308804278868436,-1.1841533779606221
1768418370736613600,9.724613525390625,-0.4170260462183505,5.602341868394613,-1.2491536733984947
1768418370746614800,9.73461474609375,-0.5885305773386731,6.6550985249459735,-1.2834338364019988
1768418370756615700,9.74461572265625,-0.42086160579323767,7.182595628118515,-1.28077396954298
1768418370766616800,9.754616943359375,-0.234112780322507,7.213277766630053,-0.9713546038236468
1768418370776617700,9.76461767578125,-0.6711012719869613,6.922117476505041,-0.7979482211373746
1768418370786619600,9.77461962890625,-0.9157469906311482,6.514303568333387,-0.8608443108376115
1768418370796620800,9.784620849609375,-0.8310907584130763,5.639320476701855,-1.1183107864797115
1768418370806621700,9.79462158203125,-0.8899358191568404,4.337866707223654,-1.7228259551420806
1768418370816622800,9.804622802734375,-1.0435153654754161,3.0888351989001035,-2.244803418110311
1768418370826624500,9.81462451171875,-1.339781454306841,2.369532498323917,-2.297143407808989
1768418370836626000,9.8246259765625,-1.4892285039305686,2.0239836154073476,-1.8426167021706699
1768418370846626800,9.834626708984375,-1.8025019877947865,1.7937854512453077,-1.397535578008741
1768418370856627700,9.844627685546875,-2.000888571023941,1.7085574835538864,-0.9672842856448143
1768418370866628600,9.854628662109375,-2.0331202770650387,1.607543917709589,-0.6375629403267056
1768418370876630800,9.864630859375,-1.9752958646059036,1.3474439517587422,-0.5029634042881429
1768418370886631700,9.874631591796875,-2.0367606793940065,1.0375216780185699,-0.3335074397280812
1768418370896632600,9.884632568359375,-2.4683985307455063,0.673231854274869,0.046548446350963786
1768418370906633700,9.8946337890625,-2.870413981771469,0.265392227140069,0.5402325199745596
1768418370916635600,9.9046357421875,-2.7209692702353,-0.28163316784501075,0.9209124105703085
1768418370926636800,9.91463671875,-1.8937597371697426,-1.0857757135778665,1.1202832555964588
1768418370936637700,9.9246376953125,-0.8752280063033103,-1.9458675255477427,1.2230031869672238
1768418370946638800,9.934638916015626,-0.480991518715769,-2.32191383805871,1.2214293617792427
1768418370956639700,9.9446396484375,-1.0884651718575507,-2.2960259480863807,1.0551667864330112
1768418370966641700,9.9546416015625,-2.822561512750387,-2.563799517405033,0.4619985393563285
1768418370976642800,9.964642822265626,-4.8432501782655715,-3.4379397284716364,-0.19500673153251408
1768418370986643700,9.974643798828126,-5.845384901082515,-4.413062525722384,-0.29168592143431304
1768418370996644600,9.98464453125,-6.750173348391056,-4.142919304662943,-1.1205698905181138
1768418371006646500,9.994646484375,-5.296335306793451,-2.7061130618870255,-2.307411849975586
1768418371016648000,10.00464794921875,-1.604044969677925,-1.1468337011307477,-2.14280303318575
1768418371026648800,10.01464892578125,1.7886802370607853,-1.6301748517125845,-1.7172323729187249
1768418371036649700,10.024649658203124,4.527680838549137,-4.419185977038741,-1.7364499913468956
1768418371046650600,10.034650634765624,4.355476013672352,-7.2082158070653675,-1.6210628861047327
1768418371056652800,10.04465283203125,2.9722248354732987,-8.016363496786356,-1.7881493450544774
1768418371066653700,10.05465380859375,2.698329568403959,-7.205102058959007,-2.178018431212753
1768418371076654600,10.064654541015624,3.24872823921442,-5.535919723460078,-1.5811358032554388
1768418371086655700,10.07465576171875,4.496961875158548,-3.125816729816794,-0.8857571452327072
1768418371096657700,10.08465771484375,5.171372710084915,-0.9998679469287395,-0.32569840994495897
1768418371106658800,10.094658935546875,4.483329655647277,0.351262584388256,0.5526862337583676
1768418371116659700,10.10465966796875,3.34141938239336,0.6136994688540697,1.762540710414946
1768418371126660900,10.114660888671875,2.4726573572337625,-0.6076835695654154,2.562594817790389
1768418371136662800,10.124662841796875,2.132095030558109,-2.0980156508237124,2.3174204721622167
1768418371146663700,10.13466357421875,2.2615151911973954,-2.7121763074487446,1.5243135535761714
1768418371156664800,10.144664794921875,2.0083377179861066,-2.516345692312717,0.4452932325426489
1768418371166665700,10.154665771484375,1.4151836090326309,-1.865679305589199,-0.6898014424122869
1768418371176667600,10.164667724609375,1.009393315643072,-1.351750709041953,-1.4623951498016714
1768418371186668500,10.17466845703125,0.9968868122261016,-0.9773889886170625,-1.6489895884282886
1768418371196669700,10.184669677734375,1.0474421835303307,-0.36805940541028975,-1.4078157106131315
1768418371206670800,10.1946708984375,0.8101135829664766,0.397091438627243,-1.1259948381762952
1768418371216671700,10.204671630859375,0.5161046984773129,1.334103993192315,-1.010197398567572
1768418371226674000,10.214673828125,0.1476817204516381,2.3925632452994585,-0.9770167943038046
1768418371236674800,10.2246748046875,-0.2649953367769718,3.437369819629192,-0.8495916799392551
1768418371246675700,10.23467578125,-0.6245290520347655,4.513659327459335,-0.7900529378429054
1768418371256676600,10.244676513671875,-0.7416193079330027,5.441503071662783,-0.6858481747418642
1768418371266678800,10.2546787109375,-0.6194893043018878,6.034454936042428,-0.5037433391520754
1768418371276679700,10.2646796875,-0.44600189226865766,6.2694888497978445,-0.28230005252221596
1768418371286680600,10.2746806640625,-0.13840776921510695,6.216352302893996,0.23041717720758167
1768418371296681700,10.284681640625,0.07141586156859994,5.834592873433232,0.8859018874656408
1768418371306684000,10.294683837890625,0.12058467388525604,5.215036495244503,1.495810366538912
1768418371316684800,10.304684814453125,0.09161693807616829,4.402051302364469,2.1174181242994963
1768418371326685700,10.314685791015625,-0.01389393918737769,3.6778690130531784,2.6088947966724634
1768418371336686800,10.324686767578125,-0.2509083592355251,3.0323551867872474,2.8083871491864323
1768418371346687700,10.334687744140625,-0.6764484782338142,2.524011112374067,2.7374244382128117
1768418371356689700,10.344689697265625,-1.143022180018574,2.249555873334408,2.6574130361258983
1768418371366690600,10.354690673828125,-1.5942707407690584,2.1578625090211627,2.6417840898394584
1768418371376691700,10.364691650390625,-1.7402445613242685,2.0182132153123615,2.7522406068116423
1768418371386692900,10.37469287109375,-1.6529158219613134,1.7737912954866886,2.8962197464182973
1768418371396694800,10.38469482421875,-1.310335725722462,1.312099082133174,2.951925267027318
1768418371406696000,10.394696044921876,-0.9434184760846197,0.6011234803974628,2.7750366682484744
1768418371416696800,10.40469677734375,-0.71543491923213,-0.3086053459227085,2.2190376932129263
1768418371426697700,10.41469775390625,-0.8578256206035614,-1.096304706376791,1.482519361680746
1768418371436700000,10.424699951171876,-1.2618037500046193,-1.5084902537614107,0.7136546116866171
1768418371446700800,10.43470068359375,-1.486870542627573,-1.6697633502572773,-0.044408173786103726
1768418371456701700,10.44470166015625,-1.4552384099148212,-1.575782751789689,-0.5439665554037317
1768418371466702600,10.45470263671875,-1.8895944341838358,-1.448376853582263,-0.49244814775362605
1768418371476704800,10.464704833984374,-2.7175883956253526,-1.4332353985518216,0.17322941868416963
1768418371486705700,10.47470556640625,-3.3834932680130003,-1.707560289210081,1.167278084874898
1768418371496706800,10.484706787109374,-3.8276527472853656,-2.4316402871906755,1.8216233062416314
1768418371506707700,10.494707763671874,-4.1593291721940036,-3.177116124421358,1.8962842872112988
1768418371516710000,10.5047099609375,-4.204042758667469,-3.236156342411041,1.526901670373231
1768418371526710800,10.514710693359374,-3.148972564476728,-1.1866601000845431,1.2477044975034892
1768418371536711700,10.524711669921874,-0.8161958254896103,1.2441758849859237,0.7680587673734873
1768418371546712600,10.534712646484374,3.153119162762165,1.5824129835844039,-0.028724739099759606
1768418371556713700,10.544713623046874,7.9452564089059825,-0.6269213539987802,-0.16096934604262933
1768418371566715600,10.554715576171875,10.356364780199527,-4.198457067489624,-0.07548760451953858
1768418371576716500,10.564716552734374,9.03090177410245,-6.824064514032006,-0.21434222245300188
1768418371586717700,10.5747177734375,5.873288807052374,-7.642825952225923,-0.5733147053651512
1768418371596718600,10.584718505859374,3.048320525421202,-7.216918168959021,-1.41952587602064
1768418371606720800,10.594720703125,2.445039866989851,-4.973166597989201,-0.992462273782119
1768418371616721700,10.6047216796875,2.6008114434599876,-2.2294272775411605,-0.1690574119628407
1768418371626722600,10.61472265625,1.6970367032386362,-1.3613736929118632,-0.5218285560168325
1768418371636723500,10.624723388671875,0.7374830849111079,-1.3805641310721635,-0.794432029709965
1768418371646725600,10.6347255859375,0.006978022319078445,-2.69019653083086,-1.0712344894628971
1768418371656726500,10.6447265625,0.33357612105011936,-4.104495173722506,-0.8611062497094273
1768418371666727400,10.6547275390625,1.3126479481875897,-4.924332132193446,-0.3398500867530703
1768418371676728800,10.664728759765625,1.6590988945104181,-4.868279990103841,0.03756793423620984
1768418371686730500,10.67473046875,1.7130713077165185,-3.8703748676806686,0.2813957423599437
1768418371696731600,10.684731689453125,1.5637937694408,-2.2720424304306506,0.2513053957290947
1768418371706732500,10.694732666015625,1.1028537626940755,-0.8148708604961633,0.18801623332435263
1768418371716733700,10.704733642578125,0.7446843215268105,0.652662528976798,0.125991172571294
1768418371726735600,10.714735595703125,0.42582412357144056,2.183116192743182,-0.3561626679221168
1768418371736736500,10.724736572265625,0.16874913146495818,3.646733870077133,-0.9222462164573371
1768418371746737700,10.734737548828125,-0.062191886953637,4.962186938813328,-1.3734925852507351
1768418371756738600,10.744738525390625,-0.39656653797030444,6.057670976457,-1.7559636701121926
1768418371766740500,10.754740478515625,-0.5567851569771767,6.819074450659752,-1.7975608781307935
1768418371776741600,10.76474169921875,-0.4802032909475267,7.053954050636291,-1.5161720404356718
1768418371786742800,10.77474267578125,-0.4332322809360921,6.982125078222155,-0.9484462411187589
1768418371796743700,10.78474365234375,-0.46164135994911193,6.578147387212515,-0.6701448480449617
1768418371806745600,10.79474560546875,-0.5578090931974351,5.820792896139621,-0.7692237194996326
1768418371816746800,10.804746826171876,-0.32974282649755476,5.113432562291622,-0.8456715108208358
1768418371826747600,10.81474755859375,-0.3587888882398605,4.508217428666353,-1.029005778607726
1768418371836748500,10.82474853515625,-0.6705249334037303,3.909457170268893,-1.077629743457958
1768418371846750700,10.834750732421876,-1.0304279934305698,3.5005531287729736,-1.081676973022148
1768418371856751600,10.844751708984376,-1.2375729795895516,3.3112796801954505,-1.058278561777994
1768418371866752500,10.85475244140625,-1.293896485966444,3.220835439160466,-0.9905763869702815
1768418371876753700,10.864753662109376,-1.3367407714366912,3.0853374199122188,-0.94530392450504
1768418371886755600,10.874755615234376,-1.4786732076466083,2.64286253272593,-1.0544282430253922
1768418371896756700,10.8847568359375,-1.7554501676321028,1.973569771465659,-1.142903375944495
1768418371906757600,10.894757568359376,-2.1334932069182395,1.2275666954904794,-0.9049934683613479
1768418371916758500,10.904758544921876,-2.5792203738987443,0.28004151473939415,-0.45499326370414345
1768418371926760700,10.9147607421875,-2.780353187096119,-0.730662883502245,-0.009842197844851762
1768418371936761600,10.92476171875,-2.2220587945997714,-1.662483130121231,0.386882142769359
1768418371946762500,10.934762451171874,-1.2595698534727096,-2.3548510620206593,0.5990373948384076
1768418371956763600,10.944763671875,-0.6659048723876476,-2.5435481720149515,0.6452771679658442
1768418371966765600,10.954765625,-1.0042881745237857,-2.4556840106010434,0.6968778105393052
1768418371976766500,10.964766357421874,-2.1234756707727906,-2.6086113035559655,0.8820411934494972
1768418371986767600,10.974767578125,-3.741336399835348,-3.2750539360821245,1.205985855062306
1768418371996768800,10.984768798828124,-5.087969619733095,-4.362551651147007,1.4935387683451176
1768418372006770700,10.994770751953125,-5.652461113303899,-4.829610944491624,1.5416251922525464
1768418372016771600,11.004771484375,-5.1994870439350604,-3.7612329404383895,1.0933593736398965
1768418372026772700,11.014772705078125,-3.8050773428618907,-1.4267998125463723,-0.05435208300633821
1768418372036773600,11.024773681640625,-2.351521040815115,-0.0972141735613346,-0.8513163848400116
1768418372046775600,11.034775634765625,-0.44979785048551857,-1.0660539450198412,-1.2939068612299858
1768418372056776400,11.0447763671875,2.144926455080509,-3.6254677946865557,-2.1869708223447204
1768418372066777600,11.054777587890625,3.7590392297863957,-6.124788702440261,-2.9741064114362
1768418372076778800,11.06477880859375,4.595723862683773,-7.327893156847358,-3.4761274203076957
1768418372086780700,11.07478076171875,5.362975478392839,-6.787296333605051,-2.78074247867465
1768418372096781800,11.08478173828125,4.252631725269556,-5.381579056575894,-1.6683770104654132
1768418372106782700,11.09478271484375,3.0918320426285266,-3.9434529633730646,-2.5511989790290595
1768418372116783600,11.10478369140625,4.987008660858869,-1.330678110396862,-0.7493857772160321
1768418372126785500,11.11478564453125,4.081161059886217,0.6376794793784618,0.19639477009112014
1768418372136786700,11.12478662109375,3.2548703952312468,1.3593658602207899,1.2619332216031849
1768418372146787600,11.13478759765625,2.4496809707939624,0.33042320997714997,2.441522214257717
1768418372156788500,11.14478857421875,1.7606325387060642,-1.712621664252877,2.702390241971612
1768418372166790700,11.154790771484375,1.826404110777378,-2.8701299041330812,2.103982158012688
1768418372176791600,11.16479150390625,1.8533353723227977,-2.8578952764600514,0.9852238469611853
1768418372186792700,11.174792724609375,1.2768540196202696,-2.175671721956134,-0.447572685249336
1768418372196793600,11.184793701171875,0.8918657643061131,-1.705559470781684,-1.6993696762308477
1768418372206795800,11.194795654296875,0.9478172955654561,-1.5227023189872502,-2.356231702724099
1768418372216796700,11.204796630859375,1.0055400012157856,-1.0478934344291686,-2.2582582352280616
1768418372226797600,11.214797607421875,0.7565839450918137,-0.23915303951203823,-1.7697965267620979
1768418372236798500,11.224798583984375,0.34581235615834593,0.7723579989373683,-1.2971008349657058
1768418372246800600,11.234800537109376,-0.09615969607234001,2.0271201598674056,-0.8792111576553434
1768418372256801500,11.244801513671876,-0.44225174595490097,3.125187199741602,-0.6177993784535676
1768418372266802400,11.254802490234376,-0.5906500171780585,4.016366223892569,-0.37863819216769184
1768418372276804600,11.2648046875,-0.6301331556521356,4.873692078280449,-0.18664887222759424
1768418372286805500,11.274805419921876,-0.5864213666323572,5.615394242191314,-0.0423857828467153
1768418372296806700,11.284806640625,-0.4161326775752008,6.094332189378142,0.35749358773231504
1768418372306807600,11.2948076171875,-0.242032978862524,6.097087625566124,0.8051154093530029
1768418372316809700,11.304809814453124,-0.0008639233529567718,5.778655882155895,1.2803425923883913
1768418372326810600,11.314810546875,0.014035466549918055,5.319262008872628,1.6632994149401783
1768418372336811500,11.3248115234375,0.03039075434952974,4.802935703533888,1.7685503260932862
1768418372346812700,11.334812744140624,0.09582666472569107,4.24699108903408,1.9498129021726547
1768418372356814600,11.344814697265624,0.2496795480929315,3.6384032641053197,2.2862905898831785
1768418372366815500,11.3548154296875,0.17162249494418502,3.0779245133072135,2.4533807020947336
1768418372376816400,11.36481640625,-0.13570742421522736,2.6203578554511067,2.527000649578869
1768418372386817800,11.37481787109375,-0.44805940932035443,2.3600451235324145,2.6494097624123096
1768418372396819700,11.38481982421875,-0.8095800606116652,2.2545798389762637,2.6883871433213353
1768418372406820600,11.394820556640624,-1.1094411051951347,2.0570558639258145,2.6174180026069283
1768418372416821800,11.40482177734375,-1.3391174374401569,1.7005319980084894,2.4509349163778125
1768418372426822700,11.41482275390625,-1.526891587370634,1.198380348494649,2.115017639029026
1768418372436824600,11.424824462890625,-1.627895654734224,0.4770657235741615,1.7163880310490727
1768418372446825700,11.43482568359375,-1.5675379244051872,-0.31614918543100357,1.2581589637614785
1768418372456826600,11.44482666015625,-1.4946810702480375,-0.8880728748291731,0.8051305338568985
1768418372466827500,11.45482763671875,-1.392736653294414,-1.1126654740691184,0.5109250673497095
1768418372476829400,11.464829345703125,-1.1142436831712723,-0.9985264691919088,0.5551201098417863
1768418372486830600,11.47483056640625,-1.22571902179718,-0.8543418701410294,0.9332466261602937
1768418372496831700,11.484831787109375,-2.1806956875979897,-0.8892325662583113,1.5342318671308457
1768418372506833700,11.494833740234375,-3.162358115750551,-1.2374983069181442,2.243704809218645
1768418372516834800,11.504834716796875,-3.50041050543189,-2.0659686536997555,2.6304721299692986
1768418372526835700,11.514835693359375,-3.6011926006078716,-3.16584829595387,2.6192247597679494
1768418372536836600,11.524836669921875,-3.747947342407703,-3.897635215049982,2.0732719624504448
1768418372546838500,11.534838623046875,-3.5168671347141265,-3.211217715987563,1.1219340184781699
1768418372556839700,11.544839599609375,-1.5322715268433094,-0.8237392266064881,0.2822236810840666
1768418372566840600,11.554840576171875,2.559239077621698,0.22775427814126015,-0.8655801071878522
1768418372576841700,11.564841796875,7.378292387741804,-1.6522212638258933,-1.3245894381329417
1768418372586843600,11.57484375,9.196128576660156,-5.12578175625503,-0.32810631133690477
1768418372596844800,11.5848447265625,7.0836582840263835,-7.670773112815618,0.4592833986461162
1768418372606846000,11.594845947265625,4.533938729900122,-8.260556868553161,0.2763088492834009
1768418372616846800,11.604846923828125,3.9764603299617765,-7.327277655297517,-0.9454416524752974
1768418372626848800,11.614848876953126,4.603642965245246,-4.812617139592766,-1.4340920153811574
1768418372636849700,11.624849609375,4.236410073786974,-1.9964193166553974,-1.164270792817697
1768418372646850800,11.634850830078125,2.5878888335227965,-0.5981178688406944,-1.9646631191715598
1768418372656852700,11.644852783203126,0.8363163110416382,-0.5282394459724425,-3.17398864005059
1768418372666853600,11.654853515625,-0.2581985162436962,-1.6642857956290245,-3.823991009907424
1768418372676854800,11.664854736328126,-0.26749124524593354,-3.229302238732576,-3.0633181880667806
1768418372686855700,11.674855712890626,0.4629975968636572,-4.415650788649916,-1.3632307189553976
1768418372696857600,11.684857666015626,0.8192331473588943,-4.803540099167823,0.13535948756039143
1768418372706858800,11.694858642578126,0.916356208570674,-4.2770968889623875,1.3036194230794906
1768418372716860000,11.70485986328125,1.1383446166615931,-3.2285505435824393,1.753860121961683
1768418372726860800,11.71486083984375,1.3052759581148623,-2.0553566587924954,1.4726459101811051
1768418372736862700,11.72486279296875,1.2795873901069164,-0.5850011976361275,1.0408500917889176
1768418372746863900,11.73486376953125,1.0422351894717663,1.0206757571578025,0.5763010276995599
1768418372756864800,11.74486474609375,0.49949857772178946,2.6153923419982195,-0.05030419128844514
1768418372766866700,11.75486669921875,-0.05742343044281006,4.07440398684144,-0.6373579923391341
1768418372776867800,11.764867919921874,-0.23330029489584267,5.185791111537814,-1.0870624654527754
1768418372786868700,11.77486865234375,-0.22428119520321488,6.144332191821932,-1.3854121556252241
1768418372796869600,11.78486962890625,-0.3332009310621768,6.693869861888885,-1.4752660295516251
1768418372806871600,11.79487158203125,-0.6610520985942333,6.9023799258559935,-1.7444952045060693
1768418372816873000,11.804873046875,-0.7592460039079189,6.759943047255277,-2.0171052540704606
1768418372826873900,11.814873779296875,-0.7367477563738822,6.411464540627598,-2.2051645045526325
1768418372836874800,11.824874755859375,-0.7530512409210205,5.882027993825077,-2.3794281616553663
1768418372846877000,11.834876953125,-0.8520902918219566,5.1827364001423115,-2.511582715694606
1768418372856877800,11.8448779296875,-0.8847123123548924,4.562161200299859,-2.384921936766058
1768418372866878700,11.854878662109375,-1.001357308703661,3.926808702564239,-2.02200208620131
1768418372876879600,11.864879638671875,-1.0977660111010075,3.3926977342098947,-1.6597687565959989
1768418372886881800,11.8748818359375,-1.2122995682537554,3.0373721381664276,-1.2568651245586573
1768418372896882700,11.884882568359375,-1.3714157789766788,2.7892197996407746,-0.9070072924017906
1768418372906883800,11.8948837890625,-1.5594611470639705,2.613729377222061,-0.6780005299814045
1768418372916885800,11.9048857421875,-1.832442075767368,2.3918518821597097,-0.5014061283761635
1768418372926887000,11.914886962890625,-1.7590880857430398,1.9396487971633671,-0.3681306440155953
1768418372936887800,11.9248876953125,-1.3380910170018672,1.2058148824095725,-0.29431869935700666
1768418372946888700,11.934888671875,-0.8338322391409426,0.3237590759128332,-0.23190443835696203
1768418372956891000,11.944890869140625,-0.6156674809914082,-0.5778244378745555,-0.2565055399217643
1768418372966891800,11.954891845703125,-0.6197931095540523,-1.3630635456949471,-0.37313261702135203
1768418372976892700,11.964892578125,-0.6928280236918479,-1.9853157388389109,-0.4673348223503679
1768418372986894800,11.974894775390625,-1.539870311409235,-2.5003940899431703,-0.18469930906239895
1768418372996895700,11.984895751953125,-3.3192192410230636,-2.8179595719128847,0.5455956544429064
1768418373006896600,11.994896728515625,-4.926621704435348,-3.1703952917337417,1.526271555776149
1768418373016897800,12.004897705078125,-6.004713877773285,-3.8949949296742674,2.346929621371627
1768418373026899700,12.014899658203126,-6.28223551864624,-4.582043712377548,2.6662372708335518
1768418373036900900,12.02490087890625,-5.61452447361946,-4.600021267616748,1.9089894550055264
1768418373046901800,12.03490185546875,-4.492123202955723,-2.570038119533658,0.012963563002087175
1768418373056902700,12.044902587890626,-3.264373552113771,0.6760819830089807,-1.6356372087717055
1768418373066904800,12.05490478515625,-1.8012497957766056,2.021664817070961,-1.6356126588523388
1768418373076905700,12.06490576171875,0.9066063834507018,0.2581418176203966,-1.8371441159784794
1768418373086906600,12.07490673828125,3.7560172516167163,-2.839668130373955,-3.516416468337178
1768418373096908800,12.08490869140625,4.570861808627844,-6.376411347424984,-4.819524434763193
1768418373106909700,12.09490966796875,3.9984605648458,-8.952209345659613,-4.936927409872412
1768418373116910600,12.10491064453125,3.894652984368801,-9.89074399522543,-4.083367045497894
1768418373126911700,12.114911865234374,4.095691105020046,-8.831136157605052,-2.1903968512706458
1768418373136913700,12.12491357421875,4.355270261967182,-5.197968456065654,-0.9331286988690495
1768418373146914800,12.134914794921874,4.638964453995228,-1.1923790622532366,-0.13638050117120146
1768418373156915700,12.144915771484374,4.0949651288330555,1.1923141803234816,1.0140710981957615
1768418373166918000,12.15491796875,2.8295652540326115,2.2167191871374845,2.405753274001181
1768418373176918800,12.164918701171874,1.7789011858463286,1.379627142482996,3.4726047991394995
1768418373186919700,12.174919677734374,1.3608103599406778,-0.632345132613182,3.390015363258123
1768418373196920600,12.184920654296874,1.6257213794350622,-2.0775971321731803,2.754205184882879
1768418373206922800,12.1949228515625,2.0079051717877388,-2.3398072221457955,1.5695540865331887
1768418373216923600,12.204923583984375,2.0829156968474387,-2.174146119824052,-0.13270710988808423
1768418373226924500,12.214924560546875,2.0114334920443593,-2.157541021981835,-1.9055216327644884
1768418373236926000,12.224926025390625,1.9347043264985084,-2.1456588610082865,-3.17248729557693
1768418373246927600,12.234927734375,1.5628620415486394,-1.6425240456759929,-3.341146410670876
1768418373256928800,12.2449287109375,0.9154455965317785,-0.5496235947847365,-2.7216034764856096
1768418373266930000,12.254929931640625,0.14900040183477103,0.656362552538514,-2.1328679146267473
1768418373276931800,12.264931884765625,-0.5587115949951112,2.0359177988290784,-1.7387636751167475
1768418373286932700,12.2749326171875,-0.82990191395469,3.2930718233317133,-1.5366753147602081
1768418373296933600,12.28493359375,-0.8067604731462895,4.302265232488513,-1.2049210023097694
1768418373306934800,12.294934814453125,-0.6942540379069745,5.164065601941943,-0.808527482818812
1768418373316936700,12.304936767578125,-0.6332336058855056,5.82075899387002,-0.4923840695414692
1768418373326937600,12.3149375,-0.6057822659887373,6.210584240886568,-0.17236418015696106
1768418373336938800,12.324938720703125,-0.38421442139744755,6.2096595272570845,0.3671342533893883
1768418373346940700,12.334940673828125,-0.22829890641197562,5.808900798293948,0.9819321850046515
1768418373356941800,12.34494189453125,0.05327215598225593,5.208695601785182,1.6290578303813934
1768418373366942700,12.354942626953125,0.2950314324699342,4.5700545838981865,2.2763825054615734
1768418373376943900,12.36494384765625,0.353051221370697,4.097890660890936,2.686387493936717
1768418373386945800,12.37494580078125,0.483237982468307,3.5889714169383047,2.8394778684988617
1768418373396946700,12.38494677734375,0.13841361443400382,3.1701006927013395,3.0831057153373953
1768418373406947800,12.39494775390625,-0.1612659361027181,2.826606988748908,3.4754710022255777
1768418373416948700,12.40494873046875,-0.5912205105423927,2.554842303967476,3.8148891273021697
1768418373426950700,12.41495068359375,-0.9714530226968229,2.243300320070982,3.8161411731898784
1768418373436951600,12.42495166015625,-1.126330280675739,1.872604136416316,3.7491093719244
1768418373446952700,12.43495263671875,-1.2075859837353229,1.4230711474120616,3.39265097245872
1768418373456954600,12.44495458984375,-1.0484430311359465,0.8392682196497917,2.690957578331232
1768418373466955800,12.454955810546876,-0.7516729383051395,0.23865561138391495,1.7535054633051157
1768418373476957000,12.46495703125,-0.8213537927746772,-0.2116869404375553,0.8607621855121106
1768418373486957800,12.474957763671876,-1.1104559813261032,-0.48285541289150713,0.15640647684019057
1768418373496959700,12.484959716796874,-1.1963165478326379,-0.6059253277212381,-0.3184395613905042
1768418373506961000,12.4949609375,-1.2773755592763423,-0.5756821651488542,-0.43478513640128075
1768418373516961800,12.5049619140625,-1.5940928999841213,-0.5176935020387172,-0.14412830228637902
1768418373526963700,12.514963623046874,-2.080098301339149,-0.6452408545434475,0.4186040726574138
1768418373536964600,12.524964599609374,-2.527635148090124,-1.0480050781100987,0.9597207915879785
1768418373546965800,12.5349658203125,-2.889278841239214,-1.9442565832197665,0.8450396426580846
