time,seconds_elapsed,z,y,x
1768418361066700300,0.0547001953125,-0.01690673828125,-0.997894287109375,-0.0033721923828125
1768418361076701200,0.064701171875,-0.014801025390625,-1.0019989013671875,-0.0036773681640625
1768418361086703400,0.074703369140625,-0.015594482421875,-1.003662109375,-0.0040283203125
1768418361096704300,0.084704345703125,-0.0198974609375,-1.00506591796875,-0.0028839111328125
1768418361106705200,0.094705078125,-0.0222930908203125,-1.0009765625,-0.0032806396484375
1768418361116706000,0.1047060546875,-0.0246734619140625,-0.999755859375,-0.0025482177734375
1768418361126707200,0.114707275390625,-0.023284912109375,-1.00177001953125,-0.002593994140625
1768418361136709000,0.124709228515625,-0.0204315185546875,-1.0060272216796875,-0.0016021728515625
1768418361146710300,0.134710205078125,-0.0185089111328125,-1.0064239501953125,-0.0016937255859375
1768418361156711400,0.14471142578125,-0.016357421875,-1.00579833984375,-0.00140380859375
1768418361166712300,0.15471240234375,-0.01190185546875,-1.007598876953125,-0.0013275146484375
1768418361176713200,0.164713134765625,-0.0078887939453125,-1.00628662109375,-0.00079345703125
1768418361186715400,0.17471533203125,-0.007659912109375,-1.0021820068359375,-0.00421142578125
1768418361196716300,0.18471630859375,-0.0075531005859375,-0.9996337890625,-0.0046844482421875
1768418361206717200,0.19471728515625,-0.011077880859375,-0.9980316162109375,-0.0069427490234375
1768418361216718000,0.204718017578125,-0.0156402587890625,-0.99530029296875,-0.0067138671875
1768418361226719200,0.21471923828125,-0.0151824951171875,-0.9962921142578125,-0.0052490234375
1768418361236721200,0.22472119140625,-0.0151214599609375,-0.996337890625,-0.003753662109375
1768418361246722300,0.234722412109375,-0.013031005859375,-0.9959259033203125,0.001708984375
1768418361256723200,0.24472314453125,-0.0124359130859375,-0.999114990234375,0.004058837890625
1768418361266724400,0.254724365234375,-0.01434326171875,-0.997772216796875,0.003082275390625
1768418361276725200,0.264725341796875,-0.0150299072265625,-0.9928131103515625,0.004058837890625
1768418361286727200,0.27472705078125,-0.0163116455078125,-0.992584228515625,0.004302978515625
1768418361296728000,0.28472802734375,-0.0159454345703125,-0.98577880859375,-0.004730224609375
1768418361306729200,0.294729248046875,-0.0186920166015625,-0.985443115234375,-0.012451171875
1768418361316730400,0.30473046875,-0.026763916015625,-0.9832916259765625,-0.0145263671875
1768418361326731300,0.314731201171875,-0.0380401611328125,-0.98681640625,-0.02642822265625
1768418361336733400,0.3247333984375,-0.0367279052734375,-0.9847869873046875,-0.036346435546875
1768418361346734300,0.334734375,-0.0400390625,-0.9934539794921875,-0.0344390869140625
1768418361356735200,0.3447353515625,-0.035675048828125,-1.0100860595703125,-0.0246429443359375
1768418361366736100,0.354736083984375,-0.0198516845703125,-1.0223846435546875,-0.01776123046875
1768418361376737300,0.3647373046875,-0.019012451171875,-1.0256195068359375,-0.005035400390625
1768418361386739200,0.3747392578125,-0.0257110595703125,-1.030914306640625,0.0056304931640625
1768418361396740000,0.384739990234375,-0.0344390869140625,-1.0284576416015625,0.0068817138671875
1768418361406741200,0.3947412109375,-0.0453948974609375,-1.0213470458984375,0.0036773681640625
1768418361416742400,0.404742431640625,-0.0562591552734375,-1.0131072998046875,-0.0061798095703125
1768418361426743300,0.414743408203125,-0.0621490478515625,-1.006134033203125,-0.0122528076171875
1768418361436745200,0.4247451171875,-0.064666748046875,-1.0023193359375,-0.015167236328125
1768418361446746400,0.434746337890625,-0.063262939453125,-1.001953125,-0.0158233642578125
1768418361456747300,0.444747314453125,-0.056549072265625,-1.0040283203125,-0.0121307373046875
1768418361466748200,0.454748046875,-0.04144287109375,-1.0045928955078125,-0.0034027099609375
1768418361476749000,0.4647490234375,-0.030670166015625,-1.0059356689453125,0.0000457763671875
1768418361486751200,0.474751220703125,-0.028472900390625,-1.00872802734375,0.002655029296875
1768418361496752400,0.48475244140625,-0.0336761474609375,-1.007965087890625,0.005035400390625
1768418361506753300,0.494753173828125,-0.0443572998046875,-1.006500244140625,0.0083770751953125
1768418361516754200,0.504754150390625,-0.04510498046875,-1.0005340576171875,0.0131378173828125
1768418361526755300,0.51475537109375,-0.0341949462890625,-0.9980621337890625,0.0171966552734375
1768418361536757200,0.52475732421875,-0.0191192626953125,-0.9985504150390625,0.012298583984375
1768418361546758100,0.534758056640625,-0.0039825439453125,-1.001922607421875,0.005401611328125
1768418361556759000,0.544759033203125,0.0045318603515625,-1.0043792724609375,-0.0020294189453125
1768418361566760000,0.554760009765625,0.0087432861328125,-1.00665283203125,-0.006744384765625
1768418361576761300,0.56476123046875,0.0122528076171875,-1.0062103271484375,-0.009124755859375
1768418361586763300,0.57476318359375,0.0154571533203125,-1.000946044921875,-0.0109710693359375
1768418361596764200,0.58476416015625,0.0190277099609375,-0.9981231689453125,-0.0125274658203125
1768418361606765300,0.594765380859375,0.0239105224609375,-0.996978759765625,-0.01019287109375
1768418361616766200,0.60476611328125,0.02557373046875,-0.995513916015625,-0.0086669921875
1768418361626768100,0.61476806640625,0.0244140625,-0.996490478515625,-0.0037078857421875
1768418361636769000,0.62476904296875,0.0214996337890625,-0.9954833984375,0.0021209716796875
1768418361646770200,0.634770263671875,0.013916015625,-0.9953765869140625,0.003387451171875
1768418361656771000,0.64477099609375,0.007415771484375,-0.9946441650390625,-0.0037384033203125
1768418361666772200,0.654772216796875,0.0084075927734375,-0.9967803955078125,-0.009735107421875
1768418361676773000,0.664773193359375,0.0088958740234375,-0.9956207275390625,-0.017425537109375
1768418361686775300,0.674775390625,0.014678955078125,-1.0014801025390625,-0.0171966552734375
1768418361696776200,0.684776123046875,0.01715087890625,-1.0061187744140625,-0.019927978515625
1768418361706777000,0.694777099609375,0.0190277099609375,-1.00994873046875,-0.0161590576171875
1768418361716778200,0.7047783203125,0.0168304443359375,-1.0122528076171875,-0.011932373046875
1768418361726779100,0.714779052734375,0.0171661376953125,-1.013946533203125,-0.0035552978515625
1768418361736781000,0.724781005859375,0.0218963623046875,-1.0128326416015625,0.001312255859375
1768418361746782000,0.734781982421875,0.021392822265625,-1.0107269287109375,-0.0037689208984375
1768418361756783400,0.744783447265625,0.0184173583984375,-1.0023193359375,-0.0099945068359375
1768418361766784300,0.7547841796875,0.0089111328125,-0.9937591552734375,-0.014312744140625
1768418361776786200,0.7647861328125,0.0037841796875,-0.9883880615234375,-0.0142974853515625
1768418361786787300,0.774787353515625,-0.00048828125,-0.9871368408203125,-0.012176513671875
1768418361796788200,0.784788330078125,0.0013885498046875,-0.9896697998046875,-0.0069427490234375
1768418361806789000,0.7947890625,0.0043487548828125,-0.995391845703125,-0.0027923583984375
1768418361816790000,0.8047900390625,0.00439453125,-0.99871826171875,0.0005950927734375
1768418361826792200,0.814792236328125,0.0047454833984375,-1.0039520263671875,0.0002899169921875
1768418361836793000,0.82479296875,0.001007080078125,-1.00994873046875,-0.0010833740234375
1768418361846794200,0.834794189453125,-0.00384521484375,-1.0096435546875,-0.0046234130859375
1768418361856795100,0.844795166015625,-0.007049560546875,-1.006927490234375,-0.0030364990234375
1768418361866796300,0.85479638671875,-0.008026123046875,-1.0002593994140625,-0.001434326171875
1768418361876798200,0.864798095703125,-0.0081329345703125,-0.995208740234375,-0.0054473876953125
1768418361886799000,0.874799072265625,-0.006103515625,-0.9911346435546875,-0.00335693359375
1768418361896800300,0.88480029296875,-0.006103515625,-0.9907073974609375,0.0011749267578125
1768418361906801200,0.89480126953125,-0.0025177001953125,-0.99261474609375,0.0046539306640625
1768418361916802000,0.904802001953125,-0.0006866455078125,-0.9974365234375,0.007781982421875
1768418361926804000,0.914803955078125,0.0019073486328125,-1.004486083984375,0.0076904296875
1768418361936805400,0.924805419921875,0.0043487548828125,-1.0072784423828125,0.00238037109375
1768418361946806300,0.93480615234375,0.00164794921875,-1.007080078125,-0.00213623046875
1768418361956807200,0.94480712890625,-0.001068115234375,-1.0045166015625,-0.00189208984375
1768418361966808000,0.95480810546875,-0.00286865234375,-1.00225830078125,-0.0060882568359375
1768418361976810200,0.964810302734375,-0.0032196044921875,-0.9992523193359375,-0.0098724365234375
1768418361986811100,0.97481103515625,0.00054931640625,-0.9961090087890625,-0.0112457275390625
1768418361996812000,0.98481201171875,-0.0011138916015625,-0.993927001953125,-0.0119476318359375
1768418362006813000,0.99481298828125,-0.0008087158203125,-0.9924468994140625,-0.014251708984375
1768418362016814300,1.004814453125,0.0006561279296875,-0.9944305419921875,-0.013824462890625
1768418362026816300,1.014816162109375,0.0011444091796875,-0.9956817626953125,-0.01397705078125
1768418362036817200,1.024817138671875,0.0008392333984375,-0.996246337890625,-0.013641357421875
1768418362046818300,1.034818359375,-0.001495361328125,-0.9980926513671875,-0.0130157470703125
1768418362056819200,1.044819091796875,-0.00201416015625,-1.0015106201171875,-0.01043701171875
1768418362066820000,1.054820068359375,-0.000885009765625,-1.0009918212890625,-0.009765625
1768418362076822300,1.064822265625,0.000152587890625,-0.9983367919921875,-0.0078582763671875
1768418362086823200,1.0748232421875,0.0023345947265625,-0.9977569580078125,-0.004669189453125
1768418362096824000,1.084823974609375,0.0052947998046875,-1.0007171630859375,-0.00152587890625
1768418362106825200,1.0948251953125,0.0089874267578125,-1.002655029296875,0.0021209716796875
1768418362116826000,1.104826171875,0.0073089599609375,-1.001983642578125,0.0037841796875
1768418362126828300,1.114828369140625,0.0039520263671875,-1.0020751953125,0.0004730224609375
1768418362136829200,1.1248291015625,0.00103759765625,-1.002410888671875,-0.0051116943359375
1768418362146830000,1.134830078125,-0.0048828125,-1.0023193359375,-0.0057830810546875
1768418362156831200,1.144831298828125,-0.0117340087890625,-1.001861572265625,-0.003082275390625
1768418362166832000,1.15483203125,-0.0129241943359375,-1.00634765625,-0.00238037109375
1768418362176834000,1.164833984375,-0.0089874267578125,-1.013031005859375,-0.000152587890625
1768418362186835000,1.1748349609375,-0.00445556640625,-1.0222625732421875,0.0025634765625
1768418362196836400,1.18483642578125,-0.002716064453125,-1.026092529296875,0.0019378662109375
1768418362206837200,1.194837158203125,-0.0022735595703125,-1.0267791748046875,-0.0006103515625
1768418362216838100,1.204838134765625,-0.003143310546875,-1.024169921875,-0.0067138671875
1768418362226840300,1.21484033203125,-0.0048065185546875,-1.021453857421875,-0.010986328125
1768418362236841200,1.22484130859375,-0.0003509521484375,-1.019927978515625,-0.0112457275390625
1768418362246842000,1.234842041015625,0.0111541748046875,-1.017303466796875,-0.008392333984375
1768418362256843000,1.244843017578125,0.01556396484375,-1.013153076171875,-0.024505615234375
1768418362266844200,1.25484423828125,0.020050048828125,-1.0010223388671875,-0.032867431640625
1768418362276846000,1.26484619140625,0.0138702392578125,-0.9897003173828125,-0.034149169921875
1768418362286847200,1.27484716796875,0.00787353515625,-0.977752685546875,-0.034515380859375
1768418362296848100,1.28484814453125,0.0067138671875,-0.972900390625,-0.032989501953125
1768418362306849300,1.294849365234375,0.0081329345703125,-0.969451904296875,-0.022003173828125
1768418362316850200,1.30485009765625,0.0038299560546875,-0.9700164794921875,-0.0263214111328125
1768418362326852000,1.31485205078125,-0.0054168701171875,-0.9678497314453125,-0.0284271240234375
1768418362336853200,1.324853271484375,-0.01690673828125,-0.96405029296875,-0.030609130859375
1768418362346854100,1.334854248046875,-0.0362701416015625,-0.9625244140625,-0.026824951171875
1768418362356855000,1.34485498046875,-0.05657958984375,-0.96026611328125,-0.0154571533203125
1768418362366856200,1.354856201171875,-0.0714263916015625,-0.965301513671875,0.0016632080078125
1768418362376858000,1.364858154296875,-0.0800933837890625,-0.976715087890625,0.0168304443359375
1768418362386859300,1.374859375,-0.0856781005859375,-0.9893035888671875,0.03692626953125
1768418362396860200,1.384860107421875,-0.0830230712890625,-1.004364013671875,0.0477294921875
1768418362406861000,1.394861083984375,-0.07440185546875,-1.0182037353515625,0.042938232421875
1768418362416862200,1.4048623046875,-0.0625762939453125,-1.0292205810546875,0.044097900390625
1768418362426864000,1.414864013671875,-0.0569000244140625,-1.03460693359375,0.0352630615234375
1768418362436865000,1.424864990234375,-0.04302978515625,-1.0315399169921875,0.037017822265625
1768418362446866200,1.4348662109375,-0.040863037109375,-1.0292510986328125,0.029937744140625
1768418362456867300,1.444867431640625,-0.0359954833984375,-1.0225677490234375,0.019134521484375
1768418362466868200,1.4548681640625,-0.0260009765625,-1.00787353515625,0.016326904296875
1768418362476870100,1.4648701171875,-0.0271759033203125,-0.993499755859375,0.0092315673828125
1768418362486871300,1.474871337890625,-0.02392578125,-0.984130859375,0.0030517578125
1768418362496872200,1.4848720703125,-0.020233154296875,-0.980743408203125,-0.00189208984375
1768418362506873000,1.494873046875,-0.024139404296875,-0.978759765625,-0.009246826171875
1768418362516874000,1.5048740234375,-0.0360565185546875,-0.9787445068359375,-0.012176513671875
1768418362526876200,1.514876220703125,-0.0395660400390625,-0.9836578369140625,-0.01483154296875
1768418362536877000,1.524876953125,-0.043304443359375,-0.9879150390625,-0.0154876708984375
1768418362546878200,1.534878173828125,-0.04052734375,-0.9947357177734375,-0.0084686279296875
1768418362556878600,1.544878662109375,-0.044769287109375,-1.0039520263671875,-0.001220703125
1768418362566879500,1.55487939453125,-0.0402374267578125,-1.0066070556640625,0.0124664306640625
1768418362576881700,1.564881591796875,-0.03045654296875,-1.0078582763671875,0.0233001708984375
1768418362586882600,1.574882568359375,-0.0290374755859375,-1.0062103271484375,0.0291290283203125
1768418362596883500,1.584883544921875,-0.0315704345703125,-1.004364013671875,0.0326690673828125
1768418362606884600,1.594884521484375,-0.0316925048828125,-1.0011138916015625,0.0323638916015625
1768418362616885800,1.6048857421875,-0.0291595458984375,-0.9977569580078125,0.0269927978515625
1768418362626887700,1.6148876953125,-0.02880859375,-0.99884033203125,0.0145263671875
1768418362636888800,1.624888916015625,-0.022796630859375,-0.9989776611328125,0.0071868896484375
1768418362646889700,1.6348896484375,-0.017120361328125,-1.0040435791015625,0.004364013671875
1768418362656890600,1.644890625,-0.01348876953125,-1.0094757080078125,0.0040130615234375
1768418362666891500,1.6548916015625,-0.0109100341796875,-1.01507568359375,0.0005950927734375
1768418362676893700,1.664893798828125,-0.0130462646484375,-1.017425537109375,-0.002166748046875
1768418362686894600,1.67489453125,-0.0130615234375,-1.0150604248046875,-0.00830078125
1768418362696895500,1.6848955078125,-0.0127716064453125,-1.0140533447265625,-0.006561279296875
1768418362706896600,1.694896728515625,-0.01055908203125,-1.01165771484375,-0.0062713623046875
1768418362716897800,1.704897705078125,-0.0108642578125,-1.0059051513671875,-0.005584716796875
1768418362726899700,1.714899658203125,-0.015899658203125,-0.9986419677734375,-0.00555419921875
1768418362736900600,1.724900634765625,-0.0202789306640625,-0.9942169189453125,-0.0008544921875
1768418362746901500,1.734901611328125,-0.0235748291015625,-0.99127197265625,-0.00067138671875
1768418362756902700,1.744902587890625,-0.0230865478515625,-0.991790771484375,-0.0024261474609375
1768418362766903600,1.754903564453125,-0.0217132568359375,-0.9947967529296875,-0.0043792724609375
1768418362776905500,1.764905517578125,-0.0192718505859375,-0.999420166015625,-0.0031890869140625
1768418362786906600,1.77490673828125,-0.0143280029296875,-1.0048065185546875,-0.00299072265625
1768418362796907800,1.78490771484375,-0.0087432861328125,-1.0106201171875,-0.0039520263671875
1768418362806908700,1.79490869140625,-0.00732421875,-1.01129150390625,-0.00726318359375
1768418362816909600,1.80490966796875,-0.00653076171875,-1.0098724365234375,-0.00665283203125
1768418362826911700,1.814911865234375,-0.0095672607421875,-1.010955810546875,-0.005889892578125
1768418362836912600,1.82491259765625,-0.0104522705078125,-1.011505126953125,-0.0050048828125
1768418362846913500,1.83491357421875,-0.0126190185546875,-1.011993408203125,-0.0040283203125
1768418362856914400,1.84491455078125,-0.013702392578125,-1.008392333984375,-0.003997802734375
1768418362866915600,1.85491552734375,-0.0116424560546875,-1.0057373046875,-0.004486083984375
1768418362876917500,1.86491748046875,-0.0093841552734375,-1.0037994384765625,-0.004608154296875
1768418362886918700,1.874918701171875,-0.009124755859375,-1.0024871826171875,-0.0033111572265625
1768418362896919800,1.884919921875,-0.0053558349609375,-1.005340576171875,-0.003662109375
1768418362906920700,1.894920654296875,-0.00067138671875,-1.0111083984375,-0.0009918212890625
1768418362916921600,1.904921630859375,0.0028839111328125,-1.013275146484375,0.000762939453125
1768418362926923500,1.914923583984375,0.0032958984375,-1.012786865234375,0.0027008056640625
1768418362936924700,1.924924560546875,0.002166748046875,-1.0064239501953125,0.0021514892578125
1768418362946925600,1.934925537109375,0.002593994140625,-1.000518798828125,0.0012969970703125
1768418362956926500,1.944926513671875,0.00311279296875,-0.9959869384765625,0.0034332275390625
1768418362966927600,1.954927734375,0.0034637451171875,-0.9943084716796875,0.0048065185546875
1768418362976929800,1.9649296875,0.002593994140625,-0.995208740234375,0.006256103515625
1768418362986930700,1.9749306640625,0.0029754638671875,-0.9964447021484375,0.0073699951171875
1768418362996931600,1.984931640625,0.00469970703125,-0.999053955078125,0.01129150390625
1768418363006932700,1.9949326171875,0.0079803466796875,-1.0002593994140625,0.0102386474609375
1768418363016933600,2.00493359375,0.011627197265625,-0.999359130859375,0.007843017578125
1768418363026935600,2.014935546875,0.0154876708984375,-0.998992919921875,0.008209228515625
1768418363036936400,2.0249365234375,0.0148773193359375,-0.997711181640625,0.0052490234375
1768418363046937600,2.0349375,0.0117645263671875,-0.994659423828125,0.004547119140625
1768418363056938800,2.044938720703125,0.007171630859375,-0.9955291748046875,0.007598876953125
1768418363066939600,2.054939697265625,0.0064544677734375,-0.996826171875,0.0096588134765625
1768418363076941800,2.06494189453125,0.0090179443359375,-1.000091552734375,0.0103302001953125
1768418363086942700,2.074942626953125,0.012298583984375,-1.001434326171875,0.009521484375
1768418363096943600,2.084943603515625,0.0144500732421875,-1.00201416015625,0.0066375732421875
1768418363106944500,2.094944580078125,0.0146484375,-1.0054779052734375,0.0056610107421875
1768418363116945700,2.104945556640625,0.01544189453125,-1.004241943359375,0.004730224609375
1768418363126947600,2.114947509765625,0.0135498046875,-1.0028228759765625,0.0040435791015625
1768418363136948500,2.124948486328125,0.009613037109375,-1.001312255859375,0.007171630859375
1768418363146949600,2.13494970703125,0.0071258544921875,-1.002349853515625,0.0061798095703125
1768418363156950800,2.14495068359375,0.0069580078125,-1.002685546875,0.005096435546875
1768418363166951700,2.15495166015625,0.0087738037109375,-1.0047454833984375,0.0029754638671875
1768418363176953600,2.16495361328125,0.008758544921875,-1.0040435791015625,0.001251220703125
1768418363186954800,2.174954833984375,0.0078277587890625,-1.0034027099609375,0.003570556640625
1768418363196955600,2.18495556640625,0.008819580078125,-1.004486083984375,0.0019378662109375
1768418363206956500,2.19495654296875,0.011383056640625,-1.003021240234375,0.00347900390625
1768418363216957700,2.204957763671875,0.012054443359375,-1.003173828125,0.0038299560546875
1768418363226959600,2.214959716796875,0.0121612548828125,-1.004608154296875,0.005157470703125
1768418363236960800,2.224960693359375,0.0119781494140625,-1.003143310546875,0.0061187744140625
1768418363246961700,2.234961669921875,0.0129852294921875,-1.0025634765625,0.0056304931640625
1768418363256962600,2.244962646484375,0.0138397216796875,-1.00048828125,0.0028228759765625
1768418363266963700,2.254963623046875,0.0148773193359375,-0.9998016357421875,0.001739501953125
1768418363276965600,2.264965576171875,0.0138702392578125,-1.000762939453125,0.0009613037109375
1768418363286966500,2.274966552734375,0.0167694091796875,-0.9999847412109375,0.0014190673828125
1768418363296967400,2.284967529296875,0.0186767578125,-1.001861572265625,0.0022430419921875
1768418363306968600,2.294968505859375,0.0191192626953125,-1.0020751953125,0.0013427734375
1768418363316969700,2.3049697265625,0.0182647705078125,-1.0026397705078125,-0.0001983642578125
1768418363326970600,2.314970703125,0.0200653076171875,-1.0026702880859375,0.0020294189453125
1768418363336972800,2.324972900390625,0.018768310546875,-1.00042724609375,0.002716064453125
1768418363346973700,2.3349736328125,0.01983642578125,-0.9976959228515625,0.00372314453125
1768418363356974600,2.344974609375,0.01861572265625,-0.9957733154296875,0.0049896240234375
1768418363366975500,2.3549755859375,0.0166168212890625,-0.9956817626953125,0.00360107421875
1768418363376977700,2.364977783203125,0.0148773193359375,-0.9943084716796875,0.004547119140625
1768418363386978600,2.374978515625,0.0096588134765625,-0.9943084716796875,0.005706787109375
1768418363396979500,2.3849794921875,0.00982666015625,-0.994415283203125,0.0039215087890625
1768418363406980600,2.394980712890625,0.0116729736328125,-0.996002197265625,0.0057525634765625
1768418363416981800,2.404981689453125,0.0149688720703125,-0.9986572265625,0.0040740966796875
1768418363426983700,2.414983642578125,0.016357421875,-1.0025482177734375,0.0029296875
1768418363436984600,2.424984619140625,0.018768310546875,-1.00469970703125,0.0027313232421875
1768418363446985700,2.43498583984375,0.0218963623046875,-1.009368896484375,0.0027313232421875
1768418363456986600,2.444986572265625,0.0236358642578125,-1.009552001953125,0.0047607421875
1768418363466987500,2.454987548828125,0.0231475830078125,-1.0082244873046875,0.00628662109375
1768418363476988700,2.46498876953125,0.018798828125,-1.0034027099609375,0.008544921875
1768418363486990600,2.474990478515625,0.016693115234375,-0.997589111328125,0.010284423828125
1768418363496991700,2.48499169921875,0.012847900390625,-0.994140625,0.0101470947265625
1768418363506992600,2.49499267578125,0.01287841796875,-0.9919891357421875,0.0113677978515625
1768418363516993500,2.50499365234375,0.0114288330078125,-0.9932098388671875,0.0103302001953125
1768418363526994700,2.51499462890625,0.009521484375,-0.99322509765625,0.008392333984375
1768418363536996600,2.52499658203125,0.00762939453125,-0.9931182861328125,0.007537841796875
1768418363546997500,2.53499755859375,0.0074005126953125,-0.99212646484375,0.0096588134765625
1768418363556998700,2.54499853515625,0.005523681640625,-0.9944305419921875,0.0101318359375
1768418363566999600,2.55499951171875,0.0072174072265625,-0.998199462890625,0.0095062255859375
1768418363577001000,2.5650009765625,0.0092010498046875,-1.000640869140625,0.0097198486328125
1768418363587003000,2.5750029296875,0.007415771484375,-0.9997100830078125,0.007843017578125
1768418363597003800,2.585003662109375,0.0052947998046875,-0.9998016357421875,0.0088958740234375
1768418363607005000,2.5950048828125,0.0009002685546875,-0.99725341796875,0.010009765625
1768418363617005800,2.605005859375,-0.0003204345703125,-0.99639892578125,0.008941650390625
1768418363627006700,2.6150068359375,-0.0020751953125,-0.996795654296875,0.0089263916015625
1768418363637009000,2.6250087890625,-0.0043792724609375,-0.992919921875,0.007659912109375
1768418363647009800,2.635009765625,-0.0102386474609375,-0.992950439453125,0.007110595703125
1768418363657010700,2.6450107421875,-0.0171661376953125,-0.9915924072265625,0.01171875
1768418363667011800,2.65501171875,-0.019287109375,-0.9861602783203125,0.0176239013671875
1768418363677012700,2.6650126953125,-0.027191162109375,-0.9816131591796875,0.0138702392578125
1768418363687015000,2.675014892578125,-0.045318603515625,-0.9841156005859375,0.012176513671875
1768418363697015800,2.685015869140625,-0.0649871826171875,-0.988494873046875,0.010040283203125
1768418363707016700,2.6950166015625,-0.088348388671875,-1.0033721923828125,0.0080108642578125
1768418363717017900,2.705017822265625,-0.0898284912109375,-1.024200439453125,0.0070343017578125
1768418363727018800,2.715018798828125,-0.07989501953125,-1.0390167236328125,0.005889892578125
1768418363737020700,2.725020751953125,-0.0697784423828125,-1.045135498046875,0.0099334716796875
1768418363747021600,2.735021484375,-0.05999755859375,-1.04443359375,0.023468017578125
1768418363757023000,2.74502294921875,-0.0571746826171875,-1.0388336181640625,0.0443572998046875
1768418363767023900,2.75502392578125,-0.0588226318359375,-1.028533935546875,0.064605712890625
1768418363777024800,2.765024658203125,-0.063568115234375,-1.0145721435546875,0.079864501953125
1768418363787027000,2.77502685546875,-0.0710296630859375,-1.0091094970703125,0.0910491943359375
1768418363797027800,2.78502783203125,-0.079833984375,-1.0042266845703125,0.0886383056640625
1768418363807028700,2.79502880859375,-0.0819244384765625,-1.0037078857421875,0.0793914794921875
1768418363817029600,2.805029541015625,-0.0775146484375,-1.0075225830078125,0.0782318115234375
1768418363827030800,2.81503076171875,-0.069061279296875,-1.0069580078125,0.07861328125
1768418363837032700,2.82503271484375,-0.064483642578125,-1.00714111328125,0.08892822265625
1768418363847033900,2.835033935546875,-0.0555267333984375,-1.0126495361328125,0.09716796875
1768418363857034800,2.84503466796875,-0.0500640869140625,-1.015777587890625,0.1016845703125
1768418363867036000,2.855035888671875,-0.05169677734375,-1.014129638671875,0.0998992919921875
1768418363877036800,2.865036865234375,-0.0551605224609375,-1.0145721435546875,0.09722900390625
1768418363887038700,2.875038818359375,-0.0564727783203125,-1.0114288330078125,0.089569091796875
1768418363897040000,2.885039794921875,-0.0600433349609375,-1.0045623779296875,0.084991455078125
1768418363907040800,2.895040771484375,-0.0565643310546875,-0.9962310791015625,0.0803070068359375
1768418363917041700,2.905041748046875,-0.0501861572265625,-0.989501953125,0.0750274658203125
1768418363927042800,2.915042724609375,-0.0397491455078125,-0.982269287109375,0.06591796875
1768418363937044700,2.925044677734375,-0.025787353515625,-0.9763641357421875,0.055908203125
1768418363947046000,2.9350458984375,-0.012237548828125,-0.96832275390625,0.047393798828125
1768418363957046800,2.945046875,-0.000823974609375,-0.9680328369140625,0.0387420654296875
1768418363967047700,2.955047607421875,0.010711669921875,-0.9672698974609375,0.035308837890625
1768418363977048800,2.965048828125,0.022247314453125,-0.9698944091796875,0.019744873046875
1768418363987050800,2.97505078125,0.0356292724609375,-0.9730987548828125,-0.0043487548828125
1768418363997051600,2.9850517578125,0.0508880615234375,-0.97100830078125,-0.033172607421875
1768418364007052800,2.995052734375,0.0657958984375,-0.966339111328125,-0.066650390625
1768418364017054000,3.005053955078125,0.0638885498046875,-0.9592132568359375,-0.094970703125
1768418364027054800,3.015054931640625,0.0365753173828125,-0.945281982421875,-0.1122894287109375
1768418364037056800,3.025056884765625,-0.0001678466796875,-0.9355926513671875,-0.1260986328125
1768418364047058000,3.035057861328125,-0.0412750244140625,-0.93682861328125,-0.12603759765625
1768418364057058800,3.045058837890625,-0.06182861328125,-0.960205078125,-0.1123199462890625
1768418364067059700,3.055059814453125,-0.0550994873046875,-0.9997711181640625,-0.0944061279296875
1768418364077060600,3.065060546875,-0.0388031005859375,-1.045562744140625,-0.07550048828125
1768418364087062800,3.075062744140625,-0.01275634765625,-1.0919189453125,-0.06292724609375
1768418364097063700,3.085063720703125,0.01190185546875,-1.1235504150390625,-0.0453948974609375
1768418364107064800,3.09506494140625,0.02496337890625,-1.1349639892578125,-0.024322509765625
1768418364117066000,3.10506591796875,0.0249481201171875,-1.1309967041015625,-0.0083770751953125
1768418364127067000,3.11506689453125,0.0177154541015625,-1.116241455078125,0.01300048828125
1768418364137068800,3.12506884765625,0.0131683349609375,-1.0950927734375,0.0332183837890625
1768418364147069700,3.135069580078125,0.0063018798828125,-1.0760955810546875,0.0555419921875
1768418364157070800,3.14507080078125,0.0035552978515625,-1.061614990234375,0.0767364501953125
1768418364167071700,3.15507177734375,-0.001251220703125,-1.0472564697265625,0.088775634765625
1768418364177072600,3.16507275390625,-0.0086517333984375,-1.0236053466796875,0.0904083251953125
1768418364187074800,3.17507470703125,-0.020538330078125,-0.990814208984375,0.076263427734375
1768418364197076000,3.185075927734375,-0.0337982177734375,-0.9450225830078125,0.046417236328125
1768418364207076900,3.195076904296875,-0.0395050048828125,-0.905029296875,0.0051116943359375
1768418364217077800,3.205077880859375,-0.0456695556640625,-0.8759613037109375,-0.036590576171875
1768418364227078700,3.21507861328125,-0.047821044921875,-0.8583831787109375,-0.072479248046875
1768418364237080800,3.225080810546875,-0.044921875,-0.85150146484375,-0.10247802734375
1768418364247081700,3.235081787109375,-0.0438690185546875,-0.8542022705078125,-0.122589111328125
1768418364257082600,3.24508251953125,-0.047027587890625,-0.8619842529296875,-0.1370391845703125
1768418364267083800,3.255083740234375,-0.0564727783203125,-0.873199462890625,-0.1483154296875
1768418364277085000,3.2650849609375,-0.075775146484375,-0.890533447265625,-0.1469573974609375
1768418364287086800,3.2750869140625,-0.0972442626953125,-0.905517578125,-0.1432037353515625
1768418364297088000,3.285087890625,-0.1156768798828125,-0.9088134765625,-0.1400604248046875
1768418364307089000,3.2950888671875,-0.1247406005859375,-0.904083251953125,-0.1385955810546875
1768418364317089800,3.30508984375,-0.1366729736328125,-0.9021148681640625,-0.1298980712890625
1768418364327090700,3.315090576171875,-0.15606689453125,-0.906280517578125,-0.11212158203125
1768418364337092900,3.3250927734375,-0.1699981689453125,-0.91326904296875,-0.0831756591796875
1768418364347093800,3.33509375,-0.170562744140625,-0.927276611328125,-0.049896240234375
1768418364357094700,3.3450947265625,-0.166961669921875,-0.9357757568359375,-0.0162811279296875
1768418364367095800,3.355095703125,-0.1607666015625,-0.9304046630859375,0.0121002197265625
1768418364377097000,3.365096923828125,-0.15374755859375,-0.9313507080078125,0.0290069580078125
1768418364387099000,3.375098876953125,-0.15484619140625,-0.9345245361328125,0.032745361328125
1768418364397099800,3.385099853515625,-0.1656646728515625,-0.9379730224609375,0.035552978515625
1768418364407100700,3.3951005859375,-0.178802490234375,-0.94073486328125,0.04132080078125
1768418364417101800,3.405101806640625,-0.1785430908203125,-0.9432220458984375,0.046356201171875
1768418364427102700,3.415102783203125,-0.1716156005859375,-0.9468841552734375,0.0406494140625
1768418364437104600,3.425104736328125,-0.162506103515625,-0.956787109375,0.0266876220703125
1768418364447105800,3.435105712890625,-0.151947021484375,-0.9742279052734375,0.00714111328125
1768418364457107000,3.44510693359375,-0.1404876708984375,-0.9982757568359375,-0.022705078125
1768418364467107800,3.45510791015625,-0.1439056396484375,-1.0323638916015625,-0.051116943359375
1768418364477108700,3.465108642578125,-0.16082763671875,-1.0752716064453125,-0.0615997314453125
1768418364487111000,3.47511083984375,-0.181549072265625,-1.12445068359375,-0.0495147705078125
1768418364497111800,3.48511181640625,-0.2005615234375,-1.16949462890625,-0.0117340087890625
1768418364507112700,3.49511279296875,-0.197998046875,-1.2111358642578125,0.0477294921875
1768418364517113600,3.505113525390625,-0.1830902099609375,-1.225616455078125,0.1003570556640625
1768418364527114800,3.51511474609375,-0.1760406494140625,-1.2034759521484375,0.1375274658203125
1768418364537116700,3.52511669921875,-0.195953369140625,-1.158905029296875,0.153076171875
1768418364547117800,3.535117919921875,-0.2305145263671875,-1.125701904296875,0.145599365234375
1768418364557119000,3.545118896484375,-0.261383056640625,-1.1122283935546875,0.1351318359375
1768418364567120000,3.555119873046875,-0.2866363525390625,-1.1095733642578125,0.14141845703125
1768418364577120800,3.565120849609375,-0.3027496337890625,-1.1010894775390625,0.155029296875
1768418364587122700,3.575122802734375,-0.3013153076171875,-1.075927734375,0.1766357421875
1768418364597123800,3.585123779296875,-0.240264892578125,-1.018280029296875,0.185150146484375
1768418364607124700,3.595124755859375,-0.095977783203125,-0.9590301513671875,0.134185791015625
1768418364617125600,3.605125732421875,0.0915985107421875,-0.957977294921875,0.0143585205078125
1768418364627126800,3.615126708984375,0.28375244140625,-1.081695556640625,-0.1446533203125
1768418364637128700,3.625128662109375,0.4144744873046875,-1.3383636474609375,-0.2924652099609375
1768418364647129900,3.6351298828125,0.4356842041015625,-1.5423736572265625,-0.4023590087890625
1768418364657130800,3.645130859375,0.4559173583984375,-1.49407958984375,-0.4842529296875
1768418364667131600,3.655131591796875,0.4182586669921875,-1.2647247314453125,-0.48309326171875
1768418364677132800,3.6651328125,0.20538330078125,-1.0867462158203125,-0.378814697265625
1768418364687134700,3.675134765625,-0.06915283203125,-1.0483856201171875,-0.3972015380859375
1768418364697135600,3.685135498046875,-0.0684356689453125,-0.9276275634765625,-0.288360595703125
1768418364707136500,3.695136474609375,0.0118255615234375,-0.769256591796875,-0.177276611328125
1768418364717138000,3.705137939453125,0.114898681640625,-0.736602783203125,-0.1188201904296875
1768418364727138800,3.715138916015625,0.1943817138671875,-0.790435791015625,-0.0653533935546875
1768418364737139700,3.7251396484375,0.2255706787109375,-0.9894561767578125,-0.000640869140625
1768418364747142000,3.735141845703125,0.1710662841796875,-1.2900848388671875,0.0650634765625
1768418364757142800,3.745142822265625,0.1119537353515625,-1.3820648193359375,0.0791015625
1768418364767143700,3.755143798828125,0.1478729248046875,-1.3520355224609375,0.0265960693359375
1768418364777144600,3.76514453125,0.2294921875,-1.3115386962890625,-0.068603515625
1768418364787146800,3.775146728515625,0.288818359375,-1.26617431640625,-0.153350830078125
1768418364797147600,3.785147705078125,0.2629241943359375,-1.192108154296875,-0.179290771484375
1768418364807148800,3.795148681640625,0.181640625,-1.0675811767578125,-0.153656005859375
1768418364817149700,3.805149658203125,0.1160430908203125,-0.9596710205078125,-0.1150054931640625
1768418364827150800,3.81515087890625,0.0875091552734375,-0.89483642578125,-0.09088134765625
1768418364837151700,3.82515185546875,0.0825042724609375,-0.8660888671875,-0.06951904296875
1768418364847153700,3.835153564453125,0.088958740234375,-0.8608856201171875,-0.051727294921875
1768418364857154800,3.84515478515625,0.0979766845703125,-0.8651275634765625,-0.035400390625
1768418364867155700,3.85515576171875,0.0987091064453125,-0.8701019287109375,-0.0124664306640625
1768418364877156600,3.865156494140625,0.1082916259765625,-0.867828369140625,0.0111083984375
1768418364887157800,3.87515771484375,0.134918212890625,-0.8589324951171875,0.03790283203125
1768418364897160000,3.885159912109375,0.15008544921875,-0.8527984619140625,0.0523223876953125
1768418364907160800,3.895160888671875,0.166778564453125,-0.8313751220703125,0.0672149658203125
1768418364917161700,3.90516162109375,0.1707916259765625,-0.799896240234375,0.08770751953125
1768418364927162600,3.91516259765625,0.1698150634765625,-0.756927490234375,0.124664306640625
1768418364937164800,3.925164794921875,0.1644287109375,-0.7115020751953125,0.152069091796875
1768418364947165700,3.935165771484375,0.1540069580078125,-0.6754913330078125,0.16619873046875
1768418364957166600,3.94516650390625,0.1363983154296875,-0.654296875,0.1572113037109375
1768418364967167700,3.955167724609375,0.1114654541015625,-0.6607208251953125,0.1309356689453125
1768418364977169000,3.9651689453125,0.0904541015625,-0.68798828125,0.1052703857421875
1768418364987169800,3.975169677734375,0.0839996337890625,-0.7148590087890625,0.0751953125
1768418364997171700,3.985171630859375,0.0749664306640625,-0.7418670654296875,0.0501251220703125
1768418365007172900,3.9951728515625,0.0651702880859375,-0.7750396728515625,0.031585693359375
1768418365017173800,4.005173828125,0.0639190673828125,-0.810821533203125,0.0308380126953125
1768418365027174700,4.015174560546875,0.0663909912109375,-0.841461181640625,0.0395965576171875
1768418365037175600,4.025175537109375,0.07135009765625,-0.8708648681640625,0.05084228515625
1768418365047177700,4.035177734375,0.077178955078125,-0.8924713134765625,0.063201904296875
1768418365057178600,4.0451787109375,0.0715484619140625,-0.901519775390625,0.0820770263671875
1768418365067179800,4.0551796875,0.0602264404296875,-0.9077301025390625,0.0988616943359375
1768418365077181000,4.065180908203125,0.0415191650390625,-0.912750244140625,0.1070556640625
1768418365087181800,4.075181884765625,0.015655517578125,-0.9190826416015625,0.0953216552734375
1768418365097183700,4.085183837890625,-0.001007080078125,-0.934417724609375,0.0637664794921875
1768418365107184600,4.0951845703125,0.00372314453125,-0.9617919921875,0.04400634765625
1768418365117185800,4.105185791015625,0.0166473388671875,-0.9943695068359375,0.0502166748046875
1768418365127186700,4.115186767578125,0.0184478759765625,-1.0247344970703125,0.0789337158203125
1768418365137187800,4.125187744140625,0.0206756591796875,-1.0464324951171875,0.112060546875
1768418365147189800,4.135189697265625,0.0261993408203125,-1.0623931884765625,0.1300506591796875
1768418365157191000,4.14519091796875,0.0123748779296875,-1.1038970947265625,0.11798095703125
1768418365167191800,4.15519189453125,-0.0048980712890625,-1.1580657958984375,0.0908660888671875
1768418365177192700,4.165192626953125,-0.04364013671875,-1.2147369384765625,0.0694580078125
1768418365187193600,4.175193603515625,-0.1309051513671875,-1.2634429931640625,0.06817626953125
1768418365197195800,4.18519580078125,-0.236480712890625,-1.2682952880859375,0.1051788330078125
1768418365207196700,4.19519677734375,-0.3123626708984375,-1.2093353271484375,0.186614990234375
1768418365217197600,4.205197509765625,-0.29547119140625,-1.0514068603515625,0.304840087890625
1768418365227198700,4.21519873046875,-0.155181884765625,-0.8675689697265625,0.3843994140625
1768418365237200000,4.225199951171875,0.066680908203125,-0.8171539306640625,0.359527587890625
1768418365247201800,4.235201904296875,0.416473388671875,-0.942291259765625,0.2973785400390625
1768418365257203000,4.245202880859375,0.7218170166015625,-1.230560302734375,0.2648773193359375
1768418365267203800,4.255203857421875,0.834716796875,-1.531768798828125,0.1685943603515625
1768418365277204700,4.265204833984375,0.86279296875,-1.7111663818359375,0.042724609375
1768418365287205600,4.27520556640625,0.82452392578125,-1.768035888671875,-0.05902099609375
1768418365297207800,4.285207763671875,0.7231292724609375,-1.610198974609375,-0.1212005615234375
1768418365307208700,4.295208740234375,0.5658721923828125,-1.3459625244140625,-0.184478759765625
1768418365317209600,4.305209716796875,0.4015655517578125,-1.1377105712890625,-0.2949676513671875
1768418365327210800,4.315210693359375,0.294708251953125,-1.016326904296875,-0.412628173828125
1768418365337212000,4.3252119140625,0.2068634033203125,-0.9685211181640625,-0.4841766357421875
1768418365347213800,4.3352138671875,0.118255615234375,-0.97869873046875,-0.45892333984375
1768418365357214700,4.345214599609375,0.0572662353515625,-1.0153045654296875,-0.3557586669921875
1768418365367215600,4.355215576171875,0.0366058349609375,-1.079681396484375,-0.19476318359375
1768418365377216800,4.365216796875,0.08673095703125,-1.15924072265625,-0.0302886962890625
1768418365387217700,4.3752177734375,0.17706298828125,-1.2357025146484375,0.079833984375
1768418365397219600,4.385219482421875,0.2388763427734375,-1.273101806640625,0.1176910400390625
1768418365407220700,4.395220703125,0.2629241943359375,-1.25823974609375,0.1103973388671875
1768418365417222000,4.405221923828125,0.23773193359375,-1.189697265625,0.0642852783203125
1768418365427222800,4.415222900390625,0.2036590576171875,-1.0812530517578125,0.0099945068359375
1768418365437223700,4.4252236328125,0.15533447265625,-0.9578857421875,-0.03094482421875
1768418365447225900,4.435225830078125,0.1090545654296875,-0.84814453125,-0.0528411865234375
1768418365457226800,4.445226806640625,0.082672119140625,-0.7510833740234375,-0.0748291015625
1768418365467227600,4.4552275390625,0.0678253173828125,-0.670928955078125,-0.1111297607421875
1768418365477228500,4.465228515625,0.071746826171875,-0.6273345947265625,-0.1460723876953125
1768418365487230000,4.47522998046875,0.0816802978515625,-0.5947113037109375,-0.1462249755859375
1768418365497231600,4.485231689453125,0.074188232421875,-0.5752105712890625,-0.1465301513671875
1768418365507232800,4.495232666015625,0.0700225830078125,-0.57049560546875,-0.15692138671875
1768418365517234000,4.50523388671875,0.0662689208984375,-0.57598876953125,-0.1761322021484375
1768418365527234800,4.51523486328125,0.05157470703125,-0.590240478515625,-0.2109832763671875
1768418365537235700,4.525235595703125,0.0356903076171875,-0.6064300537109375,-0.2318572998046875
1768418365547237600,4.535237548828125,0.0062103271484375,-0.6211700439453125,-0.236236572265625
1768418365557238800,4.54523876953125,-0.0212249755859375,-0.6439056396484375,-0.2121734619140625
1768418365567239200,4.5552392578125,-0.0464324951171875,-0.65875244140625,-0.16436767578125
1768418365577240600,4.565240478515625,-0.073089599609375,-0.6708984375,-0.11468505859375
1768418365587241500,4.575241455078125,-0.0764007568359375,-0.686248779296875,-0.080078125
1768418365597243400,4.585243408203125,-0.057281494140625,-0.6955413818359375,-0.0654296875
1768418365607244500,4.59524462890625,-0.02972412109375,-0.7002105712890625,-0.0569915771484375
1768418365617245400,4.605245361328125,-0.011993408203125,-0.7051849365234375,-0.0322723388671875
1768418365627246300,4.615246337890625,-0.0009613037109375,-0.7135467529296875,0.0072174072265625
1768418365637247200,4.625247314453125,-0.0048370361328125,-0.753692626953125,0.042724609375
1768418365647249400,4.63524951171875,-0.028656005859375,-0.8368377685546875,0.0683135986328125
1768418365657250300,4.645250244140625,-0.060272216796875,-0.9386444091796875,0.0830078125
1768418365667251500,4.65525146484375,-0.10614013671875,-1.039276123046875,0.07281494140625
1768418365677252400,4.66525244140625,-0.1197967529296875,-1.133758544921875,0.04803466796875
1768418365687254500,4.675254638671875,-0.078094482421875,-1.2176361083984375,0.03533935546875
1768418365697255400,4.68525537109375,-0.050537109375,-1.296844482421875,0.047821044921875
1768418365707256300,4.69525634765625,-0.0821075439453125,-1.35821533203125,0.0790557861328125
1768418365717257200,4.70525732421875,-0.188385009765625,-1.3847808837890625,0.11663818359375
1768418365727258400,4.71525830078125,-0.3553619384765625,-1.389434814453125,0.1398468017578125
1768418365737259300,4.72525927734375,-0.523193359375,-1.3850555419921875,0.1474456787109375
1768418365747261200,4.73526123046875,-0.586700439453125,-1.360260009765625,0.14300537109375
1768418365757262600,4.7452626953125,-0.55328369140625,-1.293212890625,0.1238861083984375
1768418365767263500,4.755263427734375,-0.4953460693359375,-1.1613922119140625,0.044097900390625
1768418365777264400,4.765264404296875,-0.3828887939453125,-1.01019287109375,-0.044036865234375
1768418365787265300,4.775265380859375,-0.1765289306640625,-0.969268798828125,-0.151947021484375
1768418365797267500,4.785267333984375,0.0628204345703125,-1.0885162353515625,-0.268585205078125
1768418365807268400,4.795268310546875,0.25750732421875,-1.32244873046875,-0.3359375
1768418365817269200,4.805269287109375,0.383514404296875,-1.557586669921875,-0.2890625
1768418365827270100,4.815270263671875,0.35406494140625,-1.602691650390625,-0.3753509521484375
1768418365837272300,4.825272216796875,0.5518798828125,-1.53314208984375,-0.61627197265625
1768418365847273500,4.8352734375,0.7187347412109375,-1.47235107421875,-0.4630889892578125
1768418365857274400,4.8452744140625,0.51422119140625,-1.3970184326171875,-0.2931671142578125
1768418365867275500,4.855275634765625,0.3640899658203125,-1.253509521484375,-0.146759033203125
1768418365877276400,4.8652763671875,0.344390869140625,-1.114990234375,-0.0159454345703125
1768418365887278300,4.8752783203125,0.310272216796875,-0.984893798828125,0.066925048828125
1768418365897279200,4.885279296875,0.256866455078125,-0.8733367919921875,0.123504638671875
1768418365907280400,4.8952802734375,0.2324981689453125,-0.8628082275390625,0.1660919189453125
1768418365917281300,4.90528125,0.2323150634765625,-0.9815826416015625,0.190277099609375
1768418365927282400,4.915282470703125,0.2497711181640625,-1.1166534423828125,0.2232513427734375
1768418365937284400,4.925284423828125,0.269500732421875,-1.1353302001953125,0.18194580078125
1768418365947285500,4.935285400390625,0.2623748779296875,-1.1169891357421875,0.060943603515625
1768418365957286400,4.945286376953125,0.256561279296875,-1.11181640625,-0.073822021484375
1768418365967287300,4.955287353515625,0.27545166015625,-1.094635009765625,-0.1721954345703125
1768418365977288400,4.965288330078125,0.273895263671875,-1.0389556884765625,-0.188568115234375
1768418365987290400,4.975290283203125,0.2252960205078125,-0.9630584716796875,-0.1639251708984375
1768418365997291300,4.985291259765625,0.1487274169921875,-0.8907623291015625,-0.1607208251953125
1768418366007292200,4.995292236328125,0.097259521484375,-0.822296142578125,-0.1644439697265625
1768418366017293600,5.00529345703125,0.07269287109375,-0.7531890869140625,-0.16021728515625
1768418366027294500,5.01529443359375,0.062469482421875,-0.68829345703125,-0.1497650146484375
1768418366037296400,5.02529638671875,0.07745361328125,-0.635009765625,-0.117034912109375
1768418366047297500,5.035297607421875,0.087432861328125,-0.596160888671875,-0.079132080078125
1768418366057298400,5.04529833984375,0.09381103515625,-0.5703125,-0.0382843017578125
1768418366067299300,5.05529931640625,0.100830078125,-0.5609893798828125,0.0163116455078125
1768418366077300200,5.06530029296875,0.1194610595703125,-0.572235107421875,0.068939208984375
1768418366087302400,5.075302490234375,0.1424407958984375,-0.5869140625,0.138916015625
1768418366097303300,5.08530322265625,0.1554107666015625,-0.595794677734375,0.2163543701171875
1768418366107304400,5.095304443359375,0.1580810546875,-0.6084747314453125,0.274810791015625
1768418366117305300,5.105305419921875,0.142181396484375,-0.6284942626953125,0.295623779296875
1768418366127306500,5.115306396484375,0.1181182861328125,-0.650115966796875,0.28179931640625
1768418366137308400,5.125308349609375,0.0700531005859375,-0.6719818115234375,0.2351226806640625
1768418366147309300,5.135309326171875,0.0240478515625,-0.68756103515625,0.1700592041015625
1768418366157310500,5.145310546875,0.0006866455078125,-0.7189178466796875,0.100311279296875
1768418366167311400,5.155311279296875,0.01788330078125,-0.7576141357421875,0.046783447265625
1768418366177312300,5.165312255859375,0.0575408935546875,-0.8061370849609375,0.0104827880859375
1768418366187314200,5.175314208984375,0.0735321044921875,-0.868499755859375,-0.0129852294921875
1768418366197315300,5.1853154296875,0.0383453369140625,-0.92803955078125,-0.0223236083984375
1768418366207316500,5.19531640625,0.0201873779296875,-0.9941558837890625,-0.018768310546875
1768418366217317400,5.2053173828125,0.0323486328125,-1.0688934326171875,-0.0216522216796875
1768418366227318300,5.215318359375,0.059295654296875,-1.1481170654296875,-0.0185089111328125
1768418366237320400,5.225320556640625,0.07281494140625,-1.2122955322265625,-0.0038604736328125
1768418366247321300,5.2353212890625,0.0523681640625,-1.2472991943359375,0.018707275390625
1768418366257322200,5.245322265625,-0.0025787353515625,-1.240478515625,0.0598297119140625
1768418366267323400,5.255323486328125,-0.0707244873046875,-1.216766357421875,0.1121063232421875
1768418366277324500,5.265324462890625,-0.1262969970703125,-1.1913299560546875,0.162841796875
1768418366287326200,5.275326171875,-0.18194580078125,-1.1913299560546875,0.222412109375
1768418366297327400,5.285327392578125,-0.225677490234375,-1.2037353515625,0.2590179443359375
1768418366307328500,5.29532861328125,-0.2470703125,-1.197784423828125,0.2664337158203125
1768418366317329400,5.305329345703125,-0.244537353515625,-1.1409149169921875,0.249969482421875
1768418366327330300,5.315330322265625,-0.199554443359375,-1.055908203125,0.1850433349609375
1768418366337332500,5.32533251953125,-0.0613250732421875,-0.990203857421875,0.081024169921875
1768418366347333400,5.33533349609375,0.2344970703125,-0.9771881103515625,-0.0002593994140625
1768418366357334300,5.345334228515625,0.632537841796875,-1.0908966064453125,-0.0391693115234375
1768418366367335400,5.35533544921875,0.926513671875,-1.341796875,0.0169677734375
1768418366377336300,5.36533642578125,0.9633331298828125,-1.55615234375,0.063385009765625
1768418366387338500,5.37533837890625,0.81048583984375,-1.6081085205078125,0.0216217041015625
1768418366397339400,5.38533935546875,0.630767822265625,-1.5037689208984375,-0.08251953125
1768418366407340300,5.39534033203125,0.4513092041015625,-1.330810546875,-0.1282958984375
1768418366417341400,5.405341552734375,0.31866455078125,-1.100677490234375,-0.109527587890625
1768418366427342300,5.41534228515625,0.233856201171875,-0.943328857421875,-0.12762451171875
1768418366437344300,5.42534423828125,0.1751708984375,-0.9181365966796875,-0.161865234375
1768418366447345200,5.43534521484375,0.1230316162109375,-0.9949951171875,-0.1862030029296875
1768418366457346600,5.4453466796875,0.0954132080078125,-1.1372528076171875,-0.1823272705078125
1768418366467347500,5.455347412109375,0.1110992431640625,-1.2916107177734375,-0.1197509765625
1768418366477348400,5.465348388671875,0.1463470458984375,-1.4346923828125,-0.042877197265625
1768418366487350500,5.4753505859375,0.2028045654296875,-1.532073974609375,0.0309600830078125
1768418366497351400,5.485351318359375,0.247833251953125,-1.5433349609375,0.0978240966796875
1768418366507352300,5.495352294921875,0.2554168701171875,-1.4517974853515625,0.1361846923828125
1768418366517353200,5.505353271484375,0.2554931640625,-1.299530029296875,0.1185760498046875
1768418366527354400,5.515354248046875,0.249725341796875,-1.1207275390625,0.0508270263671875
1768418366537356300,5.525356201171875,0.2310333251953125,-0.93255615234375,-0.02850341796875
1768418366547357400,5.535357421875,0.1982421875,-0.756072998046875,-0.0978240966796875
1768418366557358300,5.5453583984375,0.16015625,-0.6015472412109375,-0.1623077392578125
1768418366567360300,5.5553603515625,0.127838134765625,-0.4857177734375,-0.20941162109375
1768418366577362200,5.565362060546875,0.1081390380859375,-0.416015625,-0.2280731201171875
1768418366587363300,5.57536328125,0.089569091796875,-0.3804168701171875,-0.2258758544921875
1768418366597364200,5.5853642578125,0.064453125,-0.382293701171875,-0.19342041015625
1768418366607365000,5.595365234375,0.030853271484375,-0.409698486328125,-0.144989013671875
1768418366617366000,5.605365966796875,0.002105712890625,-0.4581298828125,-0.1060028076171875
1768418366627368200,5.6153681640625,-0.008026123046875,-0.5217132568359375,-0.0819091796875
1768418366637369000,5.625369140625,-0.0052337646484375,-0.5949249267578125,-0.0644683837890625
1768418366647370000,5.635369873046875,-0.0024261474609375,-0.6529083251953125,-0.06292724609375
1768418366657371100,5.64537109375,0.0098724365234375,-0.6935577392578125,-0.0666961669921875
1768418366667372300,5.655372314453125,-0.0022430419921875,-0.7144317626953125,-0.0802001953125
1768418366677374200,5.665374267578125,-0.0048828125,-0.7251434326171875,-0.0760498046875
1768418366687375000,5.675375,-0.01654052734375,-0.739654541015625,-0.0690460205078125
1768418366697376000,5.6853759765625,-0.05584716796875,-0.7462158203125,-0.0495452880859375
1768418366707377200,5.695377197265625,-0.104400634765625,-0.74554443359375,-0.0430450439453125
1768418366717378000,5.7053779296875,-0.145965576171875,-0.747314453125,-0.0566864013671875
1768418366727380000,5.7153798828125,-0.1776275634765625,-0.7783203125,-0.0763092041015625
1768418366737381000,5.725381103515625,-0.18701171875,-0.8365478515625,-0.0736846923828125
1768418366747382300,5.73538232421875,-0.183197021484375,-0.919403076171875,-0.036773681640625
1768418366757383200,5.745383056640625,-0.1551055908203125,-1.009857177734375,0.0053558349609375
1768418366767384000,5.755384033203125,-0.0887298583984375,-1.0769195556640625,0.02569580078125
1768418366777386200,5.76538623046875,-0.0233154296875,-1.1233367919921875,0.01336669921875
1768418366787387100,5.77538720703125,0.0066070556640625,-1.1517791748046875,-0.006256103515625
1768418366797388000,5.785387939453125,-0.064056396484375,-1.170440673828125,0.0086517333984375
1768418366807389000,5.795388916015625,-0.3155059814453125,-1.2427520751953125,0.0410614013671875
1768418366817390000,5.80539013671875,-0.5753631591796875,-1.393798828125,0.059539794921875
1768418366827392000,5.81539208984375,-0.662872314453125,-1.5209808349609375,0.0715179443359375
1768418366837393200,5.82539306640625,-0.5661773681640625,-1.4732513427734375,0.055816650390625
1768418366847394300,5.835394287109375,-0.3873291015625,-1.2719879150390625,-0.010986328125
1768418366857395200,5.845395263671875,-0.2349700927734375,-1.005279541015625,-0.02587890625
1768418366867396000,5.85539599609375,-0.0486602783203125,-0.8609466552734375,0.0047454833984375
1768418366877398000,5.86539794921875,0.1982269287109375,-0.9562835693359375,-0.021209716796875
1768418366887399200,5.875399169921875,0.4559478759765625,-1.23150634765625,-0.136138916015625
1768418366897400000,5.885400146484375,0.6352996826171875,-1.4981231689453125,-0.2069091796875
1768418366907401000,5.89540087890625,0.6894073486328125,-1.578826904296875,-0.3182220458984375
1768418366917402000,5.905402099609375,0.7084197998046875,-1.5890960693359375,-0.3756561279296875
1768418366927404300,5.915404296875,0.56329345703125,-1.5789031982421875,-0.2826690673828125
1768418366937405200,5.9254052734375,0.35223388671875,-1.37384033203125,-0.140899658203125
1768418366947406000,5.935406005859375,0.2526092529296875,-1.0944061279296875,-0.007049560546875
1768418366957407200,5.9454072265625,0.2945556640625,-0.90728759765625,0.0759124755859375
1768418366967408000,5.955408203125,0.32684326171875,-0.8413238525390625,0.0981292724609375
1768418366977410000,5.96541015625,0.3104400634765625,-0.98748779296875,0.13494873046875
1768418366987411000,5.975410888671875,0.2076568603515625,-1.2553253173828125,0.124176025390625
1768418366997412000,5.985412109375,0.1804962158203125,-1.39471435546875,0.094818115234375
1768418367007413200,5.995413330078125,0.233184814453125,-1.407012939453125,0.04486083984375
1768418367017414100,6.0054140625,0.274139404296875,-1.3749237060546875,-0.05322265625
1768418367027416300,6.015416259765625,0.31219482421875,-1.3484954833984375,-0.142486572265625
1768418367037417200,6.025417236328125,0.32708740234375,-1.3338775634765625,-0.190887451171875
1768418367047418000,6.035418212890625,0.3040313720703125,-1.272796630859375,-0.16864013671875
1768418367057419000,6.0454189453125,0.2447052001953125,-1.164947509765625,-0.09649658203125
1768418367067420200,6.055420166015625,0.155181884765625,-1.04791259765625,-0.0312042236328125
1768418367077422000,6.065422119140625,0.0810394287109375,-0.917694091796875,0.001251220703125
1768418367087423000,6.075423095703125,0.04296875,-0.78955078125,0.022308349609375
1768418367097424100,6.085424072265625,0.0370330810546875,-0.6717681884765625,0.0211181640625
1768418367107425300,6.09542529296875,0.0511016845703125,-0.571685791015625,-0.0082550048828125
1768418367117427200,6.10542724609375,0.064117431640625,-0.4899749755859375,-0.0389251708984375
1768418367127428000,6.115427978515625,0.0761566162109375,-0.435272216796875,-0.0488128662109375
1768418367137429200,6.12542919921875,0.077392578125,-0.408660888671875,-0.0369720458984375
1768418367147430100,6.13543017578125,0.07940673828125,-0.3988800048828125,0.003448486328125
1768418367157431000,6.14543115234375,0.10137939453125,-0.4029541015625,0.0486907958984375
1768418367167433000,6.155432861328125,0.111724853515625,-0.4131011962890625,0.0846710205078125
1768418367177434000,6.16543408203125,0.1189117431640625,-0.445220947265625,0.1099853515625
1768418367187435300,6.175435302734375,0.1186981201171875,-0.5009002685546875,0.13330078125
1768418367197436200,6.185436279296875,0.1150665283203125,-0.5579986572265625,0.16302490234375
1768418367207437000,6.19543701171875,0.091644287109375,-0.6120758056640625,0.187591552734375
1768418367217439200,6.205439208984375,0.0494842529296875,-0.6619873046875,0.2130279541015625
1768418367227440000,6.215440185546875,0.03839111328125,-0.70123291015625,0.2458038330078125
1768418367237441000,6.22544091796875,0.039215087890625,-0.7486419677734375,0.2528228759765625
1768418367247442000,6.23544189453125,0.0370025634765625,-0.816192626953125,0.230987548828125
1768418367257443000,6.245443115234375,0.012969970703125,-0.89569091796875,0.2057037353515625
1768418367267445000,6.255445068359375,-0.0189666748046875,-0.982696533203125,0.16461181640625
1768418367277446100,6.265446044921875,-0.0332183837890625,-1.058746337890625,0.091094970703125
1768418367287447300,6.275447265625,-0.0280303955078125,-1.1095428466796875,-0.00225830078125
1768418367297448200,6.2854482421875,-0.0080413818359375,-1.1396636962890625,-0.08642578125
1768418367307449000,6.295448974609375,0.0008544921875,-1.1562652587890625,-0.1429290771484375
1768418367317451300,6.305451171875,-0.049530029296875,-1.1613616943359375,-0.1592559814453125
1768418367327452200,6.3154521484375,-0.1441192626953125,-1.1686859130859375,-0.1153564453125
1768418367337453000,6.325453125,-0.21673583984375,-1.1973114013671875,-0.0245819091796875
1768418367347454000,6.335453857421875,-0.274658203125,-1.244903564453125,0.0742034912109375
1768418367357455000,6.345455078125,-0.3081512451171875,-1.2589111328125,0.17840576171875
1768418367367457000,6.35545703125,-0.3429718017578125,-1.2076568603515625,0.264617919921875
1768418367377458200,6.365458251953125,-0.3260040283203125,-1.100982666015625,0.28302001953125
1768418367387459000,6.375458984375,-0.176849365234375,-0.994293212890625,0.2200775146484375
1768418367397460200,6.385460205078125,0.1379547119140625,-0.9498443603515625,0.1422271728515625
1768418367407461000,6.395461181640625,0.5480194091796875,-1.0089263916015625,0.0823822021484375
1768418367417463000,6.405463134765625,0.9230499267578125,-1.21142578125,0.055389404296875
1768418367427464000,6.4154638671875,0.9884796142578125,-1.4245758056640625,0.0993499755859375
1768418367437465000,6.425465087890625,0.7724456787109375,-1.55950927734375,0.1682891845703125
1768418367447466200,6.43546630859375,0.502685546875,-1.56866455078125,0.173675537109375
1768418367457467100,6.445467041015625,0.40216064453125,-1.4425201416015625,0.0616455078125
1768418367467469300,6.45546923828125,0.4235992431640625,-1.321075439453125,-0.0227813720703125
1768418367477470200,6.46547021484375,0.43505859375,-1.2007293701171875,-0.0675048828125
1768418367487471000,6.47547119140625,0.3168792724609375,-1.1549530029296875,-0.1658477783203125
1768418367497472000,6.485471923828125,0.193389892578125,-1.1758575439453125,-0.272186279296875
1768418367507473200,6.49547314453125,0.1083221435546875,-1.2705535888671875,-0.321136474609375
1768418367517475000,6.50547509765625,0.0980987548828125,-1.37628173828125,-0.2525634765625
1768418367527476000,6.51547607421875,0.17822265625,-1.4440765380859375,-0.1244049072265625
1768418367537477000,6.52547705078125,0.2407684326171875,-1.4591217041015625,-0.035308837890625
1768418367547478300,6.535478271484375,0.2602996826171875,-1.406036376953125,0.0111083984375
1768418367557479200,6.545479248046875,0.259063720703125,-1.3110809326171875,-0.0140228271484375
1768418367567480300,6.555480224609375,0.22552490234375,-1.1717071533203125,-0.0499725341796875
1768418367577481500,6.5654814453125,0.1837921142578125,-1.02899169921875,-0.0489501953125
1768418367587482400,6.575482421875,0.136688232421875,-0.904876708984375,-0.0511016845703125
1768418367597483500,6.5854833984375,0.0930938720703125,-0.787994384765625,-0.0546417236328125
1768418367607484400,6.595484375,0.075592041015625,-0.6852264404296875,-0.060638427734375
1768418367617486600,6.605486572265625,0.0726318359375,-0.6105194091796875,-0.0646514892578125
1768418367627487500,6.615487548828125,0.068511962890625,-0.56170654296875,-0.0695343017578125
1768418367637488400,6.62548828125,0.070587158203125,-0.52862548828125,-0.0669403076171875
1768418367647489300,6.6354892578125,0.06512451171875,-0.5124969482421875,-0.0792694091796875
1768418367657490400,6.645490478515625,0.03851318359375,-0.5157318115234375,-0.0864105224609375
1768418367667492400,6.655492431640625,0.024505615234375,-0.5221710205078125,-0.097991943359375
1768418367677493200,6.6654931640625,0.027069091796875,-0.524566650390625,-0.1063690185546875
1768418367687494400,6.675494384765625,0.018951416015625,-0.521514892578125,-0.115753173828125
1768418367697495600,6.68549560546875,0.007598876953125,-0.5197601318359375,-0.1192169189453125
1768418367707496400,6.695496337890625,0.0056610107421875,-0.5302581787109375,-0.1065521240234375
1768418367717498400,6.705498291015625,-0.017669677734375,-0.558013916015625,-0.0889434814453125
1768418367727499500,6.71549951171875,-0.034759521484375,-0.58856201171875,-0.0623016357421875
1768418367737500400,6.72550048828125,-0.0481719970703125,-0.6233673095703125,-0.039825439453125
1768418367747501300,6.735501220703125,-0.0648345947265625,-0.6650390625,-0.0362091064453125
1768418367757503500,6.74550341796875,-0.081329345703125,-0.703521728515625,-0.0382537841796875
1768418367767504400,6.75550439453125,-0.090179443359375,-0.7536163330078125,-0.050048828125
1768418367777505300,6.76550537109375,-0.0926361083984375,-0.817230224609375,-0.0717010498046875
1768418367787506400,6.77550634765625,-0.0693206787109375,-0.900054931640625,-0.0939178466796875
1768418367797507600,6.785507568359375,-0.0475006103515625,-1.001190185546875,-0.087310791015625
1768418367807509500,6.795509521484375,-0.058990478515625,-1.100860595703125,-0.0386962890625
1768418367817510400,6.805510498046875,-0.0598297119140625,-1.1963043212890625,0.0294189453125
1768418367827511300,6.81551123046875,-0.025177001953125,-1.283233642578125,0.10382080078125
1768418367837512400,6.825512451171875,-0.020233154296875,-1.3487091064453125,0.1716156005859375
1768418367847513300,6.835513427734375,-0.13092041015625,-1.373260498046875,0.1876068115234375
1768418367857515300,6.845515380859375,-0.3372802734375,-1.35430908203125,0.125274658203125
1768418367867516400,6.855516357421875,-0.5127716064453125,-1.3374481201171875,0.00738525390625
1768418367877517600,6.865517578125,-0.5606536865234375,-1.3232421875,-0.0980224609375
1768418367887518500,6.8755185546875,-0.531036376953125,-1.2863922119140625,-0.182464599609375
1768418367897519400,6.885519287109375,-0.4495086669921875,-1.2051239013671875,-0.2599945068359375
1768418367907521500,6.895521484375,-0.303680419921875,-1.102783203125,-0.2857666015625
1768418367917522400,6.9055224609375,-0.0764923095703125,-1.095489501953125,-0.2869110107421875
1768418367927523300,6.9155234375,0.1709747314453125,-1.233001708984375,-0.2861480712890625
1768418367937524200,6.925524169921875,0.364044189453125,-1.4661865234375,-0.2870025634765625
1768418367947525400,6.935525390625,0.4603729248046875,-1.696807861328125,-0.2235107421875
1768418367957527300,6.94552734375,0.492462158203125,-1.805694580078125,-0.1405029296875
1768418367967528400,6.955528564453125,0.48236083984375,-1.718658447265625,-0.114166259765625
1768418367977529600,6.965529541015625,0.481475830078125,-1.38116455078125,-0.1254119873046875
1768418367987530500,6.975530517578125,0.5946502685546875,-1.0659942626953125,-0.113983154296875
1768418367997531400,6.985531494140625,0.62908935546875,-0.910400390625,-0.083282470703125
1768418368007533300,6.995533203125,0.5366363525390625,-0.8397674560546875,-0.0155181884765625
1768418368017534500,7.005534423828125,0.462982177734375,-0.9134674072265625,0.0867919921875
1768418368027535400,7.015535400390625,0.3978729248046875,-1.1280517578125,0.1666259765625
1768418368037536300,7.025536376953125,0.296630859375,-1.311981201171875,0.191162109375
1768418368047537400,7.035537353515625,0.206329345703125,-1.334075927734375,0.1471710205078125
1768418368057539600,7.04553955078125,0.1721954345703125,-1.232513427734375,0.0544586181640625
1768418368067540500,7.05554052734375,0.17889404296875,-1.1396636962890625,-0.08856201171875
1768418368077541400,7.065541259765625,0.1782684326171875,-1.10638427734375,-0.2029571533203125
1768418368087542500,7.07554248046875,0.1658935546875,-1.07818603515625,-0.240570068359375
1768418368097543400,7.08554345703125,0.1335601806640625,-1.0087432861328125,-0.2132720947265625
1768418368107545300,7.09554541015625,0.091766357421875,-0.922515869140625,-0.17919921875
1768418368117546200,7.105546142578125,0.05218505859375,-0.814666748046875,-0.17034912109375
1768418368127547400,7.11554736328125,0.0246124267578125,-0.7142791748046875,-0.15740966796875
1768418368137548500,7.125548583984375,0.02117919921875,-0.622955322265625,-0.1300506591796875
1768418368147549400,7.135549560546875,0.0326385498046875,-0.5436248779296875,-0.0959014892578125
1768418368157551600,7.145551513671875,0.0401153564453125,-0.4738006591796875,-0.0564422607421875
1768418368167552500,7.155552490234375,0.0588531494140625,-0.428466796875,-0.01861572265625
1768418368177553400,7.165553466796875,0.0800018310546875,-0.40826416015625,0.0334320068359375
1768418368187554300,7.17555419921875,0.1110076904296875,-0.4217681884765625,0.0861053466796875
1768418368197555200,7.18555517578125,0.1388702392578125,-0.461669921875,0.16351318359375
1768418368207557400,7.195557373046875,0.15228271484375,-0.519927978515625,0.236297607421875
1768418368217558300,7.205558349609375,0.1549835205078125,-0.5876312255859375,0.30499267578125
1768418368227559400,7.215559326171875,0.13592529296875,-0.6529998779296875,0.3568572998046875
1768418368237560600,7.225560546875,0.1135711669921875,-0.705718994140625,0.3882904052734375
1768418368247561500,7.2355615234375,0.0866546630859375,-0.7403106689453125,0.4041290283203125
1768418368257563400,7.2455634765625,0.054718017578125,-0.7550811767578125,0.3940277099609375
1768418368267564500,7.255564453125,0.0453643798828125,-0.7623138427734375,0.36279296875
1768418368277565400,7.2655654296875,0.04718017578125,-0.7700653076171875,0.308441162109375
1768418368287566300,7.27556640625,0.0563201904296875,-0.789031982421875,0.21917724609375
1768418368297567500,7.2855673828125,0.062347412109375,-0.8238067626953125,0.0941162109375
1768418368307569400,7.2955693359375,0.063995361328125,-0.8739471435546875,-0.0404510498046875
1768418368317570600,7.305570556640625,0.06182861328125,-0.9294891357421875,-0.1426849365234375
1768418368327571500,7.315571533203125,0.0536346435546875,-0.9826507568359375,-0.20166015625
1768418368337572400,7.325572265625,0.049041748046875,-1.027801513671875,-0.2181396484375
1768418368347573500,7.335573486328125,0.041290283203125,-1.0611114501953125,-0.1868438720703125
1768418368357575400,7.345575439453125,-0.0082855224609375,-1.0779266357421875,-0.106964111328125
1768418368367576300,7.355576416015625,-0.0997772216796875,-1.097259521484375,-0.004302978515625
1768418368377577200,7.3655771484375,-0.183380126953125,-1.1389923095703125,0.0680999755859375
1768418368387578400,7.375578369140625,-0.2261505126953125,-1.208099365234375,0.0869140625
1768418368397579500,7.38557958984375,-0.26123046875,-1.30401611328125,0.058990478515625
1768418368407581400,7.39558154296875,-0.3198394775390625,-1.3921051025390625,0.0157012939453125
1768418368417582600,7.40558251953125,-0.3509674072265625,-1.404541015625,-0.0124359130859375
1768418368427583500,7.41558349609375,-0.2806396484375,-1.2617950439453125,0.0435943603515625
1768418368437584400,7.42558447265625,-0.0105743408203125,-1.0395355224609375,0.163177490234375
1768418368447585300,7.435585205078125,0.436859130859375,-1.0054168701171875,0.2853546142578125
1768418368457587500,7.44558740234375,0.975616455078125,-1.1717681884765625,0.4281463623046875
1768418368467588400,7.45558837890625,1.3304595947265625,-1.4340972900390625,0.4391937255859375
1768418368477589200,7.46558935546875,1.193695068359375,-1.652557373046875,0.3125457763671875
1768418368487590400,7.47559033203125,0.9024200439453125,-1.7115478515625,0.198577880859375
1768418368497592600,7.485592529296875,0.61114501953125,-1.697052001953125,0.0363006591796875
1768418368507593500,7.495593505859375,0.445159912109375,-1.5062408447265625,-0.04779052734375
1768418368517594400,7.505594482421875,0.30975341796875,-1.141693115234375,-0.0823516845703125
1768418368527595500,7.515595458984375,0.1452178955078125,-0.93670654296875,-0.170806884765625
1768418368537596400,7.525596435546875,0.06463623046875,-0.960205078125,-0.2423858642578125
1768418368547598300,7.535598388671875,0.0635223388671875,-1.138092041015625,-0.27630615234375
1768418368557599200,7.54559912109375,0.100677490234375,-1.356658935546875,-0.2488861083984375
1768418368567600600,7.5556005859375,0.159912109375,-1.4970550537109375,-0.1272735595703125
1768418368577601800,7.565601806640625,0.1923370361328125,-1.5360870361328125,0.0145263671875
1768418368587602700,7.575602783203125,0.251007080078125,-1.498504638671875,0.1006317138671875
1768418368597604600,7.5856044921875,0.2964935302734375,-1.392059326171875,0.1136474609375
1768418368607605800,7.595605712890625,0.2854766845703125,-1.2305908203125,0.091064453125
1768418368617606700,7.605606689453125,0.23602294921875,-1.0532989501953125,0.05145263671875
1768418368627607600,7.615607666015625,0.182586669921875,-0.8764801025390625,-0.0065155029296875
1768418368637608400,7.6256083984375,0.1452178955078125,-0.71636962890625,-0.063934326171875
1768418368647610600,7.635610595703125,0.11810302734375,-0.58758544921875,-0.1062164306640625
1768418368657611500,7.645611572265625,0.1096954345703125,-0.4901123046875,-0.1207122802734375
1768418368667612700,7.65561279296875,0.0960235595703125,-0.4200286865234375,-0.1288299560546875
1768418368677613800,7.66561376953125,0.0793914794921875,-0.385955810546875,-0.112762451171875
1768418368687614700,7.67561474609375,0.063720703125,-0.39117431640625,-0.0908966064453125
1768418368697616600,7.68561669921875,0.0466156005859375,-0.422607421875,-0.088470458984375
1768418368707617500,7.695617431640625,0.0386505126953125,-0.4676971435546875,-0.0922393798828125
1768418368717618700,7.70561865234375,0.009185791015625,-0.5092926025390625,-0.11773681640625
1768418368727619600,7.71561962890625,-0.0023651123046875,-0.5399169921875,-0.13690185546875
1768418368737620500,7.725620361328125,-0.0287933349609375,-0.556549072265625,-0.1611328125
1768418368747622700,7.73562255859375,-0.0668487548828125,-0.558685302734375,-0.1631622314453125
1768418368757623600,7.74562353515625,-0.075927734375,-0.5672454833984375,-0.144866943359375
1768418368767624700,7.755624755859375,-0.069549560546875,-0.5773773193359375,-0.1252593994140625
1768418368777625600,7.76562548828125,-0.0675048828125,-0.5977783203125,-0.108428955078125
1768418368787626800,7.775626708984375,-0.090423583984375,-0.623504638671875,-0.094940185546875
1768418368797628700,7.785628662109375,-0.11822509765625,-0.655029296875,-0.0894012451171875
1768418368807629600,7.795629638671875,-0.1407012939453125,-0.70849609375,-0.0851898193359375
1768418368817630500,7.80563037109375,-0.155517578125,-0.7879180908203125,-0.075958251953125
1768418368827631600,7.815631591796875,-0.1562652587890625,-0.891845703125,-0.0566253662109375
1768418368837632800,7.8256328125,-0.119232177734375,-1.0064697265625,-0.041259765625
1768418368847634400,7.835634521484375,-0.0529022216796875,-1.1100311279296875,-0.022674560546875
1768418368857635800,7.8456357421875,0.0011444091796875,-1.1824798583984375,-0.01092529296875
1768418368867636700,7.85563671875,0.0168304443359375,-1.2488861083984375,-0.0249786376953125
1768418368877637600,7.8656376953125,-0.0455474853515625,-1.2999420166015625,-0.023468017578125
1768418368887638500,7.875638427734375,-0.21649169921875,-1.3357696533203125,0.0165252685546875
1768418368897640700,7.885640625,-0.43988037109375,-1.37469482421875,0.0619049072265625
1768418368907641600,7.8956416015625,-0.601715087890625,-1.4197540283203125,0.0750885009765625
1768418368917642500,7.905642578125,-0.6403961181640625,-1.4131011962890625,0.054962158203125
1768418368927643600,7.9156435546875,-0.5665283203125,-1.305419921875,0.005889892578125
1768418368937644800,7.925644775390625,-0.4234466552734375,-1.1139984130859375,-0.0395965576171875
1768418368947646700,7.935646728515625,-0.230224609375,-0.971588134765625,-0.0747528076171875
1768418368957647600,7.945647705078125,0.0482635498046875,-1.0191497802734375,-0.1404876708984375
1768418368967648500,7.9556484375,0.3773040771484375,-1.2755889892578125,-0.2059478759765625
1768418368977649700,7.965649658203125,0.57940673828125,-1.6036529541015625,-0.203369140625
1768418368987650600,7.975650634765625,0.467803955078125,-1.8310394287109375,-0.163421630859375
1768418368997652500,7.985652587890625,0.34600830078125,-1.9084625244140625,-0.2144317626953125
1768418369007653600,7.995653564453125,0.3905487060546875,-1.8093109130859375,-0.029541015625
1768418369017654800,8.00565478515625,0.355926513671875,-1.36126708984375,0.0344696044921875
1768418369027655700,8.01565576171875,0.428497314453125,-0.9258270263671875,0.06744384765625
1768418369037657900,8.025657958984375,0.4250030517578125,-0.75128173828125,0.110870361328125
1768418369047658800,8.03565869140625,0.3422393798828125,-0.7188873291015625,0.15069580078125
1768418369057659600,8.04565966796875,0.28375244140625,-0.8937225341796875,0.1949462890625
1768418369067660500,8.05566064453125,0.214813232421875,-1.2159881591796875,0.1695556640625
1768418369077661400,8.065661376953125,0.205718994140625,-1.41046142578125,0.104888916015625
1768418369087663600,8.07566357421875,0.2327423095703125,-1.42852783203125,0.029266357421875
1768418369097664500,8.08566455078125,0.22906494140625,-1.378204345703125,-0.06597900390625
1768418369107665700,8.095665771484375,0.212738037109375,-1.329193115234375,-0.1681976318359375
1768418369117666800,8.105666748046875,0.2005767822265625,-1.275115966796875,-0.216156005859375
1768418369127667700,8.115667724609375,0.20086669921875,-1.1925201416015625,-0.1896209716796875
1768418369137669600,8.125669677734376,0.1900634765625,-1.0819549560546875,-0.1368408203125
1768418369147670500,8.13567041015625,0.1651763916015625,-0.9532470703125,-0.0911865234375
1768418369157671700,8.145671630859376,0.113311767578125,-0.8081207275390625,-0.05267333984375
1768418369167672600,8.155672607421875,0.069793701171875,-0.6673126220703125,-0.034271240234375
1768418369177673500,8.165673583984375,0.0547943115234375,-0.5518341064453125,-0.027923583984375
1768418369187675600,8.175675537109376,0.055572509765625,-0.462982177734375,-0.03570556640625
1768418369197676500,8.185676513671876,0.07928466796875,-0.375335693359375,-0.02264404296875
1768418369207677700,8.195677734375,0.091461181640625,-0.3492431640625,-0.005859375
1768418369217678600,8.2056787109375,0.0895843505859375,-0.35845947265625,0.0335540771484375
1768418369227679700,8.2156796875,0.10772705078125,-0.3625335693359375,0.0813140869140625
1768418369237681700,8.225681640625,0.094390869140625,-0.4261322021484375,0.088287353515625
1768418369247682600,8.2356826171875,0.080047607421875,-0.4720458984375,0.1187896728515625
1768418369257683500,8.245683349609376,0.08990478515625,-0.5197296142578125,0.1589508056640625
1768418369267684600,8.2556845703125,0.064697265625,-0.59259033203125,0.139434814453125
1768418369277686500,8.2656865234375,0.0472259521484375,-0.6521148681640625,0.15802001953125
1768418369287687400,8.2756875,0.012115478515625,-0.710693359375,0.179412841796875
1768418369297688800,8.285688720703124,-0.00958251953125,-0.7490997314453125,0.212921142578125
1768418369307689700,8.295689697265624,-0.01849365234375,-0.77398681640625,0.241912841796875
1768418369317690600,8.305690673828124,-0.0241241455078125,-0.7903900146484375,0.255157470703125
1768418369327692500,8.315692626953124,0.0013580322265625,-0.82366943359375,0.2537384033203125
1768418369337693700,8.325693603515624,0.0221099853515625,-0.8849639892578125,0.2258148193359375
1768418369347694600,8.335694580078124,0.0251617431640625,-0.958343505859375,0.168243408203125
1768418369357695500,8.345695556640624,0.014190673828125,-1.03009033203125,0.097137451171875
1768418369367696600,8.355696533203124,-0.027374267578125,-1.0732421875,0.0334930419921875
1768418369377698600,8.365698486328125,-0.0566864013671875,-1.0858001708984375,-0.019500732421875
1768418369387699700,8.37569970703125,-0.04803466796875,-1.0763397216796875,-0.0452728271484375
1768418369397700600,8.38570068359375,-0.041595458984375,-1.05621337890625,-0.0170745849609375
1768418369407701800,8.39570166015625,-0.079925537109375,-1.039093017578125,0.0850067138671875
1768418369417702700,8.40570263671875,-0.1401824951171875,-1.0676727294921875,0.2212982177734375
1768418369427704600,8.41570458984375,-0.2218017578125,-1.1605987548828125,0.2970428466796875
1768418369437705500,8.42570556640625,-0.3193206787109375,-1.2880859375,0.2920379638671875
1768418369447706600,8.43570654296875,-0.34979248046875,-1.3916168212890625,0.230255126953125
1768418369457707500,8.44570751953125,-0.2607879638671875,-1.3597259521484375,0.1456756591796875
1768418369467709400,8.45570947265625,-0.0522308349609375,-1.0926055908203125,0.106689453125
1768418369477710800,8.4657109375,0.3237457275390625,-0.8985137939453125,0.0397186279296875
1768418369487711700,8.475711669921875,0.7682647705078125,-1.0367584228515625,-0.043487548828125
1768418369497712600,8.485712646484375,0.9268798828125,-1.384552001953125,0.0504608154296875
1768418369507713500,8.495713623046875,0.8336334228515625,-1.6786956787109375,0.119537353515625
1768418369517715700,8.5057158203125,0.7349853515625,-1.8505401611328125,0.090362548828125
1768418369527716600,8.515716552734375,0.678070068359375,-1.8921966552734375,0.01995849609375
1768418369537717500,8.525717529296875,0.6178741455078125,-1.7555999755859375,-0.0291595458984375
1768418369547718400,8.535718505859375,0.5442962646484375,-1.4580535888671875,-0.0521697998046875
1768418369557720600,8.545720458984375,0.3631591796875,-1.2792816162109375,-0.23394775390625
1768418369567721700,8.5557216796875,0.20697021484375,-1.203643798828125,-0.40191650390625
1768418369577723100,8.56572314453125,0.09625244140625,-1.1927490234375,-0.4441070556640625
1768418369587724000,8.57572412109375,0.03564453125,-1.22283935546875,-0.371826171875
1768418369597725000,8.585724853515625,0.0711212158203125,-1.2523345947265625,-0.1870880126953125
1768418369607726800,8.595726806640625,0.13970947265625,-1.3065948486328125,-0.01409912109375
1768418369617728000,8.60572802734375,0.1927032470703125,-1.3366851806640625,0.0872039794921875
1768418369627729000,8.61572900390625,0.2192840576171875,-1.319244384765625,0.1527557373046875
1768418369637729800,8.625729736328125,0.2061614990234375,-1.2658538818359375,0.1591644287109375
1768418369647731000,8.63573095703125,0.18011474609375,-1.15826416015625,0.1305999755859375
1768418369657732900,8.64573291015625,0.1587982177734375,-1.0025634765625,0.09149169921875
1768418369667734000,8.655734130859376,0.1352386474609375,-0.8369903564453125,0.039154052734375
1768418369677735000,8.66573486328125,0.1180572509765625,-0.6748046875,-0.0052947998046875
1768418369687736000,8.675736083984376,0.1014556884765625,-0.5163116455078125,-0.0323028564453125
1768418369697738000,8.685738037109376,0.0852508544921875,-0.408111572265625,-0.0637969970703125
1768418369707739000,8.69573876953125,0.060089111328125,-0.3179473876953125,-0.0779571533203125
1768418369717739800,8.70573974609375,0.0288848876953125,-0.256683349609375,-0.09814453125
1768418369727741000,8.715740966796876,-0.00152587890625,-0.247650146484375,-0.1319427490234375
1768418369737741800,8.725741943359376,-0.0109405517578125,-0.2807159423828125,-0.152435302734375
1768418369747743700,8.73574365234375,-0.0328826904296875,-0.3450469970703125,-0.171478271484375
1768418369757745200,8.7457451171875,-0.0573883056640625,-0.42425537109375,-0.1928253173828125
1768418369767746000,8.75574609375,-0.07110595703125,-0.5104522705078125,-0.21063232421875
1768418369777747000,8.765746826171876,-0.07867431640625,-0.5983428955078125,-0.2141265869140625
1768418369787748900,8.775748779296874,-0.0840606689453125,-0.6904296875,-0.19500732421875
1768418369797750000,8.78575,-0.0879669189453125,-0.779205322265625,-0.1601409912109375
1768418369807751000,8.7957509765625,-0.0952301025390625,-0.8570709228515625,-0.1399688720703125
1768418369817751800,8.805751708984374,-0.10369873046875,-0.9006195068359375,-0.1236724853515625
1768418369827752700,8.815752685546874,-0.1201019287109375,-0.91485595703125,-0.10211181640625
1768418369837755000,8.8257548828125,-0.134796142578125,-0.9248809814453125,-0.0712127685546875
1768418369847756000,8.835756103515624,-0.1253509521484375,-0.9389495849609375,-0.050537109375
1768418369857757000,8.8457568359375,-0.1259765625,-0.957061767578125,-0.0330963134765625
1768418369867758000,8.855758056640624,-0.1493682861328125,-0.9815521240234375,-0.0139007568359375
1768418369877759000,8.865759033203124,-0.1651611328125,-1.003265380859375,0.0214080810546875
1768418369887761000,8.875760986328125,-0.1555633544921875,-1.0134735107421875,0.076446533203125
1768418369897761800,8.88576171875,-0.1087799072265625,-1.0196533203125,0.1185455322265625
1768418369907763000,8.895762939453125,-0.0472564697265625,-1.0316009521484375,0.14892578125
1768418369917763800,8.905763916015625,-0.0823974609375,-1.0505828857421875,0.1682586669921875
1768418369927765800,8.915765869140625,-0.2899017333984375,-1.092010498046875,0.1723480224609375
1768418369937767000,8.925766845703125,-0.519287109375,-1.176422119140625,0.143310546875
1768418369947768000,8.93576806640625,-0.5782470703125,-1.28717041015625,0.0920867919921875
1768418369957769000,8.94576904296875,-0.5001068115234375,-1.34423828125,0.0464630126953125
1768418369967769900,8.955769775390625,-0.41448974609375,-1.3009033203125,-0.0078125
1768418369977772000,8.96577197265625,-0.3639068603515625,-1.1776885986328125,-0.069244384765625
1768418369987773000,8.97577294921875,-0.3009490966796875,-1.0478973388671875,-0.1331329345703125
1768418369997773800,8.98577392578125,-0.0901031494140625,-1.04034423828125,-0.245697021484375
1768418370007774700,8.995774658203125,0.1562347412109375,-1.2632293701171875,-0.350494384765625
1768418370017776000,9.005776123046875,0.3716888427734375,-1.5406646728515625,-0.37298583984375
1768418370027777800,9.01577783203125,0.564208984375,-1.70941162109375,-0.3316192626953125
1768418370037779000,9.025779052734375,0.5142059326171875,-1.7628021240234375,-0.5902252197265625
1768418370047779800,9.03577978515625,0.7374267578125,-1.7669219970703125,-0.4634857177734375
1768418370057781000,9.045781005859375,0.5361328125,-1.5852813720703125,-0.156463623046875
1768418370067783000,9.055782958984375,0.2542266845703125,-1.33111572265625,0.0115509033203125
1768418370077783800,9.06578369140625,0.167327880859375,-1.0233306884765625,0.141815185546875
1768418370087785000,9.075784912109375,0.1851043701171875,-0.821685791015625,0.2034759521484375
1768418370097785900,9.085785888671875,0.1875457763671875,-0.7751922607421875,0.2044830322265625
1768418370107787000,9.095787109375,0.1476287841796875,-0.9000396728515625,0.172271728515625
1768418370117789000,9.105788818359375,0.0786590576171875,-1.1056671142578125,0.1162872314453125
1768418370127790000,9.1157900390625,0.03759765625,-1.236785888671875,0.0370635986328125
1768418370137791000,9.125791015625,0.0598602294921875,-1.2713623046875,-0.081634521484375
1768418370147792000,9.1357919921875,0.0934295654296875,-1.2669219970703125,-0.2040557861328125
1768418370157792800,9.145792724609375,0.177215576171875,-1.2760162353515625,-0.28515625
1768418370167795000,9.155794921875,0.2503662109375,-1.258209228515625,-0.2906951904296875
1768418370177795800,9.1657958984375,0.2370758056640625,-1.1483917236328125,-0.2212677001953125
1768418370187796700,9.175796630859375,0.15960693359375,-0.9827117919921875,-0.120635986328125
1768418370197798000,9.1857978515625,0.06719970703125,-0.8226776123046875,-0.0393218994140625
1768418370207799800,9.1957998046875,0.0064544677734375,-0.6813507080078125,-0.005889892578125
1768418370217801000,9.205801025390626,-0.0037841796875,-0.5506591796875,0.002410888671875
1768418370227801900,9.2158017578125,-0.0052337646484375,-0.437164306640625,0.003875732421875
1768418370237803000,9.225802978515626,-0.0047454833984375,-0.352294921875,-0.00457763671875
1768418370247804000,9.235803955078126,0.0214385986328125,-0.30987548828125,-0.0124664306640625
1768418370257805800,9.245805908203126,0.0456390380859375,-0.3172760009765625,-0.028045654296875
1768418370267807000,9.255806884765626,0.051422119140625,-0.3747711181640625,-0.05462646484375
1768418370277807900,9.265807861328126,0.0525970458984375,-0.4705963134765625,-0.0434722900390625
1768418370287808800,9.275808837890626,0.057525634765625,-0.57305908203125,0.0228118896484375
1768418370297811000,9.28581103515625,0.0789794921875,-0.658905029296875,0.11859130859375
1768418370307812000,9.29581201171875,0.082672119140625,-0.730926513671875,0.2009429931640625
1768418370317813000,9.30581298828125,0.05670166015625,-0.769683837890625,0.2764892578125
1768418370327814000,9.31581396484375,0.0434722900390625,-0.7842864990234375,0.3499298095703125
1768418370337814800,9.325814697265624,0.0135040283203125,-0.7894439697265625,0.3721923828125
1768418370347817000,9.33581689453125,0.0084228515625,-0.7961578369140625,0.3834228515625
1768418370357817900,9.34581787109375,0.02691650390625,-0.8210601806640625,0.382537841796875
1768418370367818800,9.35581884765625,0.0502777099609375,-0.864959716796875,0.3703155517578125
1768418370377820000,9.36581982421875,0.0704498291015625,-0.9176483154296875,0.3285064697265625
1768418370387821000,9.375821044921874,0.0934906005859375,-0.9744720458984375,0.258056640625
1768418370397823000,9.385822998046875,0.1181488037109375,-1.0236053466796875,0.1764373779296875
1768418370407824000,9.395823974609375,0.1271209716796875,-1.057281494140625,0.0891876220703125
1768418370417825000,9.405824951171875,0.119964599609375,-1.057830810546875,0.0131072998046875
1768418370427826000,9.415825927734375,0.069183349609375,-1.039520263671875,-0.049713134765625
1768418370437827800,9.425827880859375,-0.0433197021484375,-1.0264129638671875,-0.0481719970703125
1768418370447829000,9.4358291015625,-0.1795196533203125,-1.053924560546875,0.006683349609375
1768418370457830000,9.445829833984375,-0.2768707275390625,-1.1578216552734375,0.0131378173828125
1768418370467830800,9.455830810546875,-0.327362060546875,-1.3187408447265625,-0.026214599609375
1768418370477832000,9.46583203125,-0.3545989990234375,-1.4491424560546875,-0.0836029052734375
1768418370487833900,9.475833740234375,-0.354034423828125,-1.4115753173828125,-0.118865966796875
1768418370497835000,9.4858349609375,-0.2622833251953125,-1.1796875,-0.12713623046875
1768418370507836000,9.4958359375,-0.0415496826171875,-1.002471923828125,-0.1241607666015625
1768418370517836800,9.5058369140625,0.2881927490234375,-1.051483154296875,-0.0930023193359375
1768418370527839000,9.5158388671875,0.684600830078125,-1.27557373046875,0.0576019287109375
1768418370537839900,9.52583984375,0.9901580810546875,-1.561737060546875,0.19671630859375
1768418370547840800,9.5358408203125,0.984893798828125,-1.761383056640625,0.305877685546875
1768418370557842000,9.545842041015625,0.7671966552734375,-1.7956085205078125,0.343475341796875
1768418370567842800,9.5558427734375,0.5406494140625,-1.6756591796875,0.232025146484375
1768418370577844700,9.5658447265625,0.371063232421875,-1.4417724609375,0.0724029541015625
1768418370587846000,9.575845947265625,0.31524658203125,-1.1618499755859375,-0.0274810791015625
1768418370597846800,9.5858466796875,0.22161865234375,-0.96612548828125,-0.16986083984375
1768418370607847700,9.59584765625,0.06451416015625,-0.88116455078125,-0.3010101318359375
1768418370617848600,9.6058486328125,-0.060577392578125,-0.91265869140625,-0.3447265625
1768418370627850800,9.615850830078125,-0.0911865234375,-1.0586395263671875,-0.291290283203125
1768418370637851600,9.6258515625,-0.0220947265625,-1.2405242919921875,-0.16619873046875
1768418370647852500,9.6358525390625,0.087677001953125,-1.3632965087890625,-0.0192413330078125
1768418370657854000,9.64585400390625,0.18341064453125,-1.40667724609375,0.09521484375
1768418370667855600,9.655855712890625,0.2520294189453125,-1.3650054931640625,0.1821441650390625
1768418370677856800,9.665856689453125,0.2799835205078125,-1.2557373046875,0.1908416748046875
1768418370687858000,9.67585791015625,0.2574005126953125,-1.1082305908203125,0.1207122802734375
1768418370697858800,9.68585888671875,0.2137908935546875,-0.90911865234375,0.03692626953125
1768418370707859700,9.695859619140625,0.1590423583984375,-0.72308349609375,-0.0572357177734375
1768418370717861600,9.705861572265626,0.092071533203125,-0.5756378173828125,-0.0991668701171875
1768418370727862800,9.71586279296875,0.0215301513671875,-0.442108154296875,-0.110595703125
1768418370737863700,9.72586376953125,-0.0006561279296875,-0.330780029296875,-0.1136016845703125
1768418370747864800,9.73586474609375,0.0131072998046875,-0.269317626953125,-0.1193084716796875
1768418370757866800,9.74586669921875,0.0410308837890625,-0.260284423828125,-0.092803955078125
1768418370767868000,9.755867919921876,0.0055694580078125,-0.2879638671875,-0.0732269287109375
1768418370777868800,9.765868896484376,-0.0223541259765625,-0.3262176513671875,-0.0816192626953125
1768418370787869700,9.77586962890625,-0.0090789794921875,-0.407745361328125,-0.1083831787109375
1768418370797870600,9.78587060546875,-0.0098724365234375,-0.537261962890625,-0.170867919921875
1768418370807872800,9.795872802734374,-0.018951416015625,-0.667755126953125,-0.2309722900390625
1768418370817873700,9.805873779296874,-0.0480194091796875,-0.7485198974609375,-0.2466583251953125
1768418370827874600,9.81587451171875,-0.0593719482421875,-0.7855987548828125,-0.2059783935546875
1768418370837876000,9.8258759765625,-0.0883941650390625,-0.8106231689453125,-0.1616973876953125
1768418370847877600,9.835877685546874,-0.11053466796875,-0.8202362060546875,-0.117706298828125
1768418370857878800,9.845878662109374,-0.1147613525390625,-0.82940673828125,-0.0831146240234375
1768418370867880000,9.8558798828125,-0.10980224609375,-0.85455322265625,-0.067169189453125
1768418370877880800,9.865880859375,-0.11492919921875,-0.8858642578125,-0.050506591796875
1768418370887881700,9.8758818359375,-0.1578369140625,-0.9221038818359375,-0.0121307373046875
1768418370897883600,9.885883544921874,-0.205657958984375,-0.9636993408203125,0.0390472412109375
1768418370907884800,9.895884765625,-0.2008209228515625,-1.017547607421875,0.0825042724609375
1768418370917885700,9.9058857421875,-0.12689208984375,-1.09613037109375,0.1070404052734375
1768418370927886800,9.915886962890625,-0.0231781005859375,-1.1853485107421875,0.1220550537109375
1768418370937888800,9.925888671875,0.0259857177734375,-1.2328033447265625,0.1264190673828125
1768418370947890000,9.935889892578125,-0.0258941650390625,-1.23187255859375,0.11627197265625
1768418370957890800,9.945890869140625,-0.19189453125,-1.2523193359375,0.0634613037109375
1768418370967891700,9.9558916015625,-0.4081268310546875,-1.3343048095703125,-0.007965087890625
1768418370977892600,9.965892578125,-0.5220794677734375,-1.4399566650390625,-0.0233917236328125
1768418370987894800,9.975894775390625,-0.6182098388671875,-1.43194580078125,-0.097747802734375
1768418370997895700,9.985895751953125,-0.5141143798828125,-1.296875,-0.233673095703125
1768418371007896600,9.995896484375,-0.141998291015625,-1.126739501953125,-0.238800048828125
1768418371017897700,10.005897705078125,0.2087860107421875,-1.140869140625,-0.1966400146484375
1768418371027899600,10.015899658203125,0.5109100341796875,-1.4066314697265625,-0.200714111328125
1768418371037900800,10.02590087890625,0.5341033935546875,-1.7047882080078125,-0.1982574462890625
1768418371047902000,10.03590185546875,0.3892974853515625,-1.816558837890625,-0.207855224609375
1768418371057902800,10.04590283203125,0.3471832275390625,-1.746002197265625,-0.2574615478515625
1768418371067904800,10.05590478515625,0.39385986328125,-1.588134765625,-0.208587646484375
1768418371077905700,10.06590576171875,0.5164031982421875,-1.3477935791015625,-0.1356964111328125
1768418371087906800,10.07590673828125,0.60009765625,-1.1211395263671875,-0.0813140869140625
1768418371097907700,10.08590771484375,0.5463409423828125,-0.9729461669921875,0.0037994384765625
1768418371107908600,10.09590869140625,0.432769775390625,-0.9281158447265625,0.1240692138671875
1768418371117910800,10.105910888671875,0.34527587890625,-1.0362701416015625,0.2156524658203125
1768418371127911700,10.11591162109375,0.3059844970703125,-1.1938629150390625,0.2028961181640625
1768418371137912800,10.125912841796875,0.3231201171875,-1.2681732177734375,0.1282196044921875
1768418371147913700,10.135913818359375,0.3080291748046875,-1.257293701171875,0.023284912109375
1768418371157916000,10.145916015625,0.254119873046875,-1.1930694580078125,-0.091522216796875
1768418371167916800,10.155916748046875,0.2133331298828125,-1.1368560791015625,-0.1739044189453125
1768418371177917700,10.165917724609375,0.213470458984375,-1.09814453125,-0.1959228515625
1768418371187918600,10.175918701171875,0.223175048828125,-1.039215087890625,-0.1722259521484375
1768418371197920800,10.185920654296876,0.204833984375,-0.9633636474609375,-0.1383056640625
1768418371207921700,10.195921630859376,0.17694091796875,-0.870208740234375,-0.1232452392578125
1768418371217922600,10.205922607421876,0.1432647705078125,-0.7618255615234375,-0.1185150146484375
1768418371227923700,10.215923828125,0.102294921875,-0.6552581787109375,-0.10528564453125
1768418371237924900,10.2259248046875,0.0654144287109375,-0.5454864501953125,-0.0977783203125
1768418371247926800,10.2359267578125,0.05230712890625,-0.4469451904296875,-0.0882110595703125
1768418371257927700,10.245927734375,0.0652923583984375,-0.3816986083984375,-0.0699310302734375
1768418371267928800,10.2559287109375,0.08447265625,-0.352874755859375,-0.0483856201171875
1768418371277929700,10.2659296875,0.1172332763671875,-0.3542022705078125,-0.0006866455078125
1768418371287931600,10.275931640625,0.1437835693359375,-0.388946533203125,0.0688018798828125
1768418371297932800,10.285932861328124,0.15362548828125,-0.4489593505859375,0.1292572021484375
1768418371307933700,10.29593359375,0.1547698974609375,-0.53057861328125,0.1943817138671875
1768418371317934800,10.305934814453124,0.1476287841796875,-0.605377197265625,0.245941162109375
1768418371327936800,10.315936767578124,0.127471923828125,-0.6710968017578125,0.26873779296875
1768418371337938000,10.32593798828125,0.0886688232421875,-0.72564697265625,0.2634124755859375
1768418371347938800,10.335938720703124,0.0431060791015625,-0.7562713623046875,0.251678466796875
1768418371357939700,10.345939697265624,-0.0039215087890625,-0.767181396484375,0.2471466064453125
1768418371367942000,10.35594189453125,-0.019775390625,-0.7796783447265625,0.253814697265625
1768418371377942800,10.36594287109375,-0.01324462890625,-0.802154541015625,0.2667083740234375
1768418371387943700,10.375943603515625,0.0212554931640625,-0.844879150390625,0.2730255126953125
1768418371397944600,10.385944580078124,0.059783935546875,-0.9148712158203125,0.2563934326171875
1768418371407945700,10.39594580078125,0.0863189697265625,-1.0059661865234375,0.2024383544921875
1768418371417947600,10.40594775390625,0.076080322265625,-1.0898284912109375,0.1271209716796875
1768418371427948800,10.41594873046875,0.034332275390625,-1.1370697021484375,0.0451812744140625
1768418371437949700,10.42594970703125,0.0038604736328125,-1.1566162109375,-0.0348358154296875
1768418371447950800,10.435950927734375,0.003326416015625,-1.15069580078125,-0.0937957763671875
1768418371457952800,10.445952880859375,-0.0361785888671875,-1.1367340087890625,-0.0977325439453125
1768418371467953700,10.45595361328125,-0.124847412109375,-1.1342315673828125,-0.0376129150390625
1768418371477954800,10.465954833984375,-0.201141357421875,-1.157806396484375,0.0643310546875
1768418371487955700,10.475955810546875,-0.2554473876953125,-1.228363037109375,0.1414031982421875
1768418371497957600,10.48595751953125,-0.2975921630859375,-1.3072967529296875,0.161956787109375
1768418371507958500,10.49595849609375,-0.3161773681640625,-1.331634521484375,0.1319427490234375
1768418371517960000,10.5059599609375,-0.2289276123046875,-1.1508941650390625,0.1064453125
1768418371527960800,10.5159609375,-0.008880615234375,-0.887420654296875,0.0659637451171875
1768418371537962800,10.525962646484375,0.378753662109375,-0.8213348388671875,-0.0143890380859375
1768418371547964000,10.5359638671875,0.8765869140625,-1.0154876708984375,-0.03656005859375
1768418371557964800,10.54596484375,1.172119140625,-1.3755340576171875,-0.0191192626953125
1768418371567965400,10.55596533203125,1.0723114013671875,-1.6658935546875,-0.0257415771484375
1768418371577967600,10.565967529296875,0.7557525634765625,-1.771575927734375,-0.047760009765625
1768418371587968500,10.575968505859375,0.446624755859375,-1.7400970458984375,-0.1209869384765625
1768418371597969400,10.585969482421875,0.348602294921875,-1.5435943603515625,-0.0964813232421875
1768418371607970800,10.595970703125,0.372894287109375,-1.2448272705078125,0.0093536376953125
1768418371617972700,10.60597265625,0.28814697265625,-1.1386260986328125,-0.0183563232421875
1768418371627973600,10.6159736328125,0.19122314453125,-1.127532958984375,-0.0469207763671875
1768418371637974800,10.625974853515626,0.1130523681640625,-1.2475433349609375,-0.07659912109375
1768418371647975700,10.6359755859375,0.1303253173828125,-1.3974151611328125,-0.0639495849609375
1768418371657977600,10.6459775390625,0.2288055419921875,-1.489501953125,-0.0140838623046875
1768418371667978500,10.655978515625,0.2705078125,-1.497528076171875,0.024200439453125
1768418371677979600,10.665979736328126,0.2726287841796875,-1.4068450927734375,0.0490264892578125
1768418371687980500,10.67598046875,0.259490966796875,-1.247802734375,0.0482940673828125
1768418371697982500,10.685982421875,0.21063232421875,-1.0959014892578125,0.040985107421875
1768418371707983600,10.695983642578126,0.1721649169921875,-0.9489898681640625,0.037139892578125
1768418371717984800,10.70598486328125,0.1371307373046875,-0.7917022705078125,-0.0074920654296875
1768418371727985700,10.715985595703126,0.109344482421875,-0.6425018310546875,-0.068634033203125
1768418371737986600,10.725986572265626,0.0855865478515625,-0.5062103271484375,-0.1161041259765625
1768418371747988700,10.73598876953125,0.05242919921875,-0.3901214599609375,-0.159149169921875
1768418371757989600,10.74598974609375,0.034698486328125,-0.3072052001953125,-0.1707611083984375
1768418371767990500,10.755990478515624,0.044525146484375,-0.2758026123046875,-0.1490631103515625
1768418371777991400,10.765991455078124,0.0529632568359375,-0.2807464599609375,-0.095916748046875
1768418371787993600,10.77599365234375,0.0567779541015625,-0.3160400390625,-0.063140869140625
1768418371797994500,10.785994384765624,0.0482177734375,-0.3909149169921875,-0.0740509033203125
1768418371807995600,10.79599560546875,0.071533203125,-0.4638671875,-0.084136962890625
1768418371817996800,10.805996826171874,0.075958251953125,-0.5265960693359375,-0.1043243408203125
1768418371827998700,10.815998779296875,0.0476531982421875,-0.58837890625,-0.11370849609375
1768418371837999600,10.82599951171875,0.0111236572265625,-0.633819580078125,-0.1161041259765625
1768418371848000500,10.83600048828125,-0.0106048583984375,-0.653656005859375,-0.115509033203125
1768418371858001700,10.846001708984375,-0.0160980224609375,-0.664947509765625,-0.1100006103515625
1768418371868003600,10.856003662109375,-0.0196533203125,-0.6753692626953125,-0.1057586669921875
1768418371878004500,10.86600439453125,-0.03350830078125,-0.7164154052734375,-0.114990234375
1768418371888005600,10.876005615234375,-0.061309814453125,-0.7831573486328125,-0.126495361328125
1768418371898006800,10.8860068359375,-0.1015472412109375,-0.8578643798828125,-0.1053314208984375
1768418371908008400,10.896008544921875,-0.1507720947265625,-0.953277587890625,-0.05902099609375
1768418371918009600,10.906009521484375,-0.183074951171875,-1.056243896484375,-0.0103302001953125
1768418371928010800,10.9160107421875,-0.1401824951171875,-1.1539764404296875,0.035003662109375
1768418371938011600,10.92601171875,-0.04736328125,-1.22943115234375,0.0628814697265625
1768418371948013600,10.936013671875,0.0192108154296875,-1.255462646484375,0.0727081298828125
1768418371958014700,10.9460146484375,-0.00616455078125,-1.247039794921875,0.082183837890625
1768418371968015600,10.956015625,-0.1154632568359375,-1.258209228515625,0.10260009765625
1768418371978016500,10.9660166015625,-0.28143310546875,-1.31793212890625,0.1380462646484375
1768418371988018400,10.976018310546875,-0.430084228515625,-1.4296112060546875,0.1702880859375
1768418371998019600,10.98601953125,-0.501068115234375,-1.49072265625,0.1780548095703125
1768418372008020700,10.996020751953125,-0.4708251953125,-1.4050445556640625,0.1353759765625
1768418372018021600,11.006021728515625,-0.33746337890625,-1.171539306640625,0.0182037353515625
1768418372028023800,11.01602392578125,-0.187286376953125,-1.01275634765625,-0.0815582275390625
1768418372038024700,11.026024658203125,-0.0024566650390625,-1.0815887451171875,-0.1287384033203125
1768418372048025600,11.036025634765625,0.2646484375,-1.3315887451171875,-0.2251129150390625
1768418372058026500,11.046026611328125,0.450958251953125,-1.59375,-0.3112335205078125
1768418372068028700,11.056028564453126,0.5394439697265625,-1.7391204833984375,-0.3723907470703125
1768418372078029600,11.066029541015626,0.6247711181640625,-1.701446533203125,-0.32379150390625
1768418372088030500,11.076030517578126,0.545867919921875,-1.563812255859375,-0.1923828125
1768418372098031600,11.086031494140625,0.374053955078125,-1.4227142333984375,-0.2904052734375
1768418372108033500,11.096033447265626,0.5750885009765625,-1.166473388671875,-0.1278228759765625
1768418372118034700,11.10603466796875,0.5044097900390625,-0.9499664306640625,-0.01776123046875
1768418372128035600,11.11603564453125,0.413360595703125,-0.8595733642578125,0.08056640625
1768418372138037800,11.126037841796874,0.337982177734375,-0.939788818359375,0.2035980224609375
1768418372148038700,11.13603857421875,0.2631683349609375,-1.1467742919921875,0.2413177490234375
1768418372158039600,11.14603955078125,0.26312255859375,-1.2808837890625,0.1875152587890625
1768418372168040400,11.15604052734375,0.27618408203125,-1.2928619384765625,0.0791473388671875
1768418372178042600,11.166042724609374,0.22515869140625,-1.2266387939453125,-0.0650634765625
1768418372188043500,11.17604345703125,0.183746337890625,-1.172210693359375,-0.196807861328125
1768418372198044400,11.18604443359375,0.1890411376953125,-1.153472900390625,-0.271697998046875
1768418372208045800,11.1960458984375,0.199981689453125,-1.11016845703125,-0.267303466796875
1768418372218047700,11.2060478515625,0.1794586181640625,-1.03009033203125,-0.21612548828125
1768418372228048600,11.216048583984374,0.1393585205078125,-0.9305419921875,-0.1634674072265625
1768418372238049500,11.226049560546874,0.094879150390625,-0.8033294677734375,-0.1173248291015625
1768418372248050700,11.23605078125,0.059051513671875,-0.6891021728515625,-0.0877685546875
1768418372258052600,11.246052490234375,0.0428314208984375,-0.595367431640625,-0.0626373291015625
1768418372268053500,11.256053466796875,0.04119873046875,-0.5079803466796875,-0.040802001953125
1768418372278054700,11.2660546875,0.04693603515625,-0.429962158203125,-0.0257415771484375
1768418372288055600,11.2760556640625,0.066619873046875,-0.3758087158203125,0.0123291015625
1768418372298057500,11.286057373046875,0.086578369140625,-0.36956787109375,0.0604400634765625
1768418372308058600,11.29605859375,0.116790771484375,-0.3988494873046875,0.108978271484375
1768418372318059800,11.306059814453125,0.1238250732421875,-0.4434661865234375,0.1512603759765625
1768418372328060700,11.316060791015625,0.1295166015625,-0.4957275390625,0.162933349609375
1768418372338062600,11.3260625,0.1375579833984375,-0.5511932373046875,0.178314208984375
1768418372348063700,11.336063720703125,0.15606689453125,-0.612579345703125,0.2105712890625
1768418372358064600,11.346064697265625,0.1551361083984375,-0.67022705078125,0.22857666015625
1768418372368065500,11.3560654296875,0.1257781982421875,-0.7188262939453125,0.23406982421875
1768418372378067700,11.366067626953125,0.0968017578125,-0.7469940185546875,0.2428131103515625
1768418372388068600,11.376068603515625,0.0614471435546875,-0.758056640625,0.246429443359375
1768418372398069500,11.386069580078125,0.0325164794921875,-0.776397705078125,0.2364959716796875
1768418372408071400,11.396071533203125,0.01068115234375,-0.81072998046875,0.2191925048828125
1768418372418072600,11.406072509765625,-0.009613037109375,-0.8587799072265625,0.1842041015625
1768418372428073700,11.41607373046875,-0.0222015380859375,-0.930084228515625,0.14019775390625
1768418372438074600,11.42607470703125,-0.019500732421875,-1.0117340087890625,0.0918426513671875
1768418372448076800,11.436076904296876,-0.0135498046875,-1.074676513671875,0.042755126953125
1768418372458077700,11.44607763671875,-0.0082855224609375,-1.1025390625,0.0084228515625
1768418372468078600,11.45607861328125,0.018280029296875,-1.0943603515625,0.00628662109375
1768418372478079500,11.46607958984375,0.0145721435546875,-1.0780792236328125,0.041778564453125
1768418372488081700,11.47608154296875,-0.0767364501953125,-1.0787353515625,0.0999755859375
1768418372498082600,11.48608251953125,-0.1848297119140625,-1.1103515625,0.175567626953125
1768418372508083500,11.49608349609375,-0.2290802001953125,-1.1888580322265625,0.2236175537109375
1768418372518084600,11.506084716796876,-0.2456512451171875,-1.3016815185546875,0.2321624755859375
1768418372528086800,11.516086669921876,-0.26300048828125,-1.3863677978515625,0.191009521484375
1768418372538087700,11.526087646484376,-0.2529144287109375,-1.3413238525390625,0.102264404296875
1768418372548088600,11.536088623046876,-0.0767974853515625,-1.1074981689453125,0.0193939208984375
1768418372558089700,11.54608984375,0.32208251953125,-0.96649169921875,-0.088409423828125
1768418372568092000,11.556091796875,0.82513427734375,-1.1231536865234375,-0.149993896484375
1768418372578092800,11.5660927734375,1.0690765380859375,-1.47003173828125,-0.04669189453125
1768418372588093700,11.57609375,0.8851470947265625,-1.7525482177734375,0.052947998046875
1768418372598095600,11.586095703125,0.60577392578125,-1.8372344970703125,0.0604248046875
1768418372608096800,11.5960966796875,0.517059326171875,-1.759521484375,-0.0446929931640625
1768418372618097700,11.60609765625,0.570068359375,-1.5241546630859375,-0.1076202392578125
1768418372628098800,11.616098876953124,0.5490570068359375,-1.2251739501953125,-0.070587158203125
1768418372638100700,11.626100830078125,0.38623046875,-1.0654296875,-0.139129638671875
1768418372648102000,11.636101806640625,0.2035369873046875,-1.04156494140625,-0.26361083984375
1768418372658102800,11.646102783203125,0.0809783935546875,-1.1447296142578125,-0.3453216552734375
1768418372668103700,11.656103759765625,0.0654296875,-1.304412841796875,-0.2902679443359375
1768418372678105900,11.66610595703125,0.1352386474609375,-1.433746337890625,-0.124114990234375
1768418372688106800,11.676106689453125,0.177459716796875,-1.485504150390625,0.0305023193359375
1768418372698107600,11.686107666015625,0.185333251953125,-1.4421844482421875,0.1512908935546875
1768418372708109800,11.69610986328125,0.2047271728515625,-1.3385772705078125,0.2062835693359375
1768418372718110700,11.70611083984375,0.2224578857421875,-1.2213897705078125,0.18243408203125
1768418372728111600,11.716111572265625,0.2205047607421875,-1.07623291015625,0.1368255615234375
1768418372738112800,11.72611279296875,0.1978759765625,-0.9119415283203125,0.0907440185546875
1768418372748115000,11.736114990234375,0.14202880859375,-0.749420166015625,0.02593994140625
1768418372758115800,11.74611572265625,0.0829315185546875,-0.598052978515625,-0.0367431640625
1768418372768116700,11.75611669921875,0.058563232421875,-0.4808807373046875,-0.086090087890625
1768418372778117600,11.76611767578125,0.060089111328125,-0.37994384765625,-0.1208038330078125
1768418372788119800,11.776119873046875,0.0533294677734375,-0.3184051513671875,-0.1334228515625
1768418372798120700,11.78612060546875,0.0230255126953125,-0.292724609375,-0.1601715087890625
1768418372808121600,11.79612158203125,0.0123443603515625,-0.303375244140625,-0.1928863525390625
1768418372818123800,11.806123779296875,0.0154266357421875,-0.3365020751953125,-0.21563720703125
1768418372828124700,11.816124755859375,0.0173187255859375,-0.388641357421875,-0.2362823486328125
1768418372838125800,11.826125732421875,0.009674072265625,-0.457855224609375,-0.2534027099609375
1768418372848126700,11.836126708984375,0.0083465576171875,-0.5222015380859375,-0.24639892578125
1768418372858129000,11.84612890625,-0.0009307861328125,-0.5868072509765625,-0.2123260498046875
1768418372868129800,11.8561298828125,-0.0095062255859375,-0.6434173583984375,-0.1764984130859375
1768418372878130700,11.866130615234376,-0.018524169921875,-0.6813507080078125,-0.1367645263671875
1768418372888131800,11.8761318359375,-0.034210205078125,-0.7079620361328125,-0.1007537841796875
1768418372898133800,11.8861337890625,-0.052154541015625,-0.7257232666015625,-0.07537841796875
1768418372908134700,11.896134765625,-0.0809783935546875,-0.747222900390625,-0.057373046875
1768418372918135600,11.906135498046876,-0.0802459716796875,-0.7895050048828125,-0.0422515869140625
1768418372928137700,11.9161376953125,-0.04388427734375,-0.8611297607421875,-0.0336456298828125
1768418372938138600,11.926138671875,0.0047760009765625,-0.9507598876953125,-0.023040771484375
1768418372948139800,11.936139892578124,0.0256805419921875,-1.0433197021484375,-0.022216796875
1768418372958141000,11.946140869140624,0.020355224609375,-1.1264190673828125,-0.029144287109375
1768418372968142800,11.956142822265624,0.0104827880859375,-1.191925048828125,-0.037109375
1768418372978143700,11.966143798828124,-0.0675201416015625,-1.246612548828125,-0.010650634765625
1768418372988144600,11.97614453125,-0.247894287109375,-1.2819061279296875,0.06524658203125
1768418372998145800,11.986145751953124,-0.4246978759765625,-1.3135223388671875,0.1693878173828125
1768418373008147700,11.996147705078124,-0.546539306640625,-1.3860015869140625,0.2610626220703125
1768418373018148600,12.006148681640624,-0.5918731689453125,-1.4579315185546875,0.30072021484375
1768418373028149800,12.016149658203124,-0.5349578857421875,-1.4752044677734375,0.2364349365234375
1768418373038151700,12.026151611328125,-0.4268798828125,-1.2998809814453125,0.046875
1768418373048152600,12.036152587890625,-0.2992095947265625,-0.966461181640625,-0.14361572265625
1768418373058154000,12.046154052734375,-0.15704345703125,-0.7897796630859375,-0.1676177978515625
1768418373068155000,12.05615478515625,0.10821533203125,-0.9391632080078125,-0.1792755126953125
1768418373078156800,12.06615673828125,0.4190826416015625,-1.24456787109375,-0.3466033935546875
1768418373088157700,12.07615771484375,0.5377197265625,-1.604278564453125,-0.501739501953125
1768418373098158800,12.086158935546875,0.48748779296875,-1.8868560791015625,-0.53253173828125
1768418373108159700,12.09615966796875,0.4665985107421875,-2.0015106201171875,-0.4642181396484375
1768418373118161700,12.10616162109375,0.4849395751953125,-1.9263153076171875,-0.281219482421875
1768418373128162800,12.116162841796875,0.5027313232421875,-1.582611083984375,-0.14117431640625
1768418373138163700,12.126163818359375,0.5341339111328125,-1.1609649658203125,-0.0637359619140625
1768418373148165600,12.13616552734375,0.4918212890625,-0.8983612060546875,0.0485687255859375
1768418373158166500,12.14616650390625,0.3691253662109375,-0.774658203125,0.185546875
1768418373168168000,12.15616796875,0.2608489990234375,-0.834197998046875,0.3031005859375
1768418373178168800,12.1661689453125,0.212249755859375,-1.0360260009765625,0.3035125732421875
1768418373188170800,12.176170654296875,0.2378997802734375,-1.19580078125,0.242584228515625
1768418373198172000,12.186171875,0.282867431640625,-1.23565673828125,0.1287994384765625
1768418373208172800,12.1961728515625,0.299957275390625,-1.217620849609375,-0.0386962890625
1768418373218174700,12.2061748046875,0.2989654541015625,-1.21478271484375,-0.2198028564453125
1768418373228175600,12.216175537109375,0.2971038818359375,-1.214752197265625,-0.3546295166015625
1768418373238176800,12.2261767578125,0.266204833984375,-1.172271728515625,-0.3836822509765625
1768418373248177700,12.236177734375,0.2036285400390625,-1.065338134765625,-0.3192138671875
1768418373258179600,12.2461796875,0.1275177001953125,-0.9435577392578125,-0.252044677734375
1768418373268180700,12.2561806640625,0.05426025390625,-0.8048095703125,-0.2046051025390625
1768418373278182000,12.266181884765626,0.02081298828125,-0.6733856201171875,-0.1797943115234375
1768418373288182800,12.276182861328126,0.02374267578125,-0.567352294921875,-0.1456298828125
1768418373298184700,12.286184814453126,0.0370635986328125,-0.477020263671875,-0.1020965576171875
1768418373308185900,12.296185791015626,0.048095703125,-0.4067535400390625,-0.06634521484375
1768418373318186800,12.306186767578126,0.0540924072265625,-0.3631591796875,-0.033294677734375
1768418373328188700,12.316188720703124,0.0788421630859375,-0.3568267822265625,0.0208282470703125
1768418373338189800,12.32618994140625,0.102325439453125,-0.3929901123046875,0.084808349609375
1768418373348190700,12.336190673828124,0.1319732666015625,-0.450927734375,0.1505279541015625
1768418373358191600,12.346191650390624,0.1679534912109375,-0.51727294921875,0.2180023193359375
1768418373368193800,12.35619384765625,0.176300048828125,-0.5655670166015625,0.263580322265625
1768418373378194700,12.366194580078124,0.19659423828125,-0.616455078125,0.2785186767578125
1768418373388195800,12.37619580078125,0.1700897216796875,-0.6606903076171875,0.3014984130859375
1768418373398197800,12.38619775390625,0.139190673828125,-0.6969451904296875,0.3359832763671875
1768418373408199000,12.396198974609375,0.1009979248046875,-0.723876953125,0.373748779296875
1768418373418199800,12.40619970703125,0.0598602294921875,-0.755126953125,0.3728485107421875
1768418373428200700,12.41620068359375,0.0449066162109375,-0.7917633056640625,0.3651123046875
1768418373438203000,12.426202880859375,0.0357208251953125,-0.836029052734375,0.3316650390625
1768418373448203800,12.436203857421875,0.0487213134765625,-0.8934173583984375,0.2619171142578125
1768418373458204700,12.44620458984375,0.0781707763671875,-0.9556121826171875,0.1643829345703125
1768418373468206600,12.45620654296875,0.0727691650390625,-1.0041351318359375,0.069000244140625
1768418373478207700,12.466207763671875,0.0384368896484375,-1.0354766845703125,-0.0081024169921875
1768418373488209000,12.476208984375,0.021270751953125,-1.0491943359375,-0.06195068359375
1768418373498209800,12.486209716796875,0.0111846923828125,-1.049346923828125,-0.0801849365234375
1768418373508212000,12.4962119140625,-0.0211639404296875,-1.0433807373046875,-0.056915283203125
1768418373518212900,12.506212890625,-0.0728607177734375,-1.052947998046875,-0.0020294189453125
1768418373528213800,12.5162138671875,-0.123046875,-1.089752197265625,0.05877685546875
1768418373538215700,12.526215576171875,-0.164276123046875,-1.1755218505859375,0.0585174560546875
1768418373548216800,12.536216796875,-0.2371826171875,-1.3006439208984375,0.0094757080078125
1768418373558217700,12.5462177734375,-0.357818603515625,-1.3991241455078125,-0.04931640625
1768418373568219000,12.556218994140625,-0.411956787109375,-1.3538818359375,-0.08526611328125
1768418373578220800,12.566220703125,-0.2632293701171875,-1.125579833984375,-0.06768798828125
1768418373588221700,12.5762216796875,0.1150360107421875,-0.9534149169921875,-0.005828857421875
1768418373598222800,12.586222900390625,0.659271240234375,-1.052215576171875,0.070892333984375
1768418373608224800,12.596224853515626,1.1799163818359375,-1.3863067626953125,0.1907196044921875
1768418373618226000,12.606225830078126,1.199798583984375,-1.73992919921875,0.2540283203125
1768418373628226800,12.616226806640626,0.937591552734375,-1.898162841796875,0.264404296875
1768418373638228000,12.62622802734375,0.713134765625,-1.8576202392578125,0.1568145751953125
1768418373648230000,12.63622998046875,0.5004730224609375,-1.643402099609375,-0.000457763671875
1768418373658230800,12.646230712890626,0.3830413818359375,-1.26275634765625,-0.0326080322265625
1768418373668232000,12.65623193359375,0.23944091796875,-1.0129852294921875,-0.148284912109375
1768418373678233900,12.66623388671875,0.1146392822265625,-0.9531402587890625,-0.2720794677734375
1768418373688234800,12.67623486328125,0.033843994140625,-1.032745361328125,-0.296783447265625
1768418373698236000,12.68623583984375,-0.0167388916015625,-1.19091796875,-0.2606964111328125
1768418373708237000,12.696237060546874,0.006378173828125,-1.359649658203125,-0.146392822265625
1768418373718238700,12.70623876953125,0.06964111328125,-1.473358154296875,-0.0164642333984375
1768418373728239900,12.716239990234374,0.1454620361328125,-1.4934234619140625,0.0942230224609375
1768418373738241000,12.726240966796874,0.2269134521484375,-1.417205810546875,0.1892852783203125
1768418373748243000,12.736242919921875,0.2852325439453125,-1.2860870361328125,0.2550506591796875
1768418373758243800,12.746243896484375,0.2799835205078125,-1.12139892578125,0.2701416015625
1768418373768245000,12.756244873046874,0.238250732421875,-0.9232330322265625,0.242462158203125
1768418373778246000,12.766245849609374,0.1996612548828125,-0.738037109375,0.16558837890625
1768418373788247800,12.776247802734375,0.1779937744140625,-0.5802001953125,0.072540283203125
1768418373798248700,12.786248779296875,0.1516265869140625,-0.45281982421875,-0.0004730224609375
1768418373808249900,12.796249755859375,0.1104736328125,-0.3526458740234375,-0.067474365234375
1768418373818251800,12.806251708984375,0.0840606689453125,-0.2896728515625,-0.1191253662109375
1768418373828252700,12.816252685546875,0.06103515625,-0.2751007080078125,-0.156585693359375
1768418373838254000,12.826254150390625,0.037933349609375,-0.301513671875,-0.197113037109375
1768418373848255000,12.8362548828125,0.034423828125,-0.3684539794921875,-0.24481201171875
1768418373858257000,12.8462568359375,0.0441436767578125,-0.4532470703125,-0.2845916748046875
1768418373868257800,12.8562578125,0.028717041015625,-0.5298614501953125,-0.3046722412109375
1768418373878259000,12.866259033203125,0.02215576171875,-0.607086181640625,-0.2691802978515625
1768418373888260900,12.8762607421875,0.0102386474609375,-0.6754150390625,-0.23089599609375
1768418373898261800,12.88626171875,-0.0245819091796875,-0.7081146240234375,-0.1887664794921875
1768418373908263000,12.896262939453125,-0.055511474609375,-0.731414794921875,-0.1568756103515625
1768418373918263800,12.906263916015625,-0.0713348388671875,-0.740966796875,-0.13848876953125
1768418373928265700,12.916265625,-0.0974578857421875,-0.7400970458984375,-0.13629150390625
