time,seconds_elapsed,z,y,x
1768418361070450400,0.058450439453125,0.0035843485966324806,0.014719557948410511,-0.0008503473363816738
1768418361080451300,0.068451416015625,0.0005723133217543364,0.011817511171102524,-0.0027329358272254467
1768418361090453200,0.078453369140625,0.0010950918076559901,0.012559467926621437,-0.004111920483410358
1768418361100454400,0.088454345703125,-0.00039494677912443876,0.010782340541481972,-0.0043774377554655075
1768418361110455300,0.098455322265625,0.000916393706575036,0.010309895500540733,-0.00033209618413820863
1768418361120456200,0.108456298828125,0.0003147856332361698,0.0008410262526012957,0.006040049251168966
1768418361130457000,0.11845703125,0.0005997438565827906,0.0012458267156034708,0.009888051077723503
1768418361140459300,0.128459228515625,-0.0012591425329446793,-0.0036280243657529354,0.01366308145225048
1768418361150460200,0.138460205078125,-0.0025305356830358505,-0.008639561012387276,0.017649300396442413
1768418361160461300,0.14846142578125,-0.0018160095205530524,-0.014392254874110222,0.019956396892666817
1768418361170462200,0.158462158203125,0.00021438446128740907,-0.020671457052230835,0.01842002011835575
1768418361180463400,0.16846337890625,0.0018785938154906034,-0.022406771779060364,0.013674000278115273
1768418361190465300,0.17846533203125,0.0027121631428599358,-0.023997744545340538,0.008902947418391705
1768418361200466200,0.188466064453125,0.0011976235546171665,-0.02628832869231701,0.005744704511016607
1768418361210467300,0.19846728515625,0.0022884542122483253,-0.027485420927405357,0.006163087207823992
1768418361220468200,0.20846826171875,0.0004857605672441423,-0.030594659969210625,0.008110657334327698
1768418361230469000,0.21846923828125,0.0018855180824175477,-0.03515399247407913,0.009520534425973892
1768418361240471300,0.22847119140625,0.003316700691357255,-0.042205244302749634,0.009667008183896542
1768418361250472200,0.23847216796875,0.003924434073269367,-0.05154894292354584,0.012732040137052536
1768418361260473300,0.248473388671875,0.004979046061635017,-0.058948270976543427,0.009575129486620426
1768418361270474200,0.25847412109375,0.007394799496978521,-0.06607941538095474,0.01068220566958189
1768418361280475100,0.26847509765625,0.011020160280168056,-0.06447646021842957,0.013005547225475311
1768418361290477300,0.278477294921875,0.017182715237140656,-0.06072752922773361,0.012426575645804405
1768418361300478200,0.288478271484375,0.019842147827148438,-0.05898209288716316,0.01386947650462389
1768418361310479000,0.29847900390625,0.020871993154287338,-0.039329029619693756,0.027532292529940605
1768418361320480300,0.308480224609375,0.027906732633709908,-0.05354445055127144,0.04136262089014053
1768418361330481400,0.3184814453125,0.0269466619938612,-0.016951819881796837,0.04939577728509903
1768418361340483000,0.328483154296875,0.02966148965060711,0.0009406284661963582,0.06245991587638855
1768418361350484200,0.338484130859375,0.026514431461691856,0.012582104653120041,0.08195452392101288
1768418361360485400,0.3484853515625,0.021993981674313545,0.016936106607317924,0.09175895154476166
1768418361370486300,0.358486328125,0.015865782275795937,0.008771386928856373,0.08924039453268051
1768418361380487200,0.368487060546875,0.021022994071245193,-0.008196144364774227,0.0847226083278656
1768418361390489300,0.3784892578125,0.026973826810717583,-0.00817936658859253,0.07361482828855515
1768418361400490200,0.388490234375,0.039025429636240005,-0.0005262406193651259,0.07035592198371887
1768418361410491100,0.3984912109375,0.046358708292245865,0.00780705688521266,0.07067923247814178
1768418361420492300,0.4084921875,0.04884530231356621,0.006079197861254215,0.07713819295167923
1768418361430493400,0.418493408203125,0.05121232196688652,-0.005480252671986818,0.08568481355905533
1768418361440495400,0.428495361328125,0.04994545504450798,-0.023755397647619247,0.09183378517627716
1768418361450496300,0.438496337890625,0.045877210795879364,-0.03955060616135597,0.09786264598369598
1768418361460497200,0.4484970703125,0.04459702968597412,-0.04327423870563507,0.0971481204032898
1768418361470498300,0.458498291015625,0.03910692408680916,-0.057732272893190384,0.08913174271583557
1768418361480499200,0.468499267578125,0.035896480083465576,-0.0729069635272026,0.07672540098428726
1768418361490501000,0.478501220703125,0.03478807583451271,-0.07994277030229568,0.06383756548166275
1768418361500502300,0.488502197265625,0.03223623335361481,-0.09387456625699997,0.05433594435453415
1768418361510503200,0.498503173828125,0.027420705184340477,-0.10639142245054245,0.051661331206560135
1768418361520504300,0.50850439453125,0.026206569746136665,-0.11161307990550995,0.047194674611091614
1768418361530505200,0.518505126953125,0.023377494886517525,-0.12040098011493683,0.03680488467216492
1768418361540507400,0.52850732421875,0.018450912088155746,-0.1291252225637436,0.02106134220957756
1768418361550508300,0.53850830078125,0.01190859079360962,-0.13833338022232056,0.0026589001063257456
1768418361560509200,0.54850927734375,0.0036914076190441847,-0.14386875927448273,-0.016569122672080994
1768418361570510000,0.558510009765625,-0.006370814051479101,-0.14420084655284882,-0.033780332654714584
1768418361580511000,0.568510986328125,-0.01187902968376875,-0.14095285534858704,-0.047567252069711685
1768418361590513200,0.57851318359375,-0.012447615154087543,-0.13910649716854095,-0.05794798955321312
1768418361600514000,0.58851416015625,-0.014109427109360695,-0.14163462817668915,-0.06683655083179474
1768418361610515200,0.59851513671875,-0.018987007439136505,-0.14049266278743744,-0.0767805278301239
1768418361620516000,0.60851611328125,-0.02263047732412815,-0.1446882039308548,-0.08744995296001434
1768418361630518300,0.618518310546875,-0.029516080394387245,-0.14367328584194183,-0.09084335714578629
1768418361640519200,0.628519287109375,-0.03133795037865639,-0.14141544699668884,-0.08797113597393036
1768418361650520000,0.63852001953125,-0.037993986159563065,-0.1342155933380127,-0.08398491144180298
1768418361660521200,0.648521240234375,-0.04909111186861992,-0.12542849779129028,-0.08807073533535004
1768418361670522000,0.658522216796875,-0.06196456775069237,-0.11200589686632156,-0.09270623326301575
1768418361680523300,0.668523193359375,-0.0698869377374649,-0.10765908658504486,-0.09748740494251251
1768418361690525000,0.67852490234375,-0.0781312882900238,-0.0994805172085762,-0.10170159488916397
1768418361700526300,0.6885263671875,-0.08247650414705276,-0.09284977614879608,-0.11095075309276581
1768418361710527200,0.69852734375,-0.08593142032623291,-0.07706895470619202,-0.12224788218736649
1768418361720528100,0.708528076171875,-0.0847548320889473,-0.05771948769688606,-0.12858647108078003
1768418361730529000,0.718529052734375,-0.07766363769769669,-0.03924620524048805,-0.13493545353412628
1768418361740531200,0.72853125,-0.07547025382518768,-0.028749356046319008,-0.14206792414188385
1768418361750532000,0.738531982421875,-0.07810012996196747,-0.02611522376537323,-0.1435888558626175
1768418361760533000,0.748532958984375,-0.08511196821928024,-0.03051023930311203,-0.140004500746727
1768418361770534400,0.758534423828125,-0.09047424048185349,-0.02262621559202671,-0.1323111653327942
1768418361780536000,0.7685361328125,-0.09348254650831223,-0.013814348727464676,-0.12108168005943298
1768418361790537200,0.778537109375,-0.09366124123334885,-0.003846669802442193,-0.11189191043376923
1768418361800538000,0.7885380859375,-0.08846648037433624,-0.00016351809608750045,-0.1051248237490654
1768418361810539300,0.798539306640625,-0.08079791069030762,0.0007299724384211004,-0.09755504876375198
1768418361820540200,0.8085400390625,-0.07333173602819443,-0.0017363809747621417,-0.09322075545787811
1768418361830542000,0.8185419921875,-0.06848904490470886,-0.0017952368361875415,-0.09252194315195084
1768418361840543200,0.828543212890625,-0.06787438690662384,-0.004457066301256418,-0.08941536396741867
1768418361850544000,0.838544189453125,-0.06698516011238098,-0.0030056436080485582,-0.07827909290790558
1768418361860545300,0.848545166015625,-0.06247429549694061,0.0026674221735447645,-0.06589938700199127
1768418361870546200,0.858546142578125,-0.05511678010225296,0.011018030345439911,-0.05145466700196266
1768418361880548400,0.86854833984375,-0.044915009289979935,0.01582210697233677,-0.03502056747674942
1768418361890549200,0.87854931640625,-0.034149713814258575,0.021219801157712936,-0.022182533517479897
1768418361900550100,0.888550048828125,-0.02430773712694645,0.015518772415816784,-0.008635565638542175
1768418361910551000,0.898551025390625,-0.01549507025629282,0.010456102900207043,0.002867958042770624
1768418361920552200,0.90855224609375,-0.007754592224955559,0.01233576238155365,0.010356767103075981
1768418361930554000,0.91855419921875,-0.003926298581063747,0.014037521556019783,0.010778345167636871
1768418361940555000,0.928554931640625,-0.0012948289513587952,0.015482553280889988,0.013547234237194061
1768418361950556200,0.93855615234375,0.0036573191173374653,0.02334953099489212,0.01793132908642292
1768418361960557300,0.948557373046875,0.012287825345993042,0.03687332943081856,0.020667461678385735
1768418361970558200,0.95855810546875,0.015186143107712269,0.04743382707238197,0.021699436008930206
1768418361980560100,0.96856005859375,0.022642461583018303,0.05254683271050453,0.024352211505174637
1768418361990561300,0.978561279296875,0.022670425474643707,0.057250238955020905,0.028558673337101936
1768418362000562200,0.988562255859375,0.02497832104563713,0.061215952038764954,0.030720895156264305
1768418362010563000,0.99856298828125,0.024100808426737785,0.06851594150066376,0.03392787277698517
1768418362020564000,1.00856396484375,0.026067286729812622,0.07374346256256104,0.031098531559109688
1768418362030566100,1.018566162109375,0.0243719182908535,0.08036275207996368,0.030192524194717407
1768418362040567000,1.028567138671875,0.023868048563599586,0.0890614315867424,0.025237713009119034
1768418362050568200,1.038568115234375,0.02292608842253685,0.09693267196416855,0.0282119307667017
1768418362060569000,1.048569091796875,0.020257867872714996,0.10595226287841797,0.026492860168218613
1768418362070570200,1.0585703125,0.016348347067832947,0.10776267945766449,0.02497033029794693
1768418362080572200,1.068572265625,0.014868960715830326,0.11071133613586426,0.021317806094884872
1768418362090573000,1.078572998046875,0.011725631542503834,0.1117454394698143,0.01786661520600319
1768418362100574200,1.08857421875,0.00782356783747673,0.11160003393888474,0.011345332488417625
1768418362110575000,1.0985751953125,0.003257312346249819,0.10683350265026093,0.010291519574820995
1768418362120576300,1.108576171875,-0.0007113303290680051,0.10479378700256348,0.0067849354818463326
1768418362130578200,1.118578125,-0.004939098376780748,0.10351946949958801,-0.00012996226723771542
1768418362140579300,1.128579345703125,-0.009878196753561497,0.10315195471048355,-0.00631941482424736
1768418362150580200,1.138580322265625,-0.01242284756153822,0.10548008978366852,-0.009583917446434498
1768418362160581000,1.1485810546875,-0.013481986708939075,0.10627823323011398,-0.009973538108170033
1768418362170582000,1.15858203125,-0.01332539226859808,0.10128321498632431,-0.013165603391826153
1768418362180584200,1.168584228515625,-0.016111858189105988,0.09156320244073868,-0.02605583518743515
1768418362190585000,1.178585205078125,-0.014367487281560898,0.08553513884544373,-0.04354960843920708
1768418362200586000,1.1885859375,-0.013801033608615398,0.08164958655834198,-0.06456700712442398
1768418362210587100,1.198587158203125,-0.014387194998562336,0.09007237106561661,-0.08598148822784424
1768418362220588300,1.20858837890625,-0.017165137454867363,0.09765252470970154,-0.09756037592887878
1768418362230590200,1.218590087890625,-0.01611798256635666,0.11168178915977478,-0.10757466405630112
1768418362240591000,1.228591064453125,-0.0036693033762276173,0.14721475541591644,-0.12649668753147125
1768418362250592300,1.23859228515625,0.004752144683152437,0.16432316601276398,-0.15181642770767212
1768418362260593200,1.24859326171875,0.0035864789970219135,0.18317808210849762,-0.1754961907863617
1768418362270594000,1.258593994140625,0.0003379551344551146,0.1982419788837433,-0.19575752317905426
1768418362280596200,1.26859619140625,0.001163002452813089,0.21205686032772064,-0.2006462812423706
1768418362290597000,1.27859716796875,0.00037630466977134347,0.22938072681427002,-0.20297682285308838
1768418362300598300,1.288598388671875,0.009016398340463638,0.25894659757614136,-0.20776784420013428
1768418362310599200,1.29859912109375,0.014367753639817238,0.2735165059566498,-0.20525169372558594
1768418362320600300,1.308600341796875,0.00933144986629486,0.27444514632225037,-0.18870893120765686
1768418362330602200,1.318602294921875,-0.0024253407027572393,0.2634883522987366,-0.15986476838588715
1768418362340603100,1.32860302734375,-0.010651845484972,0.2478652000427246,-0.12691879272460938
1768418362350604000,1.33860400390625,-0.018725218251347542,0.22633114457130432,-0.08005861937999725
1768418362360605200,1.348605224609375,-0.02761325240135193,0.19203521311283112,-0.02484969049692154
1768418362370606000,1.358606201171875,-0.03359631076455116,0.15186277031898499,0.02682815119624138
1768418362380608000,1.36860791015625,-0.034088727086782455,0.124759241938591,0.07326622307300568
1768418362390609200,1.378609130859375,-0.019717512652277946,0.1026291698217392,0.10926976799964905
1768418362400610300,1.3886103515625,-0.007722900714725256,0.08818046003580093,0.1300802379846573
1768418362410611200,1.398611083984375,0.007846471853554249,0.07888389378786087,0.1376180499792099
1768418362420612000,1.408612060546875,0.016818927600979805,0.06235072761774063,0.14144021272659302
1768418362430614300,1.4186142578125,0.027888089418411255,0.0656740814447403,0.13644972443580627
1768418362440615200,1.428615234375,0.04489397257566452,0.0616828054189682,0.1354220062494278
1768418362450616000,1.438615966796875,0.058096326887607574,0.05506245419383049,0.14275822043418884
1768418362460617000,1.448616943359375,0.07111918181180954,0.0533074289560318,0.1480267494916916
1768418362470618400,1.458618408203125,0.08236011862754822,0.054660581052303314,0.15339621901512146
1768418362480620000,1.4686201171875,0.08683103322982788,0.05673119053244591,0.1651410162448883
1768418362490621200,1.47862109375,0.0875554159283638,0.0689319297671318,0.16609816253185272
1768418362500622300,1.488622314453125,0.08931603282690048,0.08326586335897446,0.16014359891414642
1768418362510623200,1.498623291015625,0.08950378000736237,0.09306549280881882,0.15478238463401794
1768418362520624000,1.5086240234375,0.08907421678304672,0.08947315812110901,0.15830974280834198
1768418362530626000,1.5186259765625,0.08347997814416885,0.07837843149900436,0.1640975922346115
1768418362540627200,1.528627197265625,0.0709623247385025,0.0550488717854023,0.17097200453281403
1768418362550628000,1.538628173828125,0.062066301703453064,0.025140773504972458,0.17962568998336792
1768418362560628700,1.548628662109375,0.04459090530872345,0.0004423510399647057,0.18810385465621948
1768418362570629600,1.558629638671875,0.03320988640189171,-0.014314756728708744,0.1819029599428177
1768418362580631800,1.5686318359375,0.02587420679628849,-0.02515914849936962,0.16780337691307068
1768418362590632700,1.5786328125,0.018850386142730713,-0.032331839203834534,0.1616823673248291
1768418362600633600,1.588633544921875,0.016526246443390846,-0.028075842186808586,0.15123265981674194
1768418362610634500,1.598634521484375,0.01920432038605213,-0.03243623673915863,0.14213158190250397
1768418362620635400,1.608635498046875,0.02064642310142517,-0.04368782415986061,0.13223260641098022
1768418362630637600,1.618637451171875,0.01666473038494587,-0.060631390661001205,0.12346894294023514
1768418362640638500,1.628638427734375,0.012116583995521069,-0.0749267041683197,0.11489329487085342
1768418362650639600,1.6386396484375,0.006914631463587284,-0.08353909850120544,0.10494133085012436
1768418362660640800,1.648640869140625,0.00444055488333106,-0.08459504693746567,0.0906476080417633
1768418362670641700,1.6586416015625,-0.0018690064316615462,-0.07298446446657181,0.07683166116476059
1768418362680643600,1.6686435546875,-0.010164220817387104,-0.06759954988956451,0.063566192984581
1768418362690644700,1.678644775390625,-0.021925006061792374,-0.06534891575574875,0.0531843900680542
1768418362700645600,1.688645751953125,-0.03169774264097214,-0.06794522702693939,0.03930506110191345
1768418362710646500,1.698646484375,-0.04192960634827614,-0.0690549686551094,0.022294120863080025
1768418362720647700,1.708647705078125,-0.04608999565243721,-0.06468258798122406,0.011483018286526203
1768418362730649600,1.718649658203125,-0.05035984143614769,-0.06035974621772766,0.007574030198156834
1768418362740650800,1.728650634765625,-0.05176519230008125,-0.05330955982208252,0.013139237649738789
1768418362750651600,1.738651611328125,-0.05209888890385628,-0.04565989598631859,0.01589321345090866
1768418362760652500,1.748652587890625,-0.05218171328306198,-0.04320579394698143,0.017782725393772125
1768418362770653700,1.75865380859375,-0.05324377864599228,-0.04218154028058052,0.020193951204419136
1768418362780655600,1.768655517578125,-0.050457313656806946,-0.039624109864234924,0.02003389596939087
1768418362790656500,1.778656494140625,-0.04753263294696808,-0.03807494789361954,0.02153591811656952
1768418362800657400,1.788657470703125,-0.048162735998630524,-0.0335283987224102,0.020774254575371742
1768418362810658800,1.798658935546875,-0.045089978724718094,-0.02304353378713131,0.017046894878149033
1768418362820659700,1.80865966796875,-0.045407429337501526,-0.012536032125353813,0.012860937044024467
1768418362830661600,1.81866162109375,-0.04163479432463646,-0.006916761863976717,0.00863237027078867
1768418362840662800,1.828662841796875,-0.038781482726335526,-0.0020873856265097857,0.001939580193720758
1768418362850663700,1.83866357421875,-0.03549354523420334,0.004594485275447369,-0.0001131843455368653
1768418362860664600,1.84866455078125,-0.03165885806083679,0.014611166901886463,0.001508680754341185
1768418362870665500,1.85866552734375,-0.025849707424640656,0.019027486443519592,0.0022884542122483253
1768418362880667600,1.868667724609375,-0.020595556125044823,0.025006283074617386,0.004545483272522688
1768418362890668500,1.87866845703125,-0.015614645555615425,0.029415147379040718,0.0036812876351177692
1768418362900669700,1.888669677734375,-0.015606390312314034,0.02882339246571064,0.0030514500103890896
1768418362910670600,1.898670654296875,-0.015235678292810917,0.02455967105925083,-0.0007571366732008755
1768418362920671700,1.908671630859375,-0.015449530445039272,0.026333069428801537,-0.003949468024075031
1768418362930673700,1.918673583984375,-0.012675315141677856,0.026379143819212914,-0.0049825082533061504
1768418362940674600,1.928674560546875,-0.012190353125333786,0.02610643580555916,-0.0041428133845329285
1768418362950675700,1.93867578125,-0.01088673621416092,0.025714417919516563,-0.001005343277938664
1768418362960676600,1.948676513671875,-0.006470416206866503,0.024711471050977707,0.004366785287857056
1768418362970677500,1.958677490234375,-0.006742058787494898,0.019810989499092102,0.006934871431440115
1768418362980679400,1.968679443359375,-0.004742024466395378,0.01341380923986435,0.008749282918870449
1768418362990680600,1.9786806640625,-0.004350806120783091,0.00660570478066802,0.010575679130852222
1768418363000681700,1.988681640625,-0.0037262949626892805,0.0038924762047827244,0.011529623530805111
1768418363010682600,1.9986826171875,-0.0012990899849683046,-0.00042557314736768603,0.011284079402685165
1768418363020683500,2.00868359375,-0.003916711080819368,-0.0043928842060267925,0.01181937474757433
1768418363030685700,2.018685791015625,-0.007219829596579075,-0.007670170161873102,0.010465158149600029
1768418363040686600,2.0286865234375,-0.009522398933768272,-0.009033708833158016,0.010989533737301826
1768418363050687500,2.0386875,-0.009589510038495064,-0.012281966395676136,0.01372486725449562
1768418363060688600,2.048688720703125,-0.010838000103831291,-0.013390906155109406,0.014303305186331272
1768418363070689800,2.058689697265625,-0.009347694925963879,-0.011475028470158577,0.01564474031329155
1768418363080691500,2.06869140625,-0.007533816155046225,-0.011290471069514751,0.012196212075650692
1768418363090692600,2.078692626953125,-0.006596916355192661,-0.01660507544875145,0.00920521654188633
1768418363100693800,2.08869384765625,-0.007444600574672222,-0.02130715362727642,0.0073468624614179134
1768418363110694700,2.098694580078125,-0.008701612241566181,-0.02533411793410778,0.0025070998817682266
1768418363120695600,2.108695556640625,-0.010003099218010902,-0.028491562232375145,0.0028040423057973385
1768418363130697700,2.11869775390625,-0.012373046018183231,-0.0312279611825943,0.004850681405514479
1768418363140698600,2.12869873046875,-0.009704559110105038,-0.02917439676821232,0.006427805405110121
1768418363150699500,2.138699462890625,-0.010689129121601582,-0.0267205610871315,0.0067820060066878796
1768418363160700700,2.14870068359375,-0.010241718962788582,-0.023680562153458595,0.006309028714895248
1768418363170701800,2.158701904296875,-0.009463809430599213,-0.024720527231693268,0.008314388804137707
1768418363180703700,2.168703857421875,-0.009792976081371307,-0.02257108874619007,0.011867311783134937
1768418363190704600,2.17870458984375,-0.00717562111094594,-0.022580143064260483,0.013096893206238747
1768418363200705500,2.18870556640625,-0.0062339273281395435,-0.023084014654159546,0.012797021307051182
1768418363210706700,2.198706787109375,-0.005823534447699785,-0.021330056712031364,0.01576990820467472
1768418363220707600,2.20870751953125,-0.0025920546613633633,-0.022816099226474762,0.014237524941563606
1768418363230709500,2.21870947265625,-0.0005739112384617329,-0.024351945146918297,0.016537697985768318
1768418363240710700,2.228710693359375,0.0006551376427523792,-0.023427028208971024,0.016808008775115013
1768418363250711600,2.238711669921875,0.00352868833579123,-0.024720260873436928,0.01853000931441784
1768418363260712700,2.248712646484375,0.004260258749127388,-0.026518959552049637,0.020001403987407684
1768418363270713600,2.258713623046875,0.006652310024946928,-0.028778385370969772,0.016700683161616325
1768418363280715800,2.2687158203125,0.004283161833882332,-0.031243672594428062,0.01612330973148346
1768418363290716700,2.278716552734375,0.004882373381406069,-0.03423014283180237,0.015053784474730492
1768418363300717600,2.288717529296875,0.004607268609106541,-0.034624289721250534,0.014935007318854332
1768418363310718500,2.298718505859375,0.002267681760713458,-0.03068121336400509,0.01558348722755909
1768418363320719600,2.3087197265625,0.0018924422329291701,-0.026031600311398506,0.015535283833742142
1768418363330720800,2.318720703125,0.0018181400373578072,-0.020710337907075882,0.01654328964650631
1768418363340722700,2.32872265625,0.002428004052489996,-0.022584671154618263,0.013847638852894306
1768418363350723800,2.338723876953125,0.004111654590815306,-0.0223268773406744,0.009312807582318783
1768418363360724700,2.348724853515625,0.006305033806711435,-0.025831064209342003,0.005944708362221718
1768418363370725600,2.3587255859375,0.006705573294311762,-0.027065439149737358,0.005628590937703848
1768418363380727600,2.3687275390625,0.008012652397155762,-0.026271019130945206,0.004368915688246489
1768418363390728700,2.378728759765625,0.0078544607385993,-0.024768196046352386,0.0038962047547101974
1768418363400729600,2.3887294921875,0.006671218667179346,-0.023124227300286293,0.00580648984760046
1768418363410730500,2.39873046875,0.008106928318738937,-0.019821375608444214,0.009080314077436924
1768418363420731600,2.408731689453125,0.007370564620941877,-0.019241871312260628,0.00734260119497776
1768418363430733600,2.418733642578125,0.0072896042838692665,-0.02167040854692459,0.004464257042855024
1768418363440734700,2.428734619140625,0.004503138829022646,-0.020489828661084175,0.0028796761762350798
1768418363450735600,2.438735595703125,0.003111637430265546,-0.01968076080083847,-0.0002942793071269989
1768418363460736500,2.448736572265625,0.0017387778498232365,-0.020773189142346382,-0.0024146882351487875
1768418363470737700,2.458737548828125,0.002113218419253826,-0.022435801103711128,-0.005912217777222395
1768418363480738600,2.468738525390625,0.003742806613445282,-0.026269420981407166,-0.006213421002030373
1768418363490740500,2.478740478515625,0.006703709252178669,-0.029330458492040634,-0.00782623142004013
1768418363500741600,2.48874169921875,0.010263822972774506,-0.03020157851278782,-0.010039851069450378
1768418363510742800,2.49874267578125,0.012695289216935635,-0.031321171671152115,-0.01080018375068903
1768418363520743700,2.50874365234375,0.015270032919943333,-0.03478754311800003,-0.013429522514343262
1768418363530744600,2.51874462890625,0.01323830708861351,-0.038064561784267426,-0.012560532428324223
1768418363540746800,2.528746826171875,0.013125921599566936,-0.0382230207324028,-0.009780192747712135
1768418363550747600,2.53874755859375,0.011247062124311924,-0.03846696391701698,-0.006372678093612194
1768418363560748800,2.548748779296875,0.007669903803616762,-0.040701091289520264,-0.0033952640369534492
1768418363570749700,2.558749755859375,0.007755391299724579,-0.041979409754276276,-0.00210602767765522
1768418363580750600,2.56875048828125,0.007371097337454557,-0.045223403722047806,-0.0033095101825892925
1768418363590752800,2.578752685546875,0.004560663364827633,-0.05065172538161278,-0.002257561543956399
1768418363600753700,2.588753662109375,0.004944690968841314,-0.05458761006593704,0.0020570256747305393
1768418363610754800,2.5987548828125,0.010866762138903141,-0.05389279127120972,0.008468852378427982
1768418363620756000,2.608755859375,0.018439993262290955,-0.05716848000884056,0.024030767381191254
1768418363630756900,2.6187568359375,0.025726135820150375,-0.06513399630784988,0.042636677622795105
1768418363640758800,2.6287587890625,0.02738102339208126,-0.07897524535655975,0.0660378709435463
1768418363650759700,2.638759765625,0.023784425109624863,-0.09246601909399033,0.0948663279414177
1768418363660760800,2.6487607421875,0.017843712121248245,-0.10002966225147247,0.11578865349292755
1768418363670761700,2.65876171875,0.029218338429927826,-0.09897025674581528,0.14148549735546112
1768418363680763000,2.668762939453125,0.04081187769770622,-0.0810818001627922,0.16521398723125458
1768418363690764800,2.678764892578125,0.04132533445954323,-0.05763213708996773,0.16831284761428833
1768418363700766000,2.688765869140625,0.050268497318029404,-0.023746341466903687,0.17014217376708984
1768418363710766800,2.698766845703125,0.06580963730812073,0.0121304327622056,0.1743214726448059
1768418363720767700,2.708767822265625,0.08122614771127701,0.03548795357346535,0.17538060247898102
1768418363730768600,2.7187685546875,0.08719535917043686,0.0503542497754097,0.17217975854873657
1768418363740770800,2.728770751953125,0.09024973213672638,0.05115159973502159,0.17111022770404816
1768418363750771700,2.738771728515625,0.09366311132907867,0.042402319610118866,0.17118772864341736
1768418363760772600,2.748772705078125,0.10269574820995331,0.029264410957694054,0.1688835620880127
1768418363770773800,2.758773681640625,0.1175716370344162,0.012930712662637234,0.1644536554813385
1768418363780775000,2.76877490234375,0.13998639583587646,-0.008619853295385838,0.1598288118839264
1768418363790776800,2.77877685546875,0.16118623316287994,-0.03169720992445946,0.1610887497663498
1768418363800777700,2.78877783203125,0.17953886091709137,-0.0621589794754982,0.1536063402891159
1768418363810779000,2.79877880859375,0.19855916500091553,-0.09476858377456665,0.1359756737947464
1768418363820779800,2.80877978515625,0.21371521055698395,-0.12674382328987122,0.10812034457921982
1768418363830780700,2.81878076171875,0.22401924431324005,-0.16738766431808472,0.07989589869976044
1768418363840782800,2.828782958984375,0.22959643602371216,-0.21642763912677765,0.049368880689144135
1768418363850783700,2.83878369140625,0.2320960909128189,-0.2573583126068115,0.012553608976304531
1768418363860785000,2.848784912109375,0.23785756528377533,-0.3006759583950043,-0.02425340749323368
1768418363870785800,2.858785888671875,0.2421758770942688,-0.34836915135383606,-0.05913176387548447
1768418363880787000,2.868786865234375,0.23828953504562378,-0.3980395197868347,-0.08735381066799164
1768418363890788900,2.878788818359375,0.2297801971435547,-0.44959139823913574,-0.11104848980903625
1768418363900789800,2.888789794921875,0.21308325231075287,-0.5016010403633118,-0.13630777597427368
1768418363910790700,2.898790771484375,0.19500170648097992,-0.5386581420898438,-0.15562474727630615
1768418363920791800,2.908791748046875,0.17280639708042145,-0.5700389742851257,-0.17843098938465118
1768418363930792700,2.918792724609375,0.14493748545646667,-0.5960636734962463,-0.20410892367362976
1768418363940794600,2.928794677734375,0.11514975875616074,-0.6028618812561035,-0.22069935500621796
1768418363950795800,2.938795654296875,0.09237600117921829,-0.6047780513763428,-0.2390964776277542
1768418363960797000,2.948796875,0.07133037596940994,-0.6018160581588745,-0.2560829222202301
1768418363970797800,2.9587978515625,0.05133509263396263,-0.5893985629081726,-0.2714139223098755
1768418363980798700,2.968798828125,0.04249686002731323,-0.5524061918258667,-0.2750707268714905
1768418363990801000,2.97880078125,0.038411304354667664,-0.5061968564987183,-0.26913824677467346
1768418364000801800,2.9888017578125,0.03936152160167694,-0.43811503052711487,-0.2624523937702179
1768418364010802700,2.998802734375,0.03826776146888733,-0.3690797686576843,-0.26017990708351135
1768418364020803600,3.008803466796875,0.03211159631609917,-0.28097814321517944,-0.26084277033805847
1768418364030805000,3.018804931640625,0.026996996253728867,-0.18002410233020782,-0.22989897429943085
1768418364040806700,3.028806640625,0.0284137986600399,-0.09500454366207123,-0.16767928004264832
1768418364050807800,3.038807861328125,0.03537929430603981,-0.010487262159585953,-0.08668562769889832
1768418364060809000,3.04880908203125,0.04211176559329033,0.054972171783447266,0.0004894890007562935
1768418364070809900,3.058809814453125,0.047034621238708496,0.10085976868867874,0.06619979441165924
1768418364080810800,3.068810791015625,0.05612665042281151,0.12965652346611023,0.09237121045589447
1768418364090812700,3.078812744140625,0.07252959161996841,0.1457100659608841,0.06914258748292923
1768418364100813800,3.088813720703125,0.10014018416404724,0.14651833474636078,0.02456020377576351
1768418364110814700,3.098814697265625,0.12982137501239777,0.11885634809732437,-0.017412278801202774
1768418364120815900,3.10881591796875,0.15704821050167084,0.06407059729099274,-0.05353992432355881
1768418364130816800,3.118816650390625,0.17655320465564728,-0.00424268189817667,-0.06786080449819565
1768418364140819000,3.12881884765625,0.18868815898895264,-0.09288813173770905,-0.06485862284898758
1768418364150819800,3.13881982421875,0.20627327263355255,-0.19278889894485474,-0.06319468468427658
1768418364160820700,3.14882080078125,0.2327922284603119,-0.288073867559433,-0.06518619507551193
1768418364170822000,3.15882177734375,0.2621210813522339,-0.36160534620285034,-0.07876485586166382
1768418364180822800,3.16882275390625,0.28549858927726746,-0.40953370928764343,-0.0846395194530487
1768418364190824700,3.17882470703125,0.2981845438480377,-0.45042601227760315,-0.07711848616600037
1768418364200825600,3.18882568359375,0.3056690990924835,-0.49184563755989075,-0.06090116873383522
1768418364210826800,3.19882666015625,0.3005204200744629,-0.5237601399421692,-0.04045181721448898
1768418364220828000,3.208827880859375,0.2847222685813904,-0.5314111709594727,-0.021034179255366325
1768418364230828800,3.218828857421875,0.25478729605674744,-0.528702974319458,-0.0006554039428010583
1768418364240831000,3.2288310546875,0.22078964114189148,-0.5226237773895264,0.017016800120472908
1768418364250832000,3.238831787109375,0.1822233349084854,-0.5087660551071167,0.029581593349575996
1768418364260832800,3.248832763671875,0.13621430099010468,-0.4751598536968231,0.029161879792809486
1768418364270833700,3.258833740234375,0.08980818092823029,-0.44358304142951965,0.019765183329582214
1768418364280834600,3.26883447265625,0.05290475860238075,-0.4069238305091858,0.017465276643633842
1768418364290836700,3.278836669921875,0.02490934357047081,-0.35561588406562805,0.024838503450155258
1768418364300837600,3.288837646484375,0.009272860363125801,-0.2896083891391754,0.03459419682621956
1768418364310838800,3.2988388671875,-0.010201770812273026,-0.24685771763324738,0.03712286800146103
1768418364320840000,3.30883984375,-0.04258474335074425,-0.23114213347434998,0.04972175136208534
1768418364330840800,3.3188408203125,-0.08026368170976639,-0.22594764828681946,0.08160697668790817
1768418364340842800,3.3288427734375,-0.11616841703653336,-0.24855388700962067,0.10435304045677185
1768418364350844000,3.338843994140625,-0.14492283761501312,-0.2731119692325592,0.11648373305797577
1768418364360844800,3.3488447265625,-0.17015495896339417,-0.28256645798683167,0.12959420680999756
1768418364370845700,3.358845703125,-0.18945620954036713,-0.30283790826797485,0.14654229581356049
1768418364380846800,3.368846923828125,-0.21395249664783478,-0.35002803802490234,0.16921699047088623
1768418364390848800,3.378848876953125,-0.24367576837539673,-0.41736581921577454,0.21138468384742737
1768418364400850000,3.388849853515625,-0.27009379863739014,-0.5054773092269897,0.2681310474872589
1768418364410850800,3.398850830078125,-0.28540217876434326,-0.5959571003913879,0.32859891653060913
1768418364420851700,3.408851806640625,-0.281460165977478,-0.6576346158981323,0.3639340102672577
1768418364430852900,3.418852783203125,-0.2596787214279175,-0.6809055805206299,0.38311782479286194
1768418364440854800,3.428854736328125,-0.212964728474617,-0.6729477643966675,0.37612515687942505
1768418364450855700,3.438855712890625,-0.16249090433120728,-0.6488664150238037,0.3457443416118622
1768418364460856600,3.448856689453125,-0.11229325085878372,-0.6209402084350586,0.2972332835197449
1768418364470858000,3.45885791015625,-0.06706638634204865,-0.6013510823249817,0.2522096037864685
1768418364480859000,3.46885888671875,-0.02269332855939865,-0.604604959487915,0.21110372245311737
1768418364490860800,3.47886083984375,-0.006970824208110571,-0.6207436919212341,0.18358208239078522
1768418364500862000,3.488862060546875,0.003385410411283374,-0.6500911712646484,0.16739964485168457
1768418364510862800,3.49886279296875,0.007909588515758514,-0.6449779272079468,0.16247811913490295
1768418364520863700,3.50886376953125,0.0031015174463391304,-0.6217330694198608,0.15638162195682526
1768418364530864600,3.51886474609375,-0.012103800661861897,-0.6047940254211426,0.14695429801940918
1768418364540866800,3.52886669921875,-0.026895796880126,-0.5885668396949768,0.13412611186504364
1768418364550867700,3.53886767578125,-0.04952973499894142,-0.5961688160896301,0.1159290000796318
1768418364560868900,3.548868896484375,-0.08611118048429489,-0.6466456055641174,0.11403788626194
1768418364570869800,3.558869873046875,-0.13955309987068176,-0.7664023637771606,0.14628717303276062
1768418364580871000,3.568870849609375,-0.21693257987499237,-0.9345034956932068,0.2079465389251709
1768418364590872800,3.578872802734375,-0.2837646007537842,-0.9963676333427429,0.2799195349216461
1768418364600873700,3.588873779296875,-0.2897370159626007,-0.8645723462104797,0.33692049980163574
1768418364610874600,3.59887451171875,-0.22631914913654327,-0.5478718876838684,0.3902263343334198
1768418364620875800,3.608875732421875,-0.10381747782230377,-0.18673260509967804,0.4275992810726166
1768418364630876700,3.618876708984375,0.071625716984272,0.13530616462230682,0.42162179946899414
1768418364640878600,3.628878662109375,0.2672356963157654,0.43561139702796936,0.43314024806022644
1768418364650879700,3.638879638671875,0.4347573220729828,0.6401515007019043,0.4763423204421997
1768418364660881000,3.648880859375,0.49611547589302063,0.46650806069374084,0.40009626746177673
1768418364670881800,3.6588818359375,0.4587462842464447,0.0312894806265831,0.16892430186271667
1768418364680882700,3.668882568359375,0.3611060082912445,0.2060391902923584,-0.15829962491989136
1768418364690884900,3.678884765625,0.13191275298595428,0.5189933776855469,-0.3953726291656494
1768418364700885800,3.6888857421875,-0.06416886299848557,0.5211942195892334,-0.39070916175842285
1768418364710886700,3.69888671875,-0.1664438396692276,0.31106120347976685,-0.27750110626220703
1768418364720887600,3.708887451171875,-0.20765678584575653,0.151584193110466,-0.12112482637166977
1768418364730889000,3.718888916015625,-0.20828530192375183,0.06199466064572334,-0.007773500867187977
1768418364740889900,3.728889892578125,-0.2374652773141861,0.06716359406709671,0.007352188695222139
1768418364750891800,3.738891845703125,-0.25550100207328796,0.29168298840522766,0.15472087264060974
1768418364760893000,3.748892822265625,-0.16561506688594818,0.4622914791107178,0.4317314326763153
1768418364770893800,3.758893798828125,-0.06981716305017471,0.4456741511821747,0.5519227981567383
1768418364780894700,3.768894775390625,-0.05711042508482933,0.30311885476112366,0.37406226992607117
1768418364790896600,3.778896728515625,-0.14449858665466309,0.18270856142044067,0.0564318522810936
1768418364800897800,3.788897705078125,-0.25611114501953125,0.1451667845249176,-0.14107510447502136
1768418364810898700,3.798898681640625,-0.3227519392967224,0.14977404475212097,-0.13400307297706604
1768418364820899800,3.80889990234375,-0.34906184673309326,0.1633404642343521,-0.009165268391370773
1768418364830900700,3.818900634765625,-0.34743252396583557,0.1876543164253235,0.131225124001503
1768418364840902000,3.82890185546875,-0.33760306239128113,0.23551158607006073,0.23057861626148224
1768418364850903800,3.83890380859375,-0.3307070732116699,0.2968255579471588,0.2779328227043152
1768418364860904700,3.84890478515625,-0.3275648057460785,0.34535712003707886,0.3104984760284424
1768418364870905600,3.858905517578125,-0.318297803401947,0.372614324092865,0.35803085565567017
1768418364880906800,3.86890673828125,-0.30078861117362976,0.35918933153152466,0.39862141013145447
1768418364890907600,3.87890771484375,-0.30039364099502563,0.35938718914985657,0.4104836583137512
1768418364900909600,3.88890966796875,-0.30563926696777344,0.36009132862091064,0.38142457604408264
1768418364910910700,3.89891064453125,-0.3122580349445343,0.3496304452419281,0.32869747281074524
1768418364920912000,3.908911865234375,-0.31471267342567444,0.29167845845222473,0.2808782756328583
1768418364930912800,3.918912841796875,-0.3000786006450653,0.2041161209344864,0.2571340501308441
1768418364940914700,3.928914794921875,-0.27793413400650024,0.13548699021339417,0.26080548763275146
1768418364950915800,3.938915771484375,-0.2493712157011032,0.08634181320667267,0.2735583186149597
1768418364960916700,3.948916748046875,-0.20542345941066742,0.10545025765895844,0.3000005781650543
1768418364970917600,3.958917724609375,-0.14596305787563324,0.15668708086013794,0.3377916216850281
1768418364980918500,3.96891845703125,-0.08150923997163773,0.1899574249982834,0.36853328347206116
1768418364990920000,3.978919921875,-0.03798120468854904,0.20194111764431,0.37220072746276855
1768418365000921600,3.988921630859375,-0.005036037415266037,0.20120474696159363,0.3566550612449646
1768418365010922800,3.9989228515625,0.023741016164422035,0.17847466468811035,0.3462897539138794
1768418365020924000,4.008923828125,0.05500705912709236,0.14584454894065857,0.3280273973941803
1768418365030924800,4.0189248046875,0.08296332508325577,0.12345003336668015,0.30221179127693176
1768418365040925700,4.02892578125,0.09887091815471649,0.10188961029052734,0.27045759558677673
1768418365050927600,4.038927734375,0.10387659817934036,0.08351752907037735,0.23692519962787628
1768418365060928800,4.0489287109375,0.10080677270889282,0.07033541798591614,0.21663403511047363
1768418365070929700,4.0589296875,0.10549580305814743,0.06709062308073044,0.18655788898468018
1768418365080930800,4.068930908203125,0.11402244120836258,0.09434034675359726,0.14247938990592957
1768418365090931700,4.078931640625,0.13372637331485748,0.16529761254787445,0.07730837166309357
1768418365100934000,4.088933837890625,0.15569265186786652,0.21209174394607544,-0.015969911590218544
1768418365110934800,4.098934814453125,0.152252659201622,0.2111910730600357,-0.12536218762397766
1768418365120935700,4.108935791015625,0.11740785092115402,0.16348160803318024,-0.1922605186700821
1768418365130936800,4.118936767578125,0.05451171100139618,0.11024288088083267,-0.17585144937038422
1768418365140937700,4.128937744140625,0.014012488536536694,0.09412836283445358,-0.11908537894487381
1768418365150939600,4.138939697265625,0.005086637567728758,0.13788223266601562,-0.11917246133089066
1768418365160940500,4.1489404296875,0.018738800659775734,0.20156773924827576,-0.21487076580524445
1768418365170942000,4.15894189453125,0.01691453531384468,0.2229747623205185,-0.3953728973865509
1768418365180942800,4.16894287109375,-0.052561212331056595,0.18478024005889893,-0.5796034336090088
1768418365190943700,4.17894384765625,-0.19074225425720215,0.07524974644184113,-0.6877975463867188
1768418365200946000,4.18894580078125,-0.3718838095664978,-0.10727851837873459,-0.6608588695526123
1768418365210946800,4.19894677734375,-0.5075971484184265,-0.24807745218276978,-0.482558935880661
1768418365220947700,4.20894775390625,-0.481259822845459,-0.287401407957077,-0.20764879882335663
1768418365230948600,4.218948486328125,-0.36487624049186707,-0.30744197964668274,0.11888644099235535
1768418365240949800,4.22894970703125,-0.28240931034088135,-0.4863603115081787,0.4115481376647949
1768418365250951700,4.23895166015625,-0.2508969306945801,-0.7144920229911804,0.5550802946090698
1768418365260952800,4.248952880859375,-0.23694810271263123,-0.8342801928520203,0.4615479111671448
1768418365270953700,4.25895361328125,-0.22297289967536926,-0.8797904253005981,0.1835772842168808
1768418365280955000,4.268954833984375,-0.26805436611175537,-0.9008829593658447,-0.15380874276161194
1768418365290955800,4.278955810546875,-0.3258654475212097,-0.7959112524986267,-0.5058363080024719
1768418365300957700,4.288957763671875,-0.2881774604320526,-0.49989768862724304,-0.7605007886886597
1768418365310958800,4.298958740234375,-0.22074063122272491,-0.143922820687294,-0.8025590181350708
1768418365320959700,4.308959716796875,-0.15760374069213867,0.09595528990030289,-0.7215286493301392
1768418365330960600,4.318960693359375,-0.12165772169828415,0.17469671368598938,-0.5820040106773376
1768418365340961800,4.3289619140625,-0.12948821485042572,0.1799202263355255,-0.4281819760799408
1768418365350963700,4.338963623046875,-0.11328741163015366,0.1875680387020111,-0.2782531976699829
1768418365360964900,4.34896484375,-0.039496809244155884,0.21177057921886444,-0.1363043189048767
1768418365370965800,4.3589658203125,0.07129788398742676,0.21449045836925507,-0.014337926171720028
1768418365380966700,4.368966552734375,0.18604150414466858,0.17068199813365936,0.03618143871426582
1768418365390967800,4.3789677734375,0.2625005841255188,0.11371564865112305,0.011519769206643105
1768418365400969700,4.3889697265625,0.2772795557975769,0.04380633682012558,-0.05390850454568863
1768418365410970600,4.398970703125,0.23848474025726318,0.046064697206020355,-0.12876516580581665
1768418365420971500,4.408971435546875,0.16524487733840942,0.05499693751335144,-0.17555265128612518
1768418365430973000,4.418972900390625,0.10510244965553284,0.04884104058146477,-0.1964760422706604
1768418365440973800,4.428973876953125,0.08009830117225647,0.051853079348802567,-0.19300781190395355
1768418365450975700,4.438975830078125,0.0854611024260521,0.09623119235038757,-0.1760392040014267
1768418365460977000,4.448976806640625,0.12910179793834686,0.1493719071149826,-0.15264040231704712
1768418365470977800,4.458977783203125,0.1606930047273636,0.17405489087104797,-0.13053910434246063
1768418365480978700,4.468978759765625,0.18325157463550568,0.13762444257736206,-0.1086529791355133
1768418365490979600,4.4789794921875,0.19065037369728088,0.10466915369033813,-0.04986529424786568
1768418365500981800,4.488981689453125,0.19895943999290466,0.10966125130653381,0.01648869551718235
1768418365510982700,4.498982666015625,0.21089492738246918,0.12651346623897552,0.06137707456946373
1768418365520983800,4.50898388671875,0.21193142235279083,0.17400482296943665,0.07016976922750473
1768418365530984700,4.518984619140625,0.18671847879886627,0.2126651257276535,0.04568732529878616
1768418365540985900,4.52898583984375,0.14810238778591156,0.25927817821502686,-0.004208859521895647
1768418365550987800,4.53898779296875,0.09370998293161392,0.28598594665527344,-0.056893374770879745
1768418365560988700,4.54898876953125,0.038731418550014496,0.30803558230400085,-0.09231847524642944
1768418365570989300,4.5589892578125,0.0017395768081769347,0.35055482387542725,-0.10592083632946014
1768418365580990200,4.568990234375,-0.021579593420028687,0.3820759952068329,-0.10491656512022018
1768418365590991400,4.578991455078125,-0.03662698715925217,0.40925168991088867,-0.09739766269922256
1768418365600993300,4.5889931640625,-0.054249923676252365,0.3948482573032379,-0.07702580839395523
1768418365610994400,4.598994384765625,-0.0764247328042984,0.3288838863372803,-0.06178427115082741
1768418365620995300,4.608995361328125,-0.0859077200293541,0.2362426221370697,-0.052018195390701294
1768418365630996500,4.61899658203125,-0.0964498370885849,0.12189501523971558,-0.10198868066072464
1768418365640997400,4.628997314453125,-0.12199807912111282,0.01272724661976099,-0.21093887090682983
1768418365650999300,4.638999267578125,-0.16779272258281708,-0.08103279769420624,-0.3254409432411194
1768418365661000400,4.64900048828125,-0.22896499931812286,-0.15570411086082458,-0.3696363568305969
1768418365671001300,4.65900146484375,-0.3013142943382263,-0.2028508484363556,-0.3357364535331726
1768418365681002500,4.66900244140625,-0.3576497435569763,-0.23587004840373993,-0.28478938341140747
1768418365691004200,4.679004150390625,-0.3983692228794098,-0.3177984654903412,-0.2858935296535492
1768418365701005600,4.689005615234375,-0.4381227493286133,-0.43681779503822327,-0.35222089290618896
1768418365711006500,4.69900634765625,-0.45500773191452026,-0.49821937084198,-0.4316299557685852
1768418365721007400,4.70900732421875,-0.3727504014968872,-0.47140055894851685,-0.4823243021965027
1768418365731008300,4.71900830078125,-0.19731147587299347,-0.33455294370651245,-0.44817832112312317
1768418365741009400,4.729009521484375,-0.013406619429588318,-0.09444154798984528,-0.33835726976394653
1768418365751011300,4.73901123046875,0.1871967911720276,0.15510836243629456,-0.24581722915172577
1768418365761012200,4.74901220703125,0.3689868152141571,0.2908281087875366,-0.1397310048341751
1768418365771013400,4.759013427734375,0.5233428478240967,0.3239551782608032,0.011981561779975891
1768418365781014500,4.7690146484375,0.5976895093917847,0.3526030480861664,0.14815138280391693
1768418365791015400,4.779015380859375,0.6424018740653992,0.48841121792793274,0.24428243935108185
1768418365801017300,4.789017333984375,0.6926509141921997,0.6619899272918701,0.3481734097003937
1768418365811018500,4.7990185546875,0.6869147419929504,0.5796849727630615,0.532067596912384
1768418365821019400,4.809019287109375,0.6333508491516113,0.5310729146003723,0.780639111995697
1768418365831020300,4.819020263671875,0.5082619190216064,1.155943512916565,0.7018505334854126
1768418365841022500,4.8290224609375,0.32158228754997253,1.1237269639968872,0.24934270977973938
1768418365851023400,4.8390234375,0.21170133352279663,0.9209163188934326,-0.13636156916618347
1768418365861024300,4.849024169921875,0.1450709104537964,0.8546594977378845,-0.304246187210083
1768418365871025400,4.859025390625,0.09680324047803879,0.6481609344482422,-0.3446761667728424
1768418365881026300,4.8690263671875,0.05513409152626991,0.3468037545681,-0.30962470173835754
1768418365891028500,4.879028564453125,0.04728176072239876,0.1631721407175064,-0.14695775508880615
1768418365901029400,4.889029296875,0.06701285392045975,-0.00026738137239590287,0.11190363019704819
1768418365911030300,4.8990302734375,0.07494135200977325,-0.15491607785224915,0.32725989818573
1768418365921031400,4.909031494140625,0.005338040180504322,-0.17456860840320587,0.3516123592853546
1768418365931032300,4.9190322265625,-0.05884920060634613,0.042272355407476425,0.3526379466056824
1768418365941034200,4.9290341796875,-0.07283399254083633,0.26813024282455444,0.48177435994148254
1768418365951035100,4.93903515625,-0.07609716802835464,0.33714979887008667,0.6435979008674622
1768418365961036500,4.94903662109375,-0.12459439039230347,0.2368716597557068,0.644963264465332
1768418365971037400,4.959037353515625,-0.2276318222284317,0.15636776387691498,0.48209473490715027
1768418365981038300,4.969038330078125,-0.2696080505847931,0.17132781445980072,0.29647427797317505
1768418365991040500,4.97904052734375,-0.2520948350429535,0.2699771523475647,0.17866401374340057
1768418366001041400,4.98904150390625,-0.22355292737483978,0.37593182921409607,0.12667033076286316
1768418366011042300,4.999042236328125,-0.20035280287265778,0.4783881604671478,0.10813605785369873
1768418366021043200,5.009043212890625,-0.1819130778312683,0.6035308837890625,0.09474275261163712
1768418366031044600,5.019044677734375,-0.1766599863767624,0.7016329765319824,0.08242936432361603
1768418366041046300,5.02904638671875,-0.17728503048419952,0.7700013518333435,0.08906276524066925
1768418366051047400,5.03904736328125,-0.1832398623228073,0.8105360269546509,0.13010208308696747
1768418366061048300,5.04904833984375,-0.19136649370193481,0.8499012589454651,0.19134706258773804
1768418366071049500,5.059049560546875,-0.21223635971546173,0.8987463116645813,0.2658420503139496
1768418366081050400,5.06905029296875,-0.2481970191001892,0.8887149691581726,0.3204888105392456
1768418366091052300,5.07905224609375,-0.25585946440696716,0.8187366724014282,0.3494027256965637
1768418366101053400,5.089053466796875,-0.22714181244373322,0.7282803058624268,0.3595203459262848
1768418366111054300,5.099054443359375,-0.16961219906806946,0.6298754215240479,0.3567298948764801
1768418366121055500,5.109055419921875,-0.09097358584403992,0.5475733280181885,0.33666908740997314
1768418366131056400,5.119056396484375,-0.002395513467490673,0.5024274587631226,0.3154407739639282
1768418366141058600,5.12905859375,0.10175299644470215,0.4921516478061676,0.307346373796463
1768418366151059500,5.1390595703125,0.20303726196289062,0.4934169054031372,0.31632548570632935
1768418366161060400,5.149060302734375,0.2861529290676117,0.49728140234947205,0.3453185260295868
1768418366171061200,5.159061279296875,0.3575006127357483,0.4928232729434967,0.35559672117233276
1768418366181062400,5.1690625,0.38747236132621765,0.4812971353530884,0.3273738622665405
1768418366191064300,5.179064208984375,0.39973726868629456,0.5113623738288879,0.28441867232322693
1768418366201065200,5.189065185546875,0.394207239151001,0.5930539965629578,0.24659539759159088
1768418366211066400,5.19906640625,0.37066274881362915,0.684777021408081,0.1775076687335968
1768418366221067500,5.209067626953125,0.31505754590034485,0.7164760828018188,0.06910716742277145
1768418366231068400,5.219068359375,0.22362563014030457,0.6562063694000244,-0.05235534906387329
1768418366241070300,5.2290703125,0.10803192853927612,0.5411599278450012,-0.1684606522321701
1768418366251071500,5.239071533203125,-0.014099041000008583,0.4233155846595764,-0.25515052676200867
1768418366261072400,5.249072265625,-0.1298312395811081,0.3186962306499481,-0.2884807884693146
1768418366271073300,5.2590732421875,-0.2544083297252655,0.2117559313774109,-0.28089451789855957
1768418366281074200,5.26907421875,-0.38903483748435974,0.12368892133235931,-0.2612723410129547
1768418366291076400,5.279076416015625,-0.5243164896965027,0.0792093351483345,-0.25643390417099
1768418366301077200,5.2890771484375,-0.6280114650726318,0.08550052344799042,-0.2709398865699768
1768418366311078400,5.299078369140625,-0.6359668374061584,0.1610029935836792,-0.2757799029350281
1768418366321079600,5.30907958984375,-0.5126875638961792,0.33679160475730896,-0.21763858199119568
1768418366331080400,5.31908056640625,-0.3235304057598114,0.5340820550918579,-0.044979460537433624
1768418366341082400,5.329082275390625,-0.15996304154396057,0.5560483336448669,0.19833466410636902
1768418366351083300,5.339083251953125,-0.11085434257984161,0.3438585698604584,0.347506046295166
1768418366361084400,5.34908447265625,-0.15370061993598938,0.021628595888614655,0.27352848649024963
1768418366371085300,5.359085205078125,-0.24597647786140442,-0.2914033532142639,-0.01116130780428648
1768418366381086500,5.36908642578125,-0.3862398564815521,-0.44149723649024963,-0.36072036623954773
1768418366391088400,5.37908837890625,-0.5550267100334167,-0.49204298853874207,-0.6395794153213501
1768418366401089500,5.389089599609375,-0.6519940495491028,-0.5230664014816284,-0.8042240142822266
1768418366411090400,5.39909033203125,-0.5878763198852539,-0.4524468183517456,-0.8211241960525513
1768418366421091300,5.40909130859375,-0.41628962755203247,-0.3085344135761261,-0.6393895745277405
1768418366431092200,5.41909228515625,-0.22832079231739044,-0.1492326259613037,-0.3827822804450989
1768418366441094400,5.429094482421875,-0.07915394008159637,-0.01913907378911972,-0.13846147060394287
1768418366451095300,5.43909521484375,-0.00948245171457529,0.05067223310470581,0.03591672331094742
1768418366461096200,5.44909619140625,0.05620308592915535,0.032587770372629166,0.060262009501457214
1768418366471097300,5.459097412109375,0.1618083417415619,-0.016078036278486252,-0.029268139973282814
1768418366481098500,5.469098388671875,0.2633730471134186,-0.07339166104793549,-0.1473846584558487
1768418366491100400,5.479100341796875,0.3148362338542938,-0.1883709728717804,-0.25358858704566956
1768418366501101600,5.4891015625,0.28493452072143555,-0.314262330532074,-0.2880123555660248
1768418366511102500,5.4991025390625,0.24478711187839508,-0.3732028901576996,-0.2720102071762085
1768418366521103400,5.509103271484375,0.21546997129917145,-0.38388508558273315,-0.25393372774124146
1768418366531104300,5.519104248046875,0.19775249063968658,-0.38374394178390503,-0.2461511790752411
1768418366541106400,5.5291064453125,0.1973615437746048,-0.346950501203537,-0.21781274676322937
1768418366551107300,5.539107421875,0.2106078416109085,-0.3088766038417816,-0.1521730273962021
1768418366561108200,5.549108154296875,0.22516733407974243,-0.28658196330070496,-0.06645864993333817
1768418366571110000,5.55910986328125,0.22334200143814087,-0.2876823842525482,0.010076336562633514
1768418366581112000,5.569112060546875,0.20038077235221863,-0.30310049653053284,0.06610977649688721
1768418366591113200,5.57911328125,0.18753235042095184,-0.32180413603782654,0.10324995219707489
1768418366601114000,5.589114013671875,0.20687568187713623,-0.32872089743614197,0.12717179954051971
1768418366611115300,5.599115234375,0.2225092351436615,-0.2938025891780853,0.13795174658298492
1768418366621116200,5.6091162109375,0.22856499254703522,-0.263752818107605,0.12556591629981995
1768418366631118000,5.6191181640625,0.23164361715316772,-0.283253014087677,0.11901161074638367
1768418366641119200,5.629119140625,0.22921188175678253,-0.24709713459014893,0.08049830794334412
1768418366651120000,5.6391201171875,0.24279427528381348,-0.19575431942939758,-0.0177004337310791
1768418366661121000,5.64912109375,0.257997989654541,-0.12149900197982788,-0.1266154646873474
1768418366671122200,5.6591220703125,0.2685936391353607,-0.09562399238348007,-0.21573388576507568
1768418366681124000,5.6691240234375,0.23642265796661377,-0.11998685449361801,-0.27905774116516113
1768418366691125200,5.679125244140625,0.1774786412715912,-0.13666090369224548,-0.328754723072052
1768418366701126100,5.689126220703125,0.10420043766498566,-0.15044809877872467,-0.3408569097518921
1768418366711127000,5.699126953125,0.045227132737636566,-0.18036791682243347,-0.3044368624687195
1768418366721128200,5.709128173828125,-0.014768293127417564,-0.23643064498901367,-0.2662002742290497
1768418366731130000,5.719130126953125,-0.08866062760353088,-0.3311710059642792,-0.2825073301792145
1768418366741131000,5.729131103515625,-0.1782456338405609,-0.46802765130996704,-0.349260538816452
1768418366751132000,5.7391318359375,-0.27515462040901184,-0.5773477554321289,-0.3889991343021393
1768418366761133300,5.74913330078125,-0.3301568627357483,-0.5745053887367249,-0.33063703775405884
1768418366771134200,5.75913427734375,-0.33528798818588257,-0.5283674001693726,-0.19834931194782257
1768418366781136100,5.76913623046875,-0.37299513816833496,-0.4804345369338989,-0.06049530208110809
1768418366791137300,5.77913720703125,-0.48049259185791016,-0.5117261409759521,-0.06914924085140228
1768418366801138200,5.78913818359375,-0.5500317215919495,-0.7270752191543579,-0.2614251971244812
1768418366811139000,5.79913916015625,-0.480397492647171,-0.7857686281204224,-0.43468594551086426
1768418366821140000,5.809139892578125,-0.25213611125946045,-0.43657386302948,-0.4689485728740692
1768418366831142100,5.81914208984375,0.09179889410734177,0.09741603583097458,-0.2906073331832886
1768418366841143000,5.82914306640625,0.3550124168395996,0.2956407070159912,-0.10458952933549881
1768418366851144200,5.839144287109375,0.424394428730011,0.10435649752616882,0.0020189424976706505
1768418366861145000,5.84914501953125,0.36920440196990967,-0.1224454864859581,0.040719468146562576
1768418366871146200,5.859146240234375,0.3712654113769531,-0.16247013211250305,0.035403262823820114
1768418366881148200,5.869148193359375,0.3654229938983917,-0.03292173147201538,0.10531603544950485
1768418366891149000,5.879149169921875,0.30341818928718567,-0.0476016066968441,0.3425099551677704
1768418366901150200,5.889150146484375,0.14986325800418854,-0.07792861759662628,0.5493558049201965
1768418366911151000,5.899151123046875,0.0917416363954544,-0.08873173594474792,0.44242537021636963
1768418366921152000,5.909152099609375,0.16697514057159424,-0.08056621253490448,0.07734005898237228
1768418366931154000,5.91915380859375,0.2653712034225464,-0.057734668254852295,-0.29960402846336365
1768418366941155000,5.929155029296875,0.22232654690742493,-0.019894080236554146,-0.355389803647995
1768418366951156200,5.93915625,0.16576100885868073,-0.03873914107680321,-0.19336439669132233
1768418366961157000,5.9491572265625,0.2436603307723999,-0.026461968198418617,0.04959125444293022
1768418366971158000,5.959157958984375,0.453164279460907,-0.2139628827571869,0.21982316672801971
1768418366981160200,5.96916015625,0.545070230960846,-0.32773712277412415,0.17797400057315826
1768418366991161000,5.9791611328125,0.3801116347312927,-0.14418327808380127,0.14251559972763062
1768418367001162000,5.989161865234375,0.14246873557567596,0.09006704390048981,0.23281461000442505
1768418367011163100,5.9991630859375,-0.006405435036867857,0.33075714111328125,0.36743900179862976
1768418367021164300,6.009164306640625,-0.0656980499625206,0.40557652711868286,0.45891645550727844
1768418367031166000,6.019166015625,-0.12003292888402939,0.3023255169391632,0.42021670937538147
1768418367041167000,6.0291669921875,-0.21338976919651031,0.21401242911815643,0.269503653049469
1768418367051168300,6.039168212890625,-0.28784218430519104,0.16475673019886017,0.12699124217033386
1768418367061169200,6.049169189453125,-0.312806636095047,0.16109168529510498,0.05163176730275154
1768418367071170000,6.059170166015625,-0.2968175709247589,0.23951512575149536,0.027877436950802803
1768418367081172200,6.069172119140625,-0.25056856870651245,0.3420121967792511,0.044548291712999344
1768418367091173000,6.079173095703125,-0.1740650087594986,0.4577374756336212,0.07803142070770264
1768418367101174000,6.089174072265625,-0.0919664055109024,0.5465764999389648,0.10899492353200912
1768418367111175200,6.099175048828125,-0.03513694927096367,0.5849071145057678,0.1198960468173027
1768418367121177000,6.109177001953125,-0.020671723410487175,0.5672605037689209,0.12019378691911697
1768418367131178200,6.11917822265625,-0.04241243749856949,0.5060983300209045,0.14051850140094757
1768418367141179100,6.12917919921875,-0.06721845269203186,0.4767734706401825,0.18737255036830902
1768418367151180000,6.139179931640625,-0.07613497972488403,0.4358958303928375,0.24652375280857086
1768418367161181200,6.14918115234375,-0.06009955704212189,0.39813724160194397,0.2970183491706848
1768418367171183000,6.15918310546875,-0.023433420807123184,0.37153202295303345,0.32160893082618713
1768418367181184000,6.16918408203125,0.01841629110276699,0.3314889967441559,0.3230409026145935
1768418367191185200,6.17918505859375,0.06999160349369049,0.27208876609802246,0.30517616868019104
1768418367201186300,6.189186279296875,0.10069012641906738,0.1996004581451416,0.2658601701259613
1768418367211187200,6.199187255859375,0.12104519456624985,0.1772110015153885,0.24487926065921783
1768418367221189000,6.209189208984375,0.1604812890291214,0.17255713045597076,0.2585676312446594
1768418367231190300,6.219190185546875,0.21232478320598602,0.1607382893562317,0.2747412919998169
1768418367241191200,6.229191162109375,0.2347501963376999,0.11158564686775208,0.27746304869651794
1768418367251192000,6.239192138671875,0.23315681517124176,0.07863009721040726,0.2596622109413147
1768418367261193000,6.24919287109375,0.22779934108257294,0.1050177589058876,0.2060471773147583
1768418367271195100,6.259195068359375,0.2214982956647873,0.18263399600982666,0.11352496594190598
1768418367281196000,6.269196044921875,0.2033829540014267,0.28815987706184387,-0.011722702533006668
1768418367291197200,6.279197265625,0.18980242311954498,0.3644823431968689,-0.12635713815689087
1768418367301198300,6.2891982421875,0.1674869954586029,0.3464471697807312,-0.2171728014945984
1768418367311199200,6.29919921875,0.10014045238494873,0.2794734537601471,-0.2878650724887848
1768418367321201200,6.309201171875,-0.023250460624694824,0.21150238811969757,-0.3122524321079254
1768418367331202000,6.3192021484375,-0.21034790575504303,0.11417504400014877,-0.3142136037349701
1768418367341203200,6.329203125,-0.45079725980758667,0.06106921285390854,-0.31627169251441956
1768418367351204000,6.3392041015625,-0.6657655239105225,0.09357602149248123,-0.35369014739990234
1768418367361205000,6.349205078125,-0.7681968212127686,0.21154819428920746,-0.3909839987754822
1768418367371207200,6.359207275390625,-0.6982187628746033,0.37414562702178955,-0.35837653279304504
1768418367381208000,6.3692080078125,-0.5362623929977417,0.5357361435890198,-0.18695923686027527
1768418367391209200,6.379209228515625,-0.36159762740135193,0.5911394953727722,0.11043117195367813
1768418367401210000,6.389210205078125,-0.21617144346237183,0.44240936636924744,0.3883568048477173
1768418367411211000,6.3992109375,-0.20324020087718964,0.06270306557416916,0.4550924003124237
1768418367421213200,6.409213134765625,-0.40404361486434937,-0.3743400573730469,0.24954697489738464
1768418367431214000,6.419214111328125,-0.6875288486480713,-0.6514259576797485,-0.06355208158493042
1768418367441215000,6.429215087890625,-0.8602510690689087,-0.7386905550956726,-0.21587397158145905
1768418367451216100,6.439216064453125,-0.914092481136322,-0.8215766549110413,-0.2057960331439972
1768418367461217300,6.44921728515625,-0.8640548586845398,-0.7684543132781982,-0.18969322741031647
1768418367471219000,6.459218994140625,-0.6294732689857483,-0.5912284255027771,-0.20155228674411774
1768418367481220000,6.46922021484375,-0.3283275365829468,-0.33934611082077026,-0.13310931622982025
1768418367491221200,6.47922119140625,-0.06698249280452728,-0.17311185598373413,0.006599313113838434
1768418367501222100,6.48922216796875,0.0666530653834343,-0.15629586577415466,0.11073663085699081
1768418367511223000,6.49922314453125,0.12405989319086075,-0.16898475587368011,0.11910109221935272
1768418367521225200,6.50922509765625,0.21435996890068054,-0.12142789363861084,0.018073275685310364
1768418367531226000,6.51922607421875,0.2760494351387024,-0.13682149350643158,-0.13727156817913055
1768418367541227000,6.52922705078125,0.28224340081214905,-0.18524575233459473,-0.24197055399417877
1768418367551228200,6.539228271484375,0.21624362468719482,-0.24256762862205505,-0.2898712456226349
1768418367561229300,6.549229248046875,0.0998203381896019,-0.2993811070919037,-0.31185004115104675
1768418367571230500,6.55923046875,0.007787881884723902,-0.3279363214969635,-0.3154466450214386
1768418367581231400,6.5692314453125,-0.047810398042201996,-0.34296348690986633,-0.2767421305179596
1768418367591232300,6.579232177734375,-0.06623973697423935,-0.33094197511672974,-0.19577190279960632
1768418367601233400,6.5892333984375,-0.06535663455724716,-0.2980327606201172,-0.09038954973220825
1768418367611234300,6.599234375,-0.04680026322603226,-0.27321237325668335,0.01019937451928854
1768418367621236200,6.609236328125,-0.020779047161340714,-0.24799250066280365,0.09472730755805969
1768418367631237600,6.619237548828125,0.021106351166963577,-0.25950348377227783,0.148593470454216
1768418367641238500,6.629238525390625,0.06873725354671478,-0.2873758375644684,0.16683904826641083
1768418367651239400,6.639239501953125,0.10829078406095505,-0.2863720953464508,0.17806321382522583
1768418367661240300,6.649240234375,0.1389717310667038,-0.26161670684814453,0.17537368834018707
1768418367671242500,6.659242431640625,0.15025661885738373,-0.25702008605003357,0.17973487079143524
1768418367681243400,6.669243408203125,0.14837615191936493,-0.26483646035194397,0.2050468921661377
1768418367691244300,6.679244384765625,0.13068823516368866,-0.23475392162799835,0.2365076094865799
1768418367701245200,6.6892451171875,0.11849042773246765,-0.23139940202236176,0.23420824110507965
1768418367711246600,6.69924658203125,0.09910660982131958,-0.219072163105011,0.200485959649086
1768418367721248500,6.70924853515625,0.06805601716041565,-0.21385183930397034,0.1736423671245575
1768418367731249400,6.71924951171875,0.048582714051008224,-0.20053522288799286,0.13904817402362823
1768418367741250600,6.72925048828125,0.027345603331923485,-0.167925626039505,0.10063100606203079
1768418367751251500,6.73925146484375,0.007513576187193394,-0.15678827464580536,0.05363206937909126
1768418367761253400,6.74925341796875,-0.014984807930886745,-0.174313485622406,-0.008387626148760319
1768418367771254300,6.759254150390625,-0.046964578330516815,-0.20987120270729065,-0.07891665399074554
1768418367781255400,6.76925537109375,-0.09687355160713196,-0.2744848132133484,-0.20120660960674286
1768418367791256300,6.77925634765625,-0.17102713882923126,-0.37794196605682373,-0.3687801659107208
1768418367801257500,6.789257568359375,-0.2435426115989685,-0.5407556295394897,-0.47686776518821716
1768418367811259400,6.79925927734375,-0.30836474895477295,-0.7333317399024963,-0.4316968023777008
1768418367821260500,6.809260498046875,-0.3781560957431793,-0.8670903444290161,-0.2998919188976288
1768418367831261400,6.819261474609375,-0.435864120721817,-0.8989849090576172,-0.25580593943595886
1768418367841262300,6.829262451171875,-0.4322739243507385,-0.8488234877586365,-0.3331010043621063
1768418367851263500,6.839263427734375,-0.329163521528244,-0.7581843733787537,-0.4175538420677185
1768418367861265400,6.849265380859375,-0.14955194294452667,-0.5506341457366943,-0.3807641267776489
1768418367871266300,6.859266357421875,0.06672123819589615,-0.2762875258922577,-0.2795397639274597
1768418367881267200,6.86926708984375,0.30889660120010376,-0.07355837523937225,-0.21429258584976196
1768418367891268600,6.8792685546875,0.4836859703063965,0.07369525730609894,-0.18724313378334045
1768418367901269500,6.88926953125,0.574874222278595,0.23263217508792877,-0.08069085329771042
1768418367911271400,6.899271484375,0.6334160566329956,0.4070199728012085,0.10996884107589722
1768418367921272600,6.9092724609375,0.7115774750709534,0.6070297360420227,0.3154924511909485
1768418367931273500,6.9192734375,0.7270458936691284,0.8050339221954346,0.42591243982315063
1768418367941274400,6.9292744140625,0.6369625926017761,0.8360152840614319,0.32552775740623474
1768418367951275300,6.939275146484375,0.49216336011886597,0.884345531463623,0.04815501347184181
1768418367961277400,6.94927734375,0.37894412875175476,1.0362972021102905,-0.20540614426136017
1768418367971278300,6.9592783203125,0.3635880649089813,1.1685599088668823,-0.1673991084098816
1768418367981279500,6.969279541015625,0.4803903102874756,1.013837456703186,-0.0005597964627668262
1768418367991280400,6.9792802734375,0.554848849773407,0.609697699546814,0.0768260732293129
1768418368001281500,6.989281494140625,0.5072616338729858,0.30302566289901733,0.10535358637571335
1768418368011283500,6.999283447265625,0.4605926275253296,0.10050556808710098,0.1009625643491745
1768418368021284400,7.009284423828125,0.434893935918808,-0.018849054351449013,0.02828117273747921
1768418368031285500,7.019285400390625,0.3380078673362732,0.07593577355146408,-0.062488678842782974
1768418368041286400,7.029286376953125,0.15296664834022522,0.28784963488578796,-0.039922647178173065
1768418368051287300,7.039287353515625,0.0019233349012210965,0.5127876400947571,0.11589464545249939
1768418368061289200,7.049289306640625,-0.06612469255924225,0.690158486366272,0.26848578453063965
1768418368071290400,7.059290283203125,-0.12262258678674698,0.7690309286117554,0.30364909768104553
1768418368081291500,7.06929150390625,-0.2109154313802719,0.7508148550987244,0.21898427605628967
1768418368091292400,7.07929248046875,-0.2969166338443756,0.6963513493537903,0.13047651946544647
1768418368101293300,7.089293212890625,-0.3227836489677429,0.6796000599861145,0.09371450543403625
1768418368111295500,7.09929541015625,-0.3086625039577484,0.7296214699745178,0.11094595491886139
1768418368121296400,7.10929638671875,-0.2921263873577118,0.7974156737327576,0.1509234756231308
1768418368131297300,7.11929736328125,-0.2912880480289459,0.8437418937683105,0.18687240779399872
1768418368141298400,7.12929833984375,-0.30493220686912537,0.8860086798667908,0.20161274075508118
1768418368151299600,7.139299560546875,-0.3084595799446106,0.9481300711631775,0.22840654850006104
1768418368161301200,7.14930126953125,-0.3005332052707672,1.0386046171188354,0.27801191806793213
1768418368171302400,7.159302490234375,-0.2910107970237732,0.9998129606246948,0.37181058526039124
1768418368181303600,7.169303466796875,-0.2939557135105133,0.9050995111465454,0.48156237602233887
1768418368191304400,7.179304443359375,-0.28040823340415955,0.7561246752738953,0.5649283528327942
1768418368201305300,7.189305419921875,-0.22057099640369415,0.6383450627326965,0.5991255044937134
1768418368211307500,7.1993076171875,-0.1294056624174118,0.505990207195282,0.5853891968727112
1768418368221308400,7.209308349609375,-0.06391320377588272,0.3622037470340729,0.5389441847801208
1768418368231309300,7.219309326171875,-0.0322631299495697,0.27410078048706055,0.4924515187740326
1768418368241310500,7.229310546875,0.011302455328404903,0.1966288983821869,0.4555661976337433
1768418368251311400,7.239311279296875,0.07024779915809631,0.13284114003181458,0.4423995316028595
1768418368261313500,7.2493134765625,0.1407768279314041,0.05489387363195419,0.4339793920516968
1768418368271314400,7.259314453125,0.2165972888469696,-0.025368472561240196,0.4377155601978302
1768418368281315300,7.2693154296875,0.29608359932899475,-0.04927220940589905,0.4301607012748718
1768418368291316500,7.27931640625,0.3522363305091858,-0.005543369799852371,0.36837854981422424
1768418368301317400,7.2893173828125,0.3667351305484772,0.09356057643890381,0.23259089887142181
1768418368311319300,7.2993193359375,0.3501548171043396,0.21404597163200378,0.05109700560569763
1768418368321320400,7.309320556640625,0.3173491954803467,0.29736483097076416,-0.10421454906463623
1768418368331321600,7.319321533203125,0.254336953163147,0.2982521951198578,-0.16122165322303772
1768418368341322500,7.329322509765625,0.180217444896698,0.21139666438102722,-0.12262871116399765
1768418368351323400,7.339323486328125,0.118754081428051,0.10909666121006012,-0.06431107968091965
1768418368361325600,7.34932568359375,0.08583607524633408,0.12067102640867233,-0.0728430449962616
1768418368371326500,7.359326416015625,0.07745670527219772,0.2628380060195923,-0.13965590298175812
1768418368381327400,7.369327392578125,0.04182201623916626,0.44809097051620483,-0.26101988554000854
1768418368391328300,7.379328369140625,-0.07284864038228989,0.551272988319397,-0.4235776364803314
1768418368401329400,7.389329345703125,-0.30181124806404114,0.5279349088668823,-0.5389665365219116
1768418368411331300,7.399331298828125,-0.6031412482261658,0.41851603984832764,-0.5406283736228943
1768418368421332500,7.40933251953125,-0.7987179756164551,0.25540807843208313,-0.3762359619140625
1768418368431333400,7.41933349609375,-0.7468302845954895,0.11879322677850723,-0.043111782521009445
1768418368441334500,7.42933447265625,-0.6271677613258362,-0.060752030462026596,0.3836238384246826
1768418368451335400,7.43933544921875,-0.548578679561615,-0.4292243421077728,0.7759678959846497
1768418368461337300,7.44933740234375,-0.6099557876586914,-0.872773289680481,0.7094969749450684
1768418368471338500,7.45933837890625,-0.6723358035087585,-1.0920846462249756,0.09406337887048721
1768418368481339400,7.46933935546875,-0.5631307363510132,-1.0915607213974,-0.5451821088790894
1768418368491340300,7.47934033203125,-0.5201555490493774,-0.9911792874336243,-0.900202214717865
1768418368501342500,7.489342529296875,-0.46719780564308167,-0.9654092192649841,-1.0338423252105713
1768418368511343400,7.49934326171875,-0.25544828176498413,-0.9369261860847473,-0.878373384475708
1768418368521344500,7.509344482421875,-0.08986890316009521,-0.7156845927238464,-0.46762579679489136
1768418368531345400,7.519345458984375,-0.002364886924624443,-0.5506066679954529,-0.0741482600569725
1768418368541346300,7.52934619140625,0.041909098625183105,-0.5235825181007385,0.1304674595594406
1768418368551348500,7.539348388671875,0.043595679104328156,-0.45346441864967346,0.10033778846263885
1768418368561349400,7.549349365234375,0.1093406081199646,-0.3772532641887665,-0.11029987782239914
1768418368571350500,7.5593505859375,0.26227980852127075,-0.23764531314373016,-0.31813135743141174
1768418368581351400,7.569351318359375,0.39376300573349,-0.15384894609451294,-0.4117364287376404
1768418368591352600,7.5793525390625,0.3886880874633789,-0.19246771931648254,-0.4429965913295746
1768418368601354500,7.5893544921875,0.3142455518245697,-0.26800107955932617,-0.47425705194473267
1768418368611355600,7.599355712890625,0.2546256184577942,-0.3140631318092346,-0.4812651574611664
1768418368621356800,7.609356689453125,0.24118173122406006,-0.32268351316452026,-0.466529905796051
1768418368631357700,7.619357666015625,0.2612294554710388,-0.30372846126556396,-0.4391099810600281
1768418368641358600,7.629358642578125,0.27415165305137634,-0.2780342698097229,-0.3807617127895355
1768418368651360500,7.639360595703125,0.2824271619319916,-0.2850240170955658,-0.29048189520835876
1768418368661361700,7.649361572265625,0.2861931324005127,-0.29678773880004883,-0.19390235841274261
1768418368671362600,7.659362548828125,0.31749221682548523,-0.3076941668987274,-0.10909639298915863
1768418368681363500,7.669363525390625,0.3562558591365814,-0.3468567430973053,-0.019000589847564697
1768418368691364600,7.679364501953125,0.345310777425766,-0.3594108819961548,0.049439188092947006
1768418368701366800,7.68936669921875,0.2894826829433441,-0.35675573348999023,0.06643415242433548
1768418368711367700,7.69936767578125,0.22533218562602997,-0.2890525758266449,0.04484416916966438
1768418368721368600,7.70936865234375,0.18092291057109833,-0.2269953340291977,0.007765511516481638
1768418368731369700,7.71936962890625,0.1197061613202095,-0.18110667169094086,-0.01949220895767212
1768418368741370600,7.72937060546875,0.06679021567106247,-0.11066126823425293,-0.027090473100543022
1768418368751372500,7.73937255859375,0.036615535616874695,-0.032227709889411926,-0.03996738791465759
1768418368761373400,7.74937353515625,0.005541505757719278,0.00833862368017435,-0.061770956963300705
1768418368771374600,7.75937451171875,-0.03696014732122421,0.004602741450071335,-0.08011667430400848
1768418368781375700,7.769375732421875,-0.07007203251123428,-0.019573168829083443,-0.0724683403968811
1768418368791376600,7.779376708984375,-0.09221141785383224,-0.047322243452072144,-0.06178134307265282
1768418368801378800,7.78937890625,-0.1098596528172493,-0.08763184398412704,-0.07782049477100372
1768418368811379700,7.799379638671875,-0.1290847510099411,-0.14184555411338806,-0.15269659459590912
1768418368821380600,7.809380615234375,-0.14733059704303741,-0.23811909556388855,-0.2939069867134094
1768418368831381500,7.819381591796875,-0.1782781332731247,-0.33662915229797363,-0.4396101236343384
1768418368841382700,7.829382568359375,-0.19614607095718384,-0.3932442367076874,-0.5149946212768555
1768418368851384600,7.839384521484375,-0.19464164972305298,-0.38816237449645996,-0.44311749935150146
1768418368861385500,7.849385498046875,-0.21130505204200745,-0.3882491886615753,-0.3348775804042816
1768418368871386600,7.85938671875,-0.30128422379493713,-0.46307602524757385,-0.3310847282409668
1768418368881387800,7.8693876953125,-0.37999022006988525,-0.5590614080429077,-0.44166556000709534
1768418368891388700,7.879388671875,-0.3252958059310913,-0.6072824597358704,-0.5132731795310974
1768418368901390600,7.889390625,-0.1172986626625061,-0.49372369050979614,-0.45709937810897827
1768418368911391700,7.899391845703125,0.14498701691627502,-0.2531808614730835,-0.33367809653282166
1768418368921392600,7.909392578125,0.3545524775981903,0.01570199802517891,-0.2296273410320282
1768418368931393500,7.9193935546875,0.47518622875213623,0.0920066237449646,-0.1123579666018486
1768418368941394700,7.929394775390625,0.5439903140068054,0.014030331745743752,0.10044777393341064
1768418368951396600,7.939396728515625,0.6378462314605713,-0.0371771976351738,0.37395069003105164
1768418368961397800,7.949397705078125,0.6870620250701904,-0.046058040112257004,0.5178080201148987
1768418368971398700,7.959398681640625,0.6119509935379028,-0.2567433714866638,0.3698294460773468
1768418368981399600,7.969399658203125,0.40999817848205566,-0.6311670541763306,0.10210985690355301
1768418368991400700,7.979400634765625,0.2969624400138855,-0.08822546899318695,-0.15363137423992157
1768418369001402600,7.989402587890625,0.28551775217056274,0.28660592436790466,-0.39887547492980957
1768418369011403500,7.999403564453125,0.26779603958129883,0.3842078447341919,-0.3983535170555115
1768418369021404700,8.00940478515625,0.31388869881629944,0.15693235397338867,-0.3226765990257263
1768418369031405600,8.019405517578125,0.362713485956192,-0.13469763100147247,-0.20397257804870605
1768418369041407500,8.029407470703125,0.35081925988197327,-0.2928209602832794,0.043597277253866196
1768418369051408600,8.03940869140625,0.4173434376716614,-0.5257586240768433,0.29144755005836487
1768418369061409800,8.049409912109375,0.45622798800468445,-0.6513738036155701,0.3199614882469177
1768418369071410700,8.05941064453125,0.30198249220848083,-0.3988879919052124,0.2257162183523178
1768418369081411600,8.06941162109375,0.05199076235294342,-0.02472212351858616,0.2379838079214096
1768418369091413800,8.079413818359376,-0.0916241928935051,0.29594510793685913,0.3594639003276825
1768418369101414700,8.08941455078125,-0.14484959840774536,0.5062810182571411,0.4326952397823334
1768418369111415600,8.09941552734375,-0.2121886909008026,0.6293297410011292,0.38081100583076477
1768418369121416400,8.10941650390625,-0.3091021776199341,0.6602977514266968,0.266708642244339
1768418369131417600,8.11941748046875,-0.37076979875564575,0.6159018278121948,0.15596775710582733
1768418369141419800,8.129419677734376,-0.39878228306770325,0.5439668893814087,0.08021361380815506
1768418369151420700,8.139420654296876,-0.3722827434539795,0.48497042059898376,0.06721153110265732
1768418369161421600,8.149421630859376,-0.32057666778564453,0.4896472096443176,0.11285411566495895
1768418369171422700,8.159422607421876,-0.24822792410850525,0.5534096360206604,0.17175976932048798
1768418369181423600,8.169423583984376,-0.19101069867610931,0.6542129516601562,0.21462202072143555
1768418369191425500,8.179425537109376,-0.15173760056495667,0.7337467074394226,0.21917203068733215
1768418369201426400,8.189426513671876,-0.15596430003643036,0.7320425510406494,0.21936245262622833
1768418369211427600,8.199427490234376,-0.18114155530929565,0.6974629759788513,0.2334207445383072
1768418369221428700,8.2094287109375,-0.16151991486549377,0.633381724357605,0.26871800422668457
1768418369231429600,8.2194296875,-0.14897802472114563,0.5746774077415466,0.34770604968070984
1768418369241431800,8.229431884765624,-0.13064536452293396,0.5219933986663818,0.4395557940006256
1768418369251432700,8.2394326171875,-0.07467343658208847,0.3750492334365845,0.49515300989151
1768418369261433600,8.24943359375,-0.034033067524433136,0.355392187833786,0.5139232277870178
1768418369271434500,8.2594345703125,0.008379636332392693,0.3479699492454529,0.4762030243873596
1768418369281436700,8.269436767578124,0.05831151083111763,0.35454824566841125,0.42840301990509033
1768418369291437600,8.2794375,0.1208164319396019,0.3464828431606293,0.400116503238678
1768418369301438500,8.2894384765625,0.17461548745632172,0.2787759602069855,0.40054795145988464
1768418369311439600,8.299439697265624,0.2065553069114685,0.1867336630821228,0.43008026480674744
1768418369321440800,8.309440673828124,0.21021315455436707,0.09474009275436401,0.44585418701171875
1768418369331442700,8.319442626953125,0.19415482878684998,0.06214193254709244,0.3886486887931824
1768418369341443600,8.329443603515625,0.166489377617836,0.1315055638551712,0.2512737810611725
1768418369351444700,8.33944482421875,0.1409347504377365,0.24702203273773193,0.08498147130012512
1768418369361445600,8.349445556640624,0.12873055040836334,0.34257280826568604,-0.035229094326496124
1768418369371446500,8.359446533203124,0.12853586673736572,0.3583541512489319,-0.07012156397104263
1768418369381448400,8.369448486328125,0.12547776103019714,0.2276182472705841,-0.0729604959487915
1768418369391449600,8.37944970703125,0.08463312685489655,0.0026019082870334387,-0.12183748930692673
1768418369401450800,8.38945068359375,-0.01571478135883808,-0.14364051818847656,-0.18589982390403748
1768418369411451600,8.39945166015625,-0.1062188446521759,-0.12941178679466248,-0.22839029133319855
1768418369421452500,8.40945263671875,-0.21363185346126556,-0.06272809952497482,-0.2919690012931824
1768418369431454700,8.419454833984375,-0.3822150230407715,0.020496485754847527,-0.39682725071907043
1768418369441455600,8.42945556640625,-0.600365161895752,0.14219389855861664,-0.5231928825378418
1768418369451456500,8.43945654296875,-0.7477128505706787,0.23089712858200073,-0.5679888725280762
1768418369461457700,8.449457763671875,-0.6171537637710571,0.2573052942752838,-0.32026296854019165
1768418369471459600,8.45945947265625,-0.36532390117645264,0.1422697901725769,0.18062996864318848
1768418369481460500,8.46946044921875,-0.3940170705318451,-0.16644011437892914,0.5771645307540894
1768418369491461600,8.479461669921875,-0.6013292670249939,-0.5441943407058716,0.6878281831741333
1768418369501462800,8.489462890625,-0.7852431535720825,-0.8070361018180847,0.5262691378593445
1768418369511463700,8.499463623046875,-0.9294967651367188,-0.8259730339050293,0.2279607355594635
1768418369521465600,8.509465576171875,-0.9549248814582825,-0.7359752058982849,-0.14765870571136475
1768418369531466800,8.519466796875,-0.8238328695297241,-0.5331224799156189,-0.5565095543861389
1768418369541467600,8.529467529296875,-0.481141060590744,-0.28025829792022705,-0.7799661159515381
1768418369551468500,8.539468505859375,-0.18494588136672974,0.003034672001376748,-0.7443215847015381
1768418369561470500,8.549470458984375,-0.01769324392080307,0.1663341224193573,-0.585030198097229
1768418369571472000,8.559471923828125,0.03025803714990616,0.2185445874929428,-0.4131132662296295
1768418369581472800,8.56947265625,0.02352183684706688,0.2264523208141327,-0.29692596197128296
1768418369591474000,8.579473876953125,0.07991427183151245,0.18318048119544983,-0.27108529210090637
1768418369601475000,8.58947509765625,0.1801154464483261,0.11787630617618561,-0.29142358899116516
1768418369611477000,8.59947705078125,0.22597721219062805,-0.011291536502540112,-0.31935667991638184
1768418369621478000,8.609477783203126,0.21812674403190613,-0.15295253694057465,-0.34048354625701904
1768418369631479000,8.61947900390625,0.1675269454717636,-0.2508260905742645,-0.3518427312374115
1768418369641480000,8.62947998046875,0.1086987853050232,-0.3003116250038147,-0.37980273365974426
1768418369651480800,8.639480712890625,0.09554756432771683,-0.3236459791660309,-0.4003937542438507
1768418369661482800,8.649482666015626,0.10953794419765472,-0.325320839881897,-0.38628140091896057
1768418369671484000,8.65948388671875,0.12349237501621246,-0.3035907745361328,-0.34705623984336853
1768418369681485000,8.669485107421876,0.16182245314121246,-0.27857092022895813,-0.3036656081676483
1768418369691486000,8.67948583984375,0.16839326918125153,-0.25968801975250244,-0.257508248090744
1768418369701488000,8.689488037109374,0.16363340616226196,-0.2564866542816162,-0.20168066024780273
1768418369711489000,8.699489013671876,0.19087114930152893,-0.2624790370464325,-0.12140525877475739
1768418369721490000,8.709489990234376,0.2526482343673706,-0.2347872108221054,-0.02526514232158661
1768418369731490800,8.71949072265625,0.3124886751174927,-0.21623829007148743,0.052795037627220154
1768418369741492000,8.729491943359376,0.3195742666721344,-0.18922877311706543,0.11843423545360565
1768418369751494000,8.739493896484374,0.29578718543052673,-0.14687493443489075,0.18134768307209015
1768418369761494800,8.749494873046874,0.2900667190551758,-0.1157713383436203,0.21394211053848267
1768418369771496000,8.759495849609374,0.28865790367126465,-0.07109148800373077,0.21189947426319122
1768418369781497000,8.7694970703125,0.28266364336013794,-0.008614793419837952,0.1878332793712616
1768418369791499000,8.7794990234375,0.26851269602775574,0.04616323485970497,0.1298927515745163
1768418369801500000,8.7895,0.22698600590229034,0.08026634156703949,0.026582607999444008
1768418369811501000,8.7995009765625,0.1555139571428299,0.08804703503847122,-0.12489080429077148
1768418369821502000,8.809501953125,0.06571536511182785,0.10204647481441498,-0.2578318119049072
1768418369831502800,8.8195029296875,-0.019360115751624107,0.10768038779497147,-0.3295009434223175
1768418369841504800,8.8295048828125,-0.07900054007768631,0.06773696839809418,-0.38845372200012207
1768418369851506000,8.839505859375,-0.13562653958797455,-0.03600620478391647,-0.455776572227478
1768418369861506800,8.8495068359375,-0.2101108878850937,-0.16940367221832275,-0.4979517459869385
1768418369871508000,8.859508056640625,-0.2956806421279907,-0.31476354598999023,-0.5070067644119263
1768418369881508900,8.8695087890625,-0.36173316836357117,-0.408481240272522,-0.4764789342880249
1768418369891511000,8.879510986328125,-0.4079853594303131,-0.4621146321296692,-0.3926559388637543
1768418369901512000,8.889511962890625,-0.4530732035636902,-0.5069846510887146,-0.28240320086479187
1768418369911512800,8.899512939453125,-0.4942004084587097,-0.566960334777832,-0.21781301498413086
1768418369921514000,8.909513916015625,-0.4480912387371063,-0.732905387878418,-0.22807444632053375
1768418369931516000,8.919515869140625,-0.26776832342147827,-0.7617679238319397,-0.23482581973075867
1768418369941516800,8.929516845703125,-0.0002894856152124703,-0.49356016516685486,-0.22424961626529694
1768418369951517700,8.939517578125,0.260090708732605,-0.13558046519756317,-0.2141897827386856
1768418369961519000,8.94951904296875,0.4515405595302582,0.06124285236001015,-0.19555991888046265
1768418369971520000,8.95952001953125,0.5517257452011108,-0.004575843457132578,-0.11644139140844345
1768418369981522000,8.96952197265625,0.572860062122345,-0.09426657855510712,0.0703071877360344
1768418369991523000,8.979523193359375,0.589742124080658,-0.032400548458099365,0.2913873791694641
1768418370001524000,8.98952392578125,0.6431707143783569,0.1414327621459961,0.47239071130752563
1768418370011524900,8.99952490234375,0.6882615089416504,0.2076874077320099,0.6273440718650818
1768418370021525800,9.00952587890625,0.6043103933334351,-0.2548072636127472,0.7830814719200134
1768418370031528000,9.01952783203125,0.5003488659858704,-0.035405129194259644,0.7929027080535889
1768418370041528800,9.02952880859375,0.3381151854991913,0.460292249917984,0.3969883620738983
1768418370051530000,9.039530029296875,0.2920646071434021,0.32840558886528015,-0.04360846430063248
1768418370061531000,9.04953076171875,0.22669200599193573,0.346238911151886,-0.31437230110168457
1768418370071533000,9.059532958984375,0.1792355328798294,0.34210461378097534,-0.28741419315338135
1768418370081534000,9.069533935546875,0.2079547941684723,0.24418923258781433,-0.10599301010370255
1768418370091534800,9.079534912109375,0.3271392583847046,0.16396549344062805,0.0820530578494072
1768418370101536000,9.089535888671875,0.43077030777931213,0.07369818538427353,0.22717402875423431
1768418370111537000,9.099536865234375,0.3797478675842285,0.018563298508524895,0.23411503434181213
1768418370121538800,9.109538818359376,0.18248219788074493,0.22983506321907043,0.23755156993865967
1768418370131539700,9.119539794921875,0.0028660940006375313,0.5150156617164612,0.31923604011535645
1768418370141541000,9.129541015625,-0.08802653104066849,0.728121817111969,0.47283944487571716
1768418370151542000,9.1395419921875,-0.1511618196964264,0.6866446733474731,0.5842370986938477
1768418370161543000,9.14954296875,-0.23569534718990326,0.4581523835659027,0.49160489439964294
1768418370171545000,9.159545166015626,-0.3352517783641815,0.34775131940841675,0.2511714994907379
1768418370181546000,9.1695458984375,-0.3966488242149353,0.38769713044166565,0.03460964187979698
1768418370191547000,9.179546875,-0.4271833002567291,0.42055201530456543,-0.03227484971284866
1768418370201547800,9.1895478515625,-0.4219219386577606,0.4590400159358978,0.00675271125510335
1768418370211550000,9.199550048828126,-0.38458389043807983,0.4962976276874542,0.08818978071212769
1768418370221550800,9.20955078125,-0.35636717081069946,0.534301221370697,0.18011704087257385
1768418370231552000,9.219552001953126,-0.3477318584918976,0.630009114742279,0.2785482704639435
1768418370241553000,9.229552978515626,-0.3259626626968384,0.7450619339942932,0.374221533536911
1768418370251554000,9.239553955078126,-0.29142439365386963,0.8368163704872131,0.4504057765007019
1768418370261556000,9.249555908203124,-0.24694480001926422,0.9081171751022339,0.5297266840934753
1768418370271556900,9.259556884765624,-0.2015666663646698,0.9083467125892639,0.5964804291725159
1768418370281557800,9.269557861328124,-0.15247343480587006,0.914176881313324,0.6345210075378418
1768418370291559000,9.279558837890624,-0.08046341687440872,0.8838844895362854,0.6094985008239746
1768418370301560800,9.289560791015624,-0.0227963924407959,0.8016144037246704,0.5481520295143127
1768418370311561700,9.299561767578124,0.03741634637117386,0.7272331118583679,0.46758291125297546
1768418370321563000,9.30956298828125,0.10748571157455444,0.6219844818115234,0.39271533489227295
1768418370331564000,9.31956396484375,0.1831623613834381,0.5105604529380798,0.3362746834754944
1768418370341565000,9.32956494140625,0.24709899723529816,0.4220527112483978,0.3057559132575989
1768418370351567000,9.339567138671875,0.2878323197364807,0.29581913352012634,0.28751832246780396
1768418370361568000,9.349568115234375,0.2966093122959137,0.17613188922405243,0.2728213965892792
1768418370371569000,9.35956884765625,0.27881884574890137,0.10050956159830093,0.24628114700317383
1768418370381569800,9.36956982421875,0.23900911211967468,0.06723230332136154,0.1702771931886673
1768418370391570700,9.37957080078125,0.20072831213474274,0.06400588154792786,0.047449540346860886
1768418370401572900,9.38957275390625,0.1696380376815796,0.033786460757255554,-0.06288708746433258
1768418370411573800,9.39957373046875,0.17225725948810577,-0.08055450022220612,-0.127897247672081
1768418370421575000,9.409574951171875,0.16822336614131927,-0.27430957555770874,-0.16140487790107727
1768418370431576000,9.419576171875,0.07983864098787308,-0.40576109290122986,-0.1707664132118225
1768418370441578000,9.429577880859375,-0.07383747398853302,-0.4143758714199066,-0.1522318720817566
1768418370451579000,9.439578857421875,-0.25370657444000244,-0.32904714345932007,-0.1645202338695526
1768418370461579800,9.449579833984375,-0.46653681993484497,-0.16314764320850372,-0.26023077964782715
1768418370471581000,9.459580810546875,-0.7247270941734314,0.006997988559305668,-0.37254640460014343
1768418370481581800,9.469581787109375,-0.8686493635177612,0.12680508196353912,-0.3821899890899658
1768418370491583700,9.479583740234375,-0.7337080836296082,0.2681022882461548,-0.22499796748161316
1768418370501585000,9.4895849609375,-0.49052363634109497,0.482150673866272,0.021755095571279526
1768418370511586000,9.4995859375,-0.35605984926223755,0.5500463843345642,0.28204581141471863
1768418370521587000,9.5095869140625,-0.2811232805252075,0.4234527349472046,0.4691099524497986
1768418370531589000,9.519589111328125,-0.279634565114975,0.16827689111232758,0.31566527485847473
1768418370541590000,9.529590087890625,-0.3470945656299591,-0.15950337052345276,-0.1290232241153717
1768418370551591000,9.5395908203125,-0.4267379939556122,-0.29043397307395935,-0.5030109286308289
1768418370561591800,9.549591796875,-0.5009179711341858,-0.305854469537735,-0.7385076284408569
1768418370571592700,9.5595927734375,-0.5407212972640991,-0.21586544811725616,-0.8887479901313782
1768418370581594600,9.5695947265625,-0.3971303105354309,-0.15691956877708435,-0.8559373021125793
1768418370591595800,9.579595703125,-0.25027987360954285,-0.12587137520313263,-0.6664909720420837
1768418370601597000,9.589596923828125,-0.1917228251695633,-0.08553993701934814,-0.3766458034515381
1768418370611597800,9.599597900390625,-0.19275107979774475,-0.061800517141819,-0.06718169897794724
1768418370621598700,9.6095986328125,-0.1629423201084137,-0.06467512995004654,0.1387440264225006
1768418370631601000,9.619600830078125,-0.08037713170051575,-0.0762614831328392,0.16684970259666443
1768418370641601800,9.629601806640625,0.06671751290559769,-0.1248878762125969,0.07582712173461914
1768418370651602700,9.639602783203125,0.21827854216098785,-0.18452537059783936,-0.005323126446455717
1768418370661603600,9.649603515625,0.31643441319465637,-0.2379116266965866,-0.03867282718420029
1768418370671605800,9.659605712890626,0.3504706621170044,-0.28495025634765625,-0.06227242946624756
1768418370681606700,9.669606689453126,0.30373698472976685,-0.2970646917819977,-0.10922954976558685
1768418370691607800,9.67960791015625,0.3035835921764374,-0.2787624001502991,-0.1784839928150177
1768418370701608700,9.689608642578126,0.36068442463874817,-0.25865206122398376,-0.25406157970428467
1768418370711609900,9.69960986328125,0.3257461488246918,-0.2917375862598419,-0.26716673374176025
1768418370721611800,9.70961181640625,0.2503107786178589,-0.33220911026000977,-0.18664924800395966
1768418370731612700,9.71961279296875,0.19686725735664368,-0.38131487369537354,-0.05945374071598053
1768418370741613800,9.72961376953125,0.1895749866962433,-0.4058646857738495,0.06773989647626877
1768418370751614700,9.73961474609375,0.2349214255809784,-0.4591689109802246,0.17219893634319305
1768418370761616600,9.74961669921875,0.2775636911392212,-0.42251503467559814,0.2955528199672699
1768418370771617500,9.759617431640624,0.33222535252571106,-0.35766199231147766,0.38908010721206665
1768418370781619000,9.769618896484374,0.39571431279182434,-0.3176160454750061,0.4317825734615326
1768418370791619800,9.779619873046874,0.42232489585876465,-0.19919966161251068,0.4277454912662506
1768418370801620700,9.789620849609374,0.3831697702407837,-0.09559736400842667,0.38033294677734375
1768418370811623000,9.799622802734374,0.30718204379081726,0.005302620120346546,0.34915080666542053
1768418370821623800,9.809623779296874,0.25776708126068115,0.04808789864182472,0.31103190779685974
1768418370831624700,9.819624755859374,0.2041294276714325,0.09193764626979828,0.252170205116272
1768418370841625600,9.82962548828125,0.1431449055671692,0.11178591847419739,0.18549582362174988
1768418370851627800,9.839627685546875,0.0748731791973114,0.09496565908193588,0.11139922589063644
1768418370861628700,9.849628662109374,0.004261324182152748,0.027223099023103714,0.014634602703154087
1768418370871629800,9.8596298828125,-0.048540905117988586,-0.07905753701925278,-0.1118335872888565
1768418370881630700,9.869630615234374,-0.07762608677148819,-0.2298576980829239,-0.2130584716796875
1768418370891631900,9.8796318359375,-0.09886612743139267,-0.40426546335220337,-0.2626579999923706
1768418370901633800,9.8896337890625,-0.12215733528137207,-0.573375940322876,-0.26498478651046753
1768418370911634700,9.899634765625,-0.1542753279209137,-0.659013032913208,-0.26823359727859497
1768418370921635800,9.9096357421875,-0.1960187703371048,-0.6935697197914124,-0.2946915626525879
1768418370931636700,9.91963671875,-0.2601439654827118,-0.6759984493255615,-0.29236236214637756
1768418370941638700,9.929638671875,-0.3109842538833618,-0.6507572531700134,-0.2625354826450348
1768418370951639600,9.9396396484375,-0.2938292324542999,-0.6653223633766174,-0.29193997383117676
1768418370961641000,9.949640869140625,-0.1615002155303955,-0.6189753413200378,-0.3194997012615204
1768418370971641900,9.959641845703125,0.05020085349678993,-0.6448879241943359,-0.2895175516605377
1768418370981642800,9.969642822265625,0.30368131399154663,-0.6008091568946838,-0.16060885787010193
1768418370991645000,9.97964501953125,0.5540919899940491,-0.1270975023508072,0.027972511947155
1768418371001645800,9.989645751953125,0.6210089325904846,0.08641957491636276,0.17348895967006683
1768418371011646700,9.999646728515625,0.6061181426048279,-0.056536778807640076,0.26789483428001404
1768418371021647600,10.009647705078125,0.5991017818450928,-0.1792600303888321,0.23398692905902863
1768418371031649800,10.01964990234375,0.5866219401359558,-0.039687223732471466,0.16215933859348297
1768418371041650700,10.029650634765625,0.4378140866756439,0.103538379073143,0.1394638866186142
1768418371051651800,10.03965185546875,0.2796955704689026,0.2519419491291046,0.06999292969703674
1768418371061652700,10.04965283203125,0.2155514657497406,0.36029478907585144,0.051838431507349014
1768418371071655000,10.059655029296875,0.17252063751220703,0.3536906838417053,0.02076120488345623
1768418371081655800,10.06965576171875,0.11659212410449982,0.1422751247882843,-0.0562150701880455
1768418371091656700,10.07965673828125,0.054005179554224014,-0.15581995248794556,-0.03313957899808884
1768418371101657900,10.089657958984375,0.04031413421034813,-0.3769717812538147,0.16630908846855164
1768418371111658800,10.09965869140625,0.104437455534935,-0.519282341003418,0.39037519693374634
1768418371121660700,10.10966064453125,0.11763449013233185,-0.4618949294090271,0.47273027896881104
1768418371131661600,10.11966162109375,0.016655676066875458,-0.26397812366485596,0.45632386207580566
1768418371141662700,10.129662841796875,-0.13649792969226837,-0.04855954647064209,0.43952518701553345
1768418371151663900,10.139663818359375,-0.25635188817977905,0.16857090592384338,0.4821533262729645
1768418371161665800,10.149665771484376,-0.33321818709373474,0.33775272965431213,0.5353022813796997
1768418371171667000,10.1596669921875,-0.38914749026298523,0.4135175347328186,0.5281386375427246
1768418371181667800,10.169667724609376,-0.4114903509616852,0.4434826374053955,0.44955968856811523
1768418371191668700,10.179668701171876,-0.3953566551208496,0.48221004009246826,0.34765303134918213
1768418371201670700,10.189670654296876,-0.34850552678108215,0.5491422414779663,0.24919970333576202
1768418371211671800,10.199671875,-0.2729564309120178,0.6008301973342896,0.17957615852355957
1768418371221672700,10.209672607421876,-0.20446765422821045,0.6565017104148865,0.15614859759807587
1768418371231673600,10.219673583984376,-0.15388622879981995,0.7240117788314819,0.17433877289295197
1768418371241674800,10.2296748046875,-0.1283033788204193,0.7903311252593994,0.2142007052898407
1768418371251676700,10.2396767578125,-0.12850923836231232,0.8217785358428955,0.24704121053218842
1768418371261677800,10.249677734375,-0.14364051818847656,0.8529772162437439,0.266855925321579
1768418371271678700,10.2596787109375,-0.17243142426013947,0.8920835852622986,0.2744464576244354
1768418371281680000,10.269679931640624,-0.17314541339874268,0.845206081867218,0.2759911119937897
1768418371291681800,10.279681884765624,-0.16401876509189606,0.7692122459411621,0.293789267539978
1768418371301682700,10.2896826171875,-0.1339349001646042,0.7078557014465332,0.3083788752555847
1768418371311683600,10.29968359375,-0.07102144509553909,0.5987915396690369,0.30303895473480225
1768418371321684700,10.309684814453124,0.010352239944040775,0.4379909336566925,0.2735772132873535
1768418371331686700,10.319686767578125,0.07938004285097122,0.31451746821403503,0.23070351779460907
1768418371341687600,10.3296875,0.1350177377462387,0.25983449816703796,0.19289807975292206
1768418371351689000,10.33968896484375,0.18260736763477325,0.2124353051185608,0.1731259822845459
1768418371361689900,10.34968994140625,0.21198496222496033,0.13116015493869781,0.18192718923091888
1768418371371691800,10.35969189453125,0.2219284027814865,0.05312686786055565,0.1902809888124466
1768418371381692700,10.369692626953125,0.21681247651576996,-0.019699135795235634,0.1783258020877838
1768418371391693800,10.37969384765625,0.2046077400445938,-0.05345363914966583,0.13805453479290009
1768418371401694700,10.38969482421875,0.18592245876789093,-0.006901049055159092,0.06052246689796448
1768418371411695600,10.399695556640625,0.17720620334148407,0.10091675817966461,-0.03465757891535759
1768418371421697800,10.40969775390625,0.1813088059425354,0.20098663866519928,-0.11910508573055267
1768418371431698700,10.41969873046875,0.19669601321220398,0.24586676061153412,-0.19726353883743286
1768418371441699800,10.429699951171875,0.235694020986557,0.1780264526605606,-0.2883407175540924
1768418371451700700,10.43970068359375,0.24285951256752014,0.016154201701283455,-0.3920537829399109
1768418371461703000,10.449702880859375,0.16031616926193237,-0.05730616673827171,-0.4476832449436188
1768418371471703800,10.459703857421875,0.038725823163986206,-0.04440421611070633,-0.46991637349128723
1768418371481704700,10.46970458984375,-0.13526594638824463,0.007282414007931948,-0.5353483557701111
1768418371491705600,10.47970556640625,-0.370974600315094,0.10691127181053162,-0.6632530689239502
1768418371501707800,10.489707763671875,-0.6054257154464722,0.2166161984205246,-0.7541065216064453
1768418371511708700,10.499708740234375,-0.638688862323761,0.2866107225418091,-0.6743882894515991
1768418371521709600,10.50970947265625,-0.4309135675430298,0.36843234300613403,-0.34626951813697815
1768418371531711000,10.5197109375,-0.26598668098449707,0.48410168290138245,0.11595110595226288
1768418371541712600,10.529712646484375,-0.22345812618732452,0.4389408826828003,0.483866810798645
1768418371551713800,10.5397138671875,-0.30354151129722595,0.2315506637096405,0.45662185549736023
1768418371561714700,10.549714599609375,-0.47847044467926025,-0.09117171913385391,0.07032716274261475
1768418371571715600,10.559715576171875,-0.6609014868736267,-0.41458413004875183,-0.3709791302680969
1768418371581717800,10.5697177734375,-0.8891019225120544,-0.5414672493934631,-0.582568347454071
1768418371591718700,10.57971875,-0.9922522902488708,-0.5259854793548584,-0.5833547711372375
1768418371601719600,10.589719482421875,-0.748669445514679,-0.4952605962753296,-0.4055520296096802
1768418371611720400,10.599720458984375,-0.47701847553253174,-0.3353455066680908,-0.1596546471118927
1768418371621722600,10.60972265625,-0.2169261872768402,-0.2501203715801239,0.05537563934922218
1768418371631723500,10.6197236328125,-0.04716671258211136,-0.23796223104000092,0.21582470834255219
1768418371641724700,10.629724609375,0.04420554265379906,-0.22569677233695984,0.2118302285671234
1768418371651725600,10.6397255859375,0.15891960263252258,-0.22642195224761963,0.006746319588273764
1768418371661727700,10.649727783203126,0.2629812955856323,-0.23614409565925598,-0.22099363803863525
1768418371671728600,10.659728759765626,0.29207393527030945,-0.29065659642219543,-0.3175806403160095
1768418371681729500,10.6697294921875,0.2299831360578537,-0.41799938678741455,-0.3159022927284241
1768418371691730700,10.679730712890626,0.12098474055528641,-0.5014330148696899,-0.2812846601009369
1768418371701732600,10.689732666015624,0.05518176406621933,-0.5266683101654053,-0.23210221529006958
1768418371711733500,10.6997333984375,0.0699404701590538,-0.5001142024993896,-0.18904368579387665
1768418371721734400,10.709734375,0.1214609146118164,-0.4513024687767029,-0.15877553820610046
1768418371731735800,10.71973583984375,0.1719893366098404,-0.4255366623401642,-0.10657011717557907
1768418371741736700,10.72973681640625,0.20040740072727203,-0.41477587819099426,-0.01529027335345745
1768418371751738600,10.739738525390624,0.2267916053533554,-0.392903596162796,0.10891050100326538
1768418371761739800,10.74973974609375,0.25306156277656555,-0.3988350033760071,0.2360258400440216
1768418371771740700,10.75974072265625,0.285529762506485,-0.4167514145374298,0.3361596465110779
1768418371781741600,10.769741455078124,0.33007246255874634,-0.42586663365364075,0.3939792513847351
1768418371791743500,10.779743408203124,0.33318594098091125,-0.34859606623649597,0.3956807553768158
1768418371801744600,10.78974462890625,0.3052089214324951,-0.2975051999092102,0.3330245614051819
1768418371811745500,10.79974560546875,0.2582555115222931,-0.26562023162841797,0.24186855554580688
1768418371821746700,10.80974658203125,0.2128845751285553,-0.19682277739048004,0.16601747274398804
1768418371831748600,10.81974853515625,0.1968853622674942,-0.10115644335746765,0.12873481214046478
1768418371841749800,10.829749755859375,0.1851365715265274,-0.008407332934439182,0.13054043054580688
1768418371851750700,10.839750732421875,0.155037522315979,0.055958341807127,0.13554051518440247
1768418371861751600,10.84975146484375,0.11660224944353104,0.08229140937328339,0.10358577966690063
1768418371871753700,10.859753662109375,0.07733873277902603,0.06594439595937729,0.025610821321606636
1768418371881754600,10.869754638671875,0.028378911316394806,0.008666724897921085,-0.08590532094240189
1768418371891755500,10.879755615234375,-0.022471753880381584,-0.09453875571489334,-0.20783495903015137
1768418371901756400,10.88975634765625,-0.07606254518032074,-0.23893322050571442,-0.322893887758255
1768418371911758600,10.899758544921875,-0.16010285913944244,-0.3628256022930145,-0.4197075366973877
1768418371921759500,10.909759521484375,-0.255683958530426,-0.4344326853752136,-0.47913649678230286
1768418371931760600,10.9197607421875,-0.3269626796245575,-0.4278613328933716,-0.4823639690876007
1768418371941761800,10.92976171875,-0.34365031123161316,-0.41617482900619507,-0.4051634669303894
1768418371951763700,10.939763671875,-0.333538293838501,-0.5229159593582153,-0.28825709223747253
1768418371961764600,10.9497646484375,-0.36340591311454773,-0.7301521897315979,-0.26894599199295044
1768418371971765500,10.959765625,-0.3792346715927124,-0.852908730506897,-0.3374249041080475
1768418371981766700,10.9697666015625,-0.27644675970077515,-0.7145277261734009,-0.39428526163101196
1768418371991768600,10.9797685546875,-0.042879823595285416,-0.3852190673351288,-0.36240002512931824
1768418372001769500,10.98976953125,0.2567708194255829,-0.07864367961883545,-0.25875139236450195
1768418372011770600,10.9997705078125,0.5204221606254578,0.018678080290555954,-0.1621851772069931
1768418372021771800,11.009771728515625,0.6431581974029541,-0.07180334627628326,-0.05862922593951225
1768418372031773400,11.0197734375,0.7012489438056946,-0.12034212052822113,0.08436814695596695
1768418372041774600,11.029774658203126,0.6791588068008423,0.012235361151397228,0.22897326946258545
1768418372051775700,11.039775634765626,0.63606858253479,0.236702561378479,0.34281834959983826
1768418372061776600,11.049776611328125,0.4562080204486847,0.22875621914863586,0.3563828766345978
1768418372071778600,11.059778564453126,0.24598287045955658,-0.056295495480298996,0.1570039987564087
1768418372081779700,11.06977978515625,0.21546411514282227,-0.6323018074035645,-0.02311623841524124
1768418372091780600,11.079780517578126,0.24893765151500702,-0.05182671174407005,-0.18316875398159027
1768418372101781500,11.089781494140626,0.1838071197271347,0.17725813388824463,-0.3653723895549774
1768418372111783700,11.09978369140625,0.15476560592651367,-0.05168236792087555,-0.3290860056877136
1768418372121784600,11.10978466796875,0.16845639050006866,-0.2723769247531891,-0.12150086462497711
1768418372131785700,11.11978564453125,0.2604353129863739,-0.4538745582103729,0.12717951834201813
1768418372141787600,11.12978759765625,0.32949507236480713,-0.47833648324012756,0.22833091020584106
1768418372151788800,11.139788818359374,0.25381016731262207,-0.22073744237422943,0.2171565443277359
1768418372161789700,11.149789794921874,0.1074465662240982,0.07257992774248123,0.21203236281871796
1768418372171790600,11.15979052734375,-0.013335779309272766,0.34582796692848206,0.27944469451904297
1768418372181792800,11.169792724609374,-0.08939459174871445,0.5386123657226562,0.3750511109828949
1768418372191793700,11.179793701171874,-0.17186416685581207,0.5696962475776672,0.405005544424057
1768418372201794600,11.189794677734374,-0.27812883257865906,0.5134840607643127,0.3339449465274811
1768418372211795500,11.19979541015625,-0.34707194566726685,0.4921465814113617,0.22497744858264923
1768418372221797600,11.209797607421875,-0.36900919675827026,0.5408957600593567,0.12688177824020386
1768418372231798500,11.219798583984375,-0.3420414924621582,0.6205626130104065,0.0737525150179863
1768418372241799700,11.229799560546875,-0.2956604063510895,0.6803684234619141,0.09201301634311676
1768418372251800600,11.239800537109375,-0.24016226828098297,0.7285990715026855,0.1545240581035614
1768418372261802800,11.249802734375,-0.2028529793024063,0.7702913880348206,0.2258043736219406
1768418372271803600,11.2598037109375,-0.20582427084445953,0.8444308638572693,0.28013870120048523
1768418372281804500,11.269804443359375,-0.21737626194953918,0.8953619599342346,0.3111501634120941
1768418372291805700,11.2798056640625,-0.22038084268569946,0.8658397197723389,0.3268718719482422
1768418372301807600,11.2898076171875,-0.20495261251926422,0.7735090255737305,0.3564518690109253
1768418372311808500,11.29980859375,-0.135049968957901,0.6943140625953674,0.3946298658847809
1768418372321809400,11.309809326171875,-0.06085323169827461,0.6008291244506836,0.41037100553512573
1768418372331810800,11.319810791015625,-0.006674148142337799,0.5255407691001892,0.39776307344436646
1768418372341812700,11.329812744140625,0.04523991420865059,0.4356721043586731,0.3399306833744049
1768418372351813600,11.339813720703125,0.08996105194091797,0.3244822025299072,0.2610025703907013
1768418372361814800,11.349814697265625,0.14112091064453125,0.2665714919567108,0.20564717054367065
1768418372371815700,11.359815673828125,0.19374097883701324,0.216905415058136,0.18537119030952454
1768418372381817600,11.369817626953125,0.24757571518421173,0.16044986248016357,0.1923995316028595
1768418372391818500,11.379818603515625,0.28385594487190247,0.10304755717515945,0.20339280366897583
1768418372401819600,11.389819580078125,0.3009001910686493,0.05369039252400398,0.19325947761535645
1768418372411821600,11.399821533203125,0.3047412633895874,0.053941793739795685,0.1490747034549713
1768418372421822500,11.409822509765625,0.28864777088165283,0.10054844617843628,0.051479436457157135
1768418372431823600,11.41982373046875,0.26860642433166504,0.15818510949611664,-0.09540028870105743
1768418372441824800,11.42982470703125,0.23429346084594727,0.18676188588142395,-0.23058180510997772
1768418372451826700,11.43982666015625,0.17566557228565216,0.17101356387138367,-0.2635118067264557
1768418372461827600,11.44982763671875,0.1266689896583557,0.08344029635190964,-0.18945594131946564
1768418372471828700,11.459828857421876,0.0911506786942482,-0.06309374421834946,-0.151284322142601
1768418372481829600,11.46982958984375,0.04345133528113365,-0.11010679602622986,-0.18443694710731506
1768418372491831600,11.47983154296875,-0.019697804003953934,-0.06447380036115646,-0.22363868355751038
1768418372501832700,11.489832763671876,-0.14081864058971405,-0.034628551453351974,-0.27477964758872986
1768418372511833600,11.49983349609375,-0.3472450375556946,0.007382016163319349,-0.35739487409591675
1768418372521834500,11.50983447265625,-0.5847345590591431,0.08528080582618713,-0.45712095499038696
1768418372531836400,11.51983642578125,-0.7346601486206055,0.2179192751646042,-0.42367857694625854
1768418372541837600,11.529837646484374,-0.6104311347007751,0.30204880237579346,-0.11327861994504929
1768418372551838700,11.539838623046874,-0.4008462131023407,0.23281247913837433,0.32349470257759094
1768418372561839600,11.549839599609374,-0.44163864850997925,-0.04415121674537659,0.542148232460022
1768418372571841800,11.559841796875,-0.6434556841850281,-0.42142394185066223,0.39583975076675415
1768418372581842700,11.5698427734375,-0.9044156074523926,-0.6693136096000671,0.021755095571279526
1768418372591843800,11.57984375,-1.0995573997497559,-0.6444695591926575,-0.30975547432899475
1768418372601845800,11.589845703125,-1.153639793395996,-0.5223984718322754,-0.4727441072463989
1768418372611846700,11.5998466796875,-1.0270624160766602,-0.5327504873275757,-0.6219367980957031
1768418372621847800,11.609847900390625,-0.6963452696800232,-0.4729878008365631,-0.6756463646888733
1768418372631848700,11.6198486328125,-0.3228459656238556,-0.2165141999721527,-0.5468968749046326
1768418372641850600,11.6298505859375,-0.006188387516885996,-0.010465424507856369,-0.29536372423171997
1768418372651851800,11.639851806640625,0.15829376876354218,0.10583615303039551,-0.03248923271894455
1768418372661853000,11.64985302734375,0.22192014753818512,0.12394831329584122,0.07794033735990524
1768418372671853800,11.659853759765625,0.2982657849788666,0.042443063110113144,-0.03618596866726875
1768418372681855700,11.669855712890625,0.3599129021167755,-0.10539406538009644,-0.2000768929719925
1768418372691857000,11.67985693359375,0.3623611330986023,-0.26328250765800476,-0.22780972719192505
1768418372701857800,11.68985791015625,0.3280377984046936,-0.39453744888305664,-0.15611982345581055
1768418372711859700,11.699859619140625,0.24984951317310333,-0.4615125060081482,-0.10590565949678421
1768418372721860600,11.709860595703125,0.17307324707508087,-0.47553643584251404,-0.13730858266353607
1768418372731861800,11.71986181640625,0.14671939611434937,-0.50583416223526,-0.20404501259326935
1768418372741862700,11.729862548828125,0.14815378189086914,-0.5102353096008301,-0.23594754934310913
1768418372751864600,11.739864501953125,0.15682236850261688,-0.4740389287471771,-0.2001059353351593
1768418372761865700,11.74986572265625,0.17539392411708832,-0.4142270088195801,-0.10900158435106277
1768418372771867000,11.759866943359375,0.1976422369480133,-0.36902332305908203,-0.012383433058857918
1768418372781867800,11.76986767578125,0.22646456956863403,-0.2982809543609619,0.07154501974582672
1768418372791869700,11.77986962890625,0.2626774311065674,-0.2154981940984726,0.1494443416595459
1768418372801870800,11.789870849609375,0.29254743456840515,-0.19301579892635345,0.21587850153446198
1768418372811871700,11.799871826171875,0.31156376004219055,-0.16474367678165436,0.24524039030075073
1768418372821873700,11.809873779296876,0.2987251877784729,-0.12561652064323425,0.22106634080410004
1768418372831874800,11.819874755859376,0.2727345824241638,-0.05889420956373215,0.21090558171272278
1768418372841875700,11.829875732421876,0.22157979011535645,-0.025475265458226204,0.2152305543422699
1768418372851876600,11.839876708984375,0.17259015142917633,0.013593573123216629,0.22137552499771118
1768418372861878500,11.84987841796875,0.13533546030521393,0.06716784834861755,0.20919902622699738
1768418372871880000,11.8598798828125,0.11684432625770569,0.13205283880233765,0.1642688363790512
1768418372881880800,11.869880859375,0.09320531040430069,0.1746778041124344,0.10519459843635559
1768418372891881700,11.8798818359375,0.0652833953499794,0.16789312660694122,0.0417594313621521
1768418372901884000,11.8898837890625,0.025184448808431625,0.12485405057668686,-0.010938134975731373
1768418372911884800,11.899884765625,-0.018452510237693787,0.03248603641986847,-0.04934784024953842
1768418372921885700,11.9098857421875,-0.07948789745569229,-0.09885760396718979,-0.1313428431749344
1768418372931887900,11.919887939453124,-0.15875156223773956,-0.2463703602552414,-0.2847510278224945
1768418372941888800,11.929888671875,-0.23774464428424835,-0.3502860963344574,-0.47127193212509155
1768418372951889700,11.9398896484375,-0.2727106213569641,-0.3689820170402527,-0.5835084319114685
1768418372961890800,11.949890869140624,-0.2712847590446472,-0.41090577840805054,-0.58204185962677
1768418372971892700,11.959892822265624,-0.31201276183128357,-0.607681155204773,-0.5422747135162354
1768418372981894000,11.969893798828124,-0.4321735203266144,-0.8667875528335571,-0.5437237620353699
1768418372991894800,11.979894775390624,-0.5393713712692261,-1.0828490257263184,-0.5844229459762573
1768418373001895700,11.989895751953124,-0.4954771101474762,-1.1036334037780762,-0.6065043210983276
1768418373011897900,11.99989794921875,-0.24228720366954803,-0.8549444675445557,-0.48589026927948
1768418373021898800,12.009898681640625,0.12587404251098633,-0.5097812414169312,-0.31668686866760254
1768418373031899600,12.019899658203125,0.4965168237686157,-0.11489089578390121,-0.2297639548778534
1768418373041901800,12.02990185546875,0.644296407699585,-0.03478381410241127,-0.14602884650230408
1768418373051902700,12.03990283203125,0.6932415962219238,-0.18999098241329193,0.06596596539020538
1768418373061903600,12.049903564453125,0.7799844741821289,-0.23274829983711243,0.34055277705192566
1768418373071904800,12.05990478515625,0.831086277961731,-0.032818932086229324,0.5840288400650024
1768418373081906700,12.06990673828125,0.8353220224380493,0.2958468496799469,0.6837934851646423
1768418373091907800,12.079907958984375,0.6812328696250916,0.372245728969574,0.5927240252494812
1768418373101908700,12.08990869140625,0.5069636106491089,0.37477919459342957,0.29650864005088806
1768418373111910000,12.099909912109375,0.4123859703540802,0.4112205505371094,-0.11113344877958298
1768418373121911800,12.109911865234375,0.3212725520133972,0.4928579032421112,-0.3893195390701294
1768418373131912700,12.11991259765625,0.20233872532844543,0.37697339057922363,-0.4236319661140442
1768418373141913600,12.12991357421875,0.13011538982391357,0.1032550185918808,-0.25047722458839417
1768418373151915800,12.139915771484375,0.1255805641412735,-0.11869469285011292,0.022364694625139236
1768418373161916700,12.149916748046875,0.26806262135505676,-0.3386502265930176,0.29588305950164795
1768418373171917600,12.15991748046875,0.3926823139190674,-0.44953200221061707,0.4235592484474182
1768418373181919000,12.1699189453125,0.3268585503101349,-0.33045169711112976,0.3982142210006714
1768418373191920600,12.179920654296875,0.14078055322170258,-0.032998163253068924,0.3887440264225006
1768418373201921800,12.189921875,-0.02834748476743698,0.30417507886886597,0.49279823899269104
1768418373211922700,12.199922607421875,-0.1395067572593689,0.5025310516357422,0.6214179992675781
1768418373221924900,12.2099248046875,-0.2613237500190735,0.45681920647621155,0.612238347530365
1768418373231925800,12.21992578125,-0.4152619242668152,0.32787588238716125,0.4506382644176483
1768418373241926700,12.2299267578125,-0.5216999650001526,0.28824537992477417,0.25702112913131714
1768418373251927800,12.239927734375,-0.5563886761665344,0.39980119466781616,0.10951504111289978
1768418373261929700,12.2499296875,-0.536171019077301,0.5757226943969727,0.06719741225242615
1768418373271930600,12.2599306640625,-0.4965783357620239,0.7299074530601501,0.1128690242767334
1768418373281931500,12.269931640625,-0.45540907979011536,0.8485201597213745,0.18992891907691956
1768418373291933000,12.279932861328126,-0.4024217426776886,0.9579533934593201,0.24936962127685547
1768418373301934600,12.2899345703125,-0.3708811402320862,1.0562418699264526,0.29885435104370117
