time,seconds_elapsed,z,y,x
1768418361065449200,0.05344921875,0.004760083742439747,0.011180327273905277,0.004771822597831488
1768418361075451100,0.063451171875,0.00399575661867857,0.008882285095751286,0.0013621775433421135
1768418361085452300,0.073452392578125,0.0007240631384775043,0.008427683264017105,-0.00024184444919228554
1768418361095453200,0.083453125,0.0021711147855967283,0.00879549328237772,-0.0008650016970932484
1768418361105454000,0.0934541015625,0.001803864841349423,0.005323796533048153,0.002755299676209688
1768418361115456300,0.103456298828125,0.0013039320474490523,0.004939655773341656,0.007889805361628532
1768418361125457400,0.11345751953125,0.0003880709409713745,-0.0006793476641178131,0.011559641920030117
1768418361135458300,0.123458251953125,0.0004375483840703964,-0.00377778266556561,0.014969751238822937
1768418361145459200,0.133459228515625,-0.001163810258731246,-0.010744878090918064,0.019044388085603714
1768418361155460400,0.14346044921875,-0.0008960687555372715,-0.015199887566268444,0.02351509779691696
1768418361165462300,0.153462158203125,-0.0003706269199028611,-0.019618604332208633,0.024636555463075638
1768418361175463200,0.163463134765625,0.00012930587399750948,-0.026945913210511208,0.020315909758210182
1768418361185464000,0.173464111328125,0.003849209286272526,-0.02750544250011444,0.01561303436756134
1768418361195465200,0.18346533203125,0.004091405309736729,-0.028998717665672302,0.010775805450975895
1768418361205466400,0.19346630859375,0.003605644917115569,-0.0281989686191082,0.00956939347088337
1768418361215468300,0.20346826171875,0.002260487526655197,-0.03317829594016075,0.010473961010575294
1768418361225469400,0.213469482421875,0.0017891080351546407,-0.03695785254240036,0.014060973189771175
1768418361235470300,0.22347021484375,0.0026157479733228683,-0.042136356234550476,0.014273335225880146
1768418361245471200,0.23347119140625,0.005831780843436718,-0.05005952715873718,0.014505296014249325
1768418361255472000,0.24347216796875,0.005465805530548096,-0.059250473976135254,0.016392609104514122
1768418361265474300,0.253474365234375,0.0059845889918506145,-0.06713556498289108,0.014041570946574211
1768418361275475200,0.26347509765625,0.00925529096275568,-0.06809414178133011,0.015339313074946404
1768418361285476000,0.27347607421875,0.01589721441268921,-0.06508370488882065,0.017212048172950745
1768418361295477200,0.283477294921875,0.02028976008296013,-0.0625501349568367,0.017353210598230362
1768418361305478400,0.293478515625,0.022009361535310745,-0.05537477508187294,0.02323560230433941
1768418361315480300,0.303480224609375,0.028348442167043686,-0.05554661899805069,0.03674459829926491
1768418361325481200,0.313481201171875,0.026406731456518173,-0.03396542742848396,0.050821270793676376
1768418361335482400,0.323482421875,0.0298842154443264,-0.012228865176439285,0.058985207229852676
1768418361345483300,0.333483154296875,0.029378745704889297,0.005276092328131199,0.07752719521522522
1768418361355484200,0.343484130859375,0.025496218353509903,0.013174953870475292,0.09364072233438492
1768418361365486000,0.353486083984375,0.020696669816970825,0.009952529333531857,0.09589934349060059
1768418361375487200,0.3634873046875,0.018691398203372955,-0.0064408862963318825,0.09147466719150543
1768418361385488400,0.37348828125,0.023916255682706833,-0.015767276287078857,0.08434911072254181
1768418361395489300,0.3834892578125,0.03302339091897011,-0.007779549807310104,0.07610451430082321
1768418361405490200,0.393490234375,0.044207070022821426,0.00024002674035727978,0.07348743081092834
1768418361415492400,0.403492431640625,0.047670893371105194,0.0029385683592408895,0.07787751406431198
1768418361425493200,0.4134931640625,0.05179107189178467,-0.002116643823683262,0.0862496942281723
1768418361435494100,0.423494140625,0.05180889368057251,-0.015923835337162018,0.09365160763263702
1768418361445495300,0.433495361328125,0.04821069538593292,-0.03674096614122391,0.10043947398662567
1768418361455496200,0.44349609375,0.04453931003808975,-0.044176988303661346,0.10340867936611176
1768418361465498000,0.453498046875,0.043586429208517075,-0.055903419852256775,0.09870394319295883
1768418361475499300,0.463499267578125,0.03838776424527168,-0.06942196190357208,0.08865562826395035
1768418361485500400,0.47350048828125,0.035989586263895035,-0.0788000226020813,0.07417761534452438
1768418361495501300,0.483501220703125,0.03448648005723953,-0.08954830467700958,0.061939787119627
1768418361505502200,0.493502197265625,0.029678143560886383,-0.10235358029603958,0.05828087031841278
1768418361515504400,0.50350439453125,0.029421184211969376,-0.11338591575622559,0.05391301214694977
1768418361525505300,0.51350537109375,0.026825133711099625,-0.11983023583889008,0.04732009023427963
1768418361535506200,0.523506103515625,0.02400100789964199,-0.12613336741924286,0.03287379443645477
1768418361545507000,0.533507080078125,0.016694627702236176,-0.13665258884429932,0.015722237527370453
1768418361555508200,0.54350830078125,0.009354242123663425,-0.14644882082939148,-0.0019414364360272884
1768418361565510400,0.553510498046875,-0.0008874762570485473,-0.14842887222766876,-0.02231754921376705
1768418361575511300,0.56351123046875,-0.00969068706035614,-0.14542697370052338,-0.03777884691953659
1768418361585512200,0.57351220703125,-0.010245157405734062,-0.1451990008354187,-0.04835426062345505
1768418361595513000,0.58351318359375,-0.012461702339351177,-0.1421659290790558,-0.0558927096426487
1768418361605514000,0.593513916015625,-0.014450816437602043,-0.14446957409381866,-0.06723272055387497
1768418361615516200,0.60351611328125,-0.019299695268273354,-0.14732564985752106,-0.07895191758871078
1768418361625517000,0.61351708984375,-0.023050226271152496,-0.14772965013980865,-0.0852164775133133
1768418361635518000,0.62351806640625,-0.030010027810931206,-0.14769965410232544,-0.08730747550725937
1768418361645519400,0.633519287109375,-0.03395629674196243,-0.14183589816093445,-0.08194360136985779
1768418361655520300,0.643520263671875,-0.0429607518017292,-0.13312503695487976,-0.08011442422866821
1768418361665522200,0.653522216796875,-0.05257130414247513,-0.12252539396286011,-0.08539334684610367
1768418361675523300,0.6635234375,-0.07044682651758194,-0.11198562383651733,-0.09009821712970734
1768418361685524200,0.673524169921875,-0.07352357357740402,-0.10658526420593262,-0.09562002122402191
1768418361695525000,0.683525146484375,-0.07915700972080231,-0.09962815046310425,-0.10273456573486328
1768418361705527000,0.693527099609375,-0.08336373418569565,-0.0890258401632309,-0.1137310266494751
1768418361715528200,0.703528076171875,-0.08399641513824463,-0.07258248329162598,-0.12300903350114822
1768418361725529000,0.713529052734375,-0.07786155492067337,-0.05025347322225571,-0.12645038962364197
1768418361735530200,0.7235302734375,-0.07389187067747116,-0.03639255091547966,-0.13213950395584106
1768418361745531100,0.73353125,-0.07575954496860504,-0.0305493101477623,-0.13755957782268524
1768418361755533300,0.743533203125,-0.0815756618976593,-0.031134486198425293,-0.13958649337291718
1768418361765534200,0.7535341796875,-0.08729399740695953,-0.03166285902261734,-0.13211286067962646
1768418361775535000,0.76353515625,-0.09150588512420654,-0.021216001361608505,-0.1207798421382904
1768418361785536000,0.773535888671875,-0.09204277396202087,-0.011838213540613651,-0.11269848048686981
1768418361795537200,0.783537109375,-0.08980607986450195,-0.005197014659643173,-0.10386136919260025
1768418361805539000,0.7935390625,-0.08233538269996643,-0.002400163095444441,-0.0973917543888092
1768418361815540000,0.8035400390625,-0.07593756169080734,-0.003207406960427761,-0.09067831933498383
1768418361825541400,0.813541259765625,-0.06952892988920212,-0.004670547787100077,-0.08893261849880219
1768418361835542300,0.823542236328125,-0.0660325139760971,-0.006727965548634529,-0.08758682757616043
1768418361845543200,0.833543212890625,-0.06539521366357803,-0.008305622264742851,-0.07908309251070023
1768418361855545300,0.84354541015625,-0.06356623768806458,-0.0055600376799702644,-0.0684099793434143
1768418361865546200,0.853546142578125,-0.056712597608566284,0.003310685744509101,-0.05378416180610657
1768418361875547100,0.863547119140625,-0.049317944794893265,0.01040130015462637,-0.03898468241095543
1768418361885548000,0.873548095703125,-0.03949008136987686,0.016343344002962112,-0.02472691796720028
1768418361895549200,0.883549072265625,-0.02505786344408989,0.014620060101151466,-0.010413042269647121
1768418361905551000,0.893551025390625,-0.017876116558909416,0.008067351765930653,0.002064399654045701
1768418361915552300,0.90355224609375,-0.01079812366515398,0.006704583764076233,0.012539921328425407
1768418361925553200,0.91355322265625,-0.004468588624149561,0.007934165187180042,0.014353534206748009
1768418361935554300,0.92355419921875,-0.0003204859094694257,0.010793788358569145,0.01733548194169998
1768418361945555200,0.93355517578125,0.00159459316637367,0.016282297670841217,0.019693978130817413
1768418361955557000,0.94355712890625,0.008809440769255161,0.02718942239880562,0.022942913696169853
1768418361965558000,0.95355810546875,0.01406705379486084,0.03839173913002014,0.02417835406959057
1768418361975559200,0.96355908203125,0.020362088456749916,0.047975607216358185,0.027831973508000374
1768418361985560000,0.97356005859375,0.024499841034412384,0.05103611201047897,0.029892994090914726
1768418361995561200,0.983561279296875,0.025294307619333267,0.054591838270425797,0.03368561714887619
1768418362005563100,0.993563232421875,0.02597900666296482,0.05950617045164108,0.036542125046253204
1768418362015564300,1.003564208984375,0.02657574974000454,0.06648962199687958,0.03674107789993286
1768418362025565200,1.013565185546875,0.026387464255094528,0.07320956885814667,0.03480495885014534
1768418362035566000,1.023566162109375,0.02525230497121811,0.08234479278326035,0.03240329027175903
1768418362045567200,1.033567138671875,0.022334812209010124,0.09019552916288376,0.030297262594103813
1768418362055569200,1.043569091796875,0.022061120718717575,0.0987076535820961,0.031425684690475464
1768418362065570000,1.053570068359375,0.022355666384100914,0.10490110516548157,0.031374283134937286
1768418362075571000,1.063571044921875,0.01726512983441353,0.10496175289154053,0.027484264224767685
1768418362085572400,1.073572265625,0.014481326565146446,0.10800015926361084,0.024643737822771072
1768418362095573200,1.0835732421875,0.011770186945796013,0.10862380266189575,0.01792522892355919
1768418362105575200,1.0935751953125,0.007207660004496574,0.10479310899972916,0.01564290001988411
1768418362115576300,1.103576416015625,0.00368996849283576,0.10092208534479141,0.01335512287914753
1768418362125577200,1.1135771484375,-0.0018731089076027274,0.10023099184036255,0.007898838259279728
1768418362135578000,1.123578125,-0.005634901579469442,0.09978610277175903,0.0009928501676768064
1768418362145579000,1.1335791015625,-0.010821408592164516,0.09994535893201828,-0.0025997539050877094
1768418362155581200,1.143581298828125,-0.012553224340081215,0.10361927002668381,-0.005389689467847347
1768418362165582000,1.15358203125,-0.013766560703516006,0.10034198313951492,-0.0071665504947304726
1768418362175583200,1.163583251953125,-0.014848030172288418,0.0938338115811348,-0.015008076094090939
1768418362185584000,1.173584228515625,-0.012418693862855434,0.08205598592758179,-0.028428278863430023
1768418362195585300,1.183585205078125,-0.011665645986795425,0.08027920126914978,-0.04847714677453041
1768418362205587200,1.193587158203125,-0.009902900084853172,0.0803644210100174,-0.07398783415555954
1768418362215588000,1.203588134765625,-0.016543952748179436,0.08810026198625565,-0.08975721895694733
1768418362225589200,1.21358935546875,-0.0176470335572958,0.1011127308011055,-0.09865058213472366
1768418362235590100,1.223590087890625,-0.009428402408957481,0.12875019013881683,-0.11171139031648636
1768418362245591000,1.233591064453125,0.002437045332044363,0.1523902714252472,-0.13588888943195343
1768418362255593000,1.243593017578125,0.0068106441758573055,0.16681930422782898,-0.15941044688224792
1768418362265594400,1.253594482421875,0.0035357552114874125,0.18786385655403137,-0.1831703633069992
1768418362275595300,1.26359521484375,0.003103508148342371,0.20239801704883575,-0.19321492314338684
1768418362285596200,1.27359619140625,0.002800440415740013,0.2158254086971283,-0.19680912792682648
1768418362295597000,1.28359716796875,0.006436506751924753,0.2381444126367569,-0.20059196650981903
1768418362305599200,1.29359912109375,0.013949550688266754,0.26443859934806824,-0.20474517345428467
1768418362315600100,1.30360009765625,0.015224180184304714,0.27232909202575684,-0.19256718456745148
1768418362325601000,1.31360107421875,0.007082897704094648,0.26755431294441223,-0.17157001793384552
1768418362335602200,1.323602294921875,-0.005642255302518606,0.25263652205467224,-0.1388925015926361
1768418362345603300,1.333603271484375,-0.0129896504804492,0.23442290723323822,-0.09979996085166931
1768418362355605200,1.343605224609375,-0.020901070907711983,0.20610614120960236,-0.047574736177921295
1768418362365606100,1.353606201171875,-0.02840506099164486,0.17062005400657654,0.0056157782673835754
1768418362375607300,1.363607177734375,-0.034957364201545715,0.13196372985839844,0.054458096623420715
1768418362385608200,1.373608154296875,-0.02607998438179493,0.11124566942453384,0.09599009156227112
1768418362395609000,1.383609130859375,-0.011688647791743279,0.0905231311917305,0.1272806078195572
1768418362405611300,1.393611328125,0.0013677658280357718,0.07777377963066101,0.14012344181537628
1768418362415612200,1.403612060546875,0.01496889442205429,0.06285414099693298,0.14390748739242554
1768418362425613000,1.413613037109375,0.02255304343998432,0.06274600327014923,0.1424563229084015
1768418362435614200,1.4236142578125,0.038145340979099274,0.06227466091513634,0.1385175883769989
1768418362445615000,1.433614990234375,0.05262681096792221,0.05488891899585724,0.143199160695076
1768418362455617300,1.4436171875,0.06512673944234848,0.04745306819677353,0.15040022134780884
1768418362465618200,1.4536181640625,0.07943990081548691,0.0492166131734848,0.15374913811683655
1768418362475619000,1.463619140625,0.08399918675422668,0.049490053206682205,0.16304315626621246
1768418362485620200,1.4736201171875,0.08794892579317093,0.056406281888484955,0.17096152901649475
1768418362495621000,1.48362109375,0.08989259600639343,0.07351860404014587,0.1665363609790802
1768418362505623000,1.493623046875,0.08988621085882187,0.08400080353021622,0.1621842235326767
1768418362515624200,1.503624267578125,0.09135480225086212,0.08939345180988312,0.16178400814533234
1768418362525625300,1.513625244140625,0.08946076780557632,0.08039915561676025,0.16400934755802155
1768418362535626200,1.523626220703125,0.07894845306873322,0.06462680548429489,0.17250306904315948
1768418362545627100,1.533627197265625,0.0687972828745842,0.03538023307919502,0.1798693686723709
1768418362555629300,1.54362939453125,0.05317297205328941,0.008603853173553944,0.18921279907226562
1768418362565629700,1.553629638671875,0.040358107537031174,-0.010843614116311073,0.19032973051071167
1768418362575630600,1.563630615234375,0.033901095390319824,-0.023117918521165848,0.17857444286346436
1768418362585631500,1.573631591796875,0.023798396810889244,-0.033153776079416275,0.1681915819644928
1768418362595632600,1.583632568359375,0.017629163339734077,-0.03724975138902664,0.16109338402748108
1768418362605634800,1.593634765625,0.019245434552431107,-0.03222116827964783,0.14945483207702637
1768418362615635700,1.6036357421875,0.020379679277539253,-0.04116674140095711,0.14167271554470062
1768418362625636600,1.61363671875,0.019653968513011932,-0.05532676726579666,0.13119423389434814
1768418362635637500,1.623637451171875,0.01681857369840145,-0.07199905812740326,0.1240747943520546
1768418362645638700,1.633638671875,0.01070608664304018,-0.08376410603523254,0.11470339447259903
1768418362655640600,1.643640625,0.007730041164904833,-0.08841230720281601,0.1023830696940422
1768418362665641500,1.653641357421875,0.0022756208200007677,-0.08218557387590408,0.08727815002202988
1768418362675642600,1.663642578125,-0.003842135425657034,-0.07385668903589249,0.0731821060180664
1768418362685643800,1.673643798828125,-0.014793852344155312,-0.06873942911624908,0.062040772289037704
1768418362695644700,1.683644775390625,-0.025529738515615463,-0.06872455030679703,0.05181543901562691
1768418362705646600,1.693646484375,-0.034695543348789215,-0.07420559972524643,0.036332618445158005
1768418362715647700,1.703647705078125,-0.043369412422180176,-0.07069790363311768,0.02227490022778511
1768418362725648600,1.713648681640625,-0.048471227288246155,-0.06431403756141663,0.011998293921351433
1768418362735649500,1.7236494140625,-0.05092408135533333,-0.05992261692881584,0.013504540547728539
1768418362745650400,1.733650390625,-0.05135418102145195,-0.051398370414972305,0.019694259390234947
1768418362755652600,1.743652587890625,-0.04932386428117752,-0.04724293574690819,0.02185729518532753
1768418362765653500,1.753653564453125,-0.05009697750210762,-0.04442477971315384,0.021629326045513153
1768418362775654700,1.763654541015625,-0.048866961151361465,-0.04370803385972977,0.023858172819018364
1768418362785655800,1.77365576171875,-0.04708956927061081,-0.04295435920357704,0.02443234995007515
1768418362795656700,1.78365673828125,-0.04683360457420349,-0.04055130109190941,0.023863596841692924
1768418362805658600,1.79365869140625,-0.04515288397669792,-0.031009726226329803,0.02461487427353859
1768418362815659500,1.803659423828125,-0.04439355432987213,-0.020832620561122894,0.02097775973379612
1768418362825660700,1.81366064453125,-0.04180709272623062,-0.013093473389744759,0.016078341752290726
1768418362835661600,1.82366162109375,-0.03839309513568878,-0.008018894121050835,0.00894752237945795
1768418362845662700,1.833662841796875,-0.034433506429195404,-0.0035277397837489843,0.004319214727729559
1768418362855664600,1.84366455078125,-0.031730569899082184,0.00750113558024168,0.0055326116271317005
1768418362865665800,1.853665771484375,-0.02671024575829506,0.01336115412414074,0.005355511326342821
1768418362875666700,1.863666748046875,-0.02320748195052147,0.020243903622031212,0.007543237879872322
1768418362885667600,1.87366748046875,-0.016276339069008827,0.02298882231116295,0.008215419948101044
1768418362895668500,1.88366845703125,-0.013841924257576466,0.025443226099014282,0.008371556177735329
1768418362905670700,1.893670654296875,-0.014753525145351887,0.023938007652759552,0.006014126352965832
1768418362915671600,1.903671630859375,-0.013768551871180534,0.022629324346780777,0.0019101421348750591
1768418362925672400,1.91367236328125,-0.013046035543084145,0.02410178631544113,-0.0006651347503066063
1768418362935673600,1.923673583984375,-0.01336036715656519,0.023345833644270897,-0.0003595487214624882
1768418362945674800,1.9336748046875,-0.007426843978464603,0.022371383383870125,0.0017941498663276434
1768418362955676700,1.9436767578125,-0.007285675965249538,0.02194131724536419,0.007223346270620823
1768418362965677800,1.953677734375,-0.004186289384961128,0.01791834458708763,0.009930448606610298
1768418362975678700,1.9636787109375,-0.0034868859220296144,0.013505066744983196,0.011942801997065544
1768418362985679600,1.9736796875,-0.00275345123372972,0.008260237984359264,0.013858414255082607
1768418362995680500,1.983680419921875,-0.003089353907853365,0.002604335779324174,0.01498904824256897
1768418363005682700,1.9936826171875,0.00002760987263172865,-0.0008287450764328241,0.016990680247545242
1768418363015683600,2.00368359375,-0.0029862935189157724,-0.005379010923206806,0.016554294154047966
1768418363025684500,2.0136845703125,-0.0029183828737586737,-0.00937002431601286,0.01555401086807251
1768418363035685600,2.023685546875,-0.006407157052308321,-0.01348176971077919,0.01489131711423397
1768418363045686800,2.033686767578125,-0.008895082399249077,-0.013736367225646973,0.016069499775767326
1768418363055688700,2.043688720703125,-0.010061223059892654,-0.014929882250726223,0.018942318856716156
1768418363065689600,2.053689697265625,-0.009384247474372387,-0.01657811366021633,0.018396638333797455
1768418363075690500,2.0636904296875,-0.00785997323691845,-0.015627846121788025,0.017428016290068626
1768418363085691600,2.073691650390625,-0.005369917023926973,-0.01788407564163208,0.015849294140934944
1768418363095692500,2.083692626953125,-0.006066428031772375,-0.02184385620057583,0.013668636791408062
1768418363105694500,2.093694580078125,-0.007938896305859089,-0.027839165180921555,0.007748429663479328
1768418363115695600,2.103695556640625,-0.009177131578326225,-0.030501000583171844,0.007232256233692169
1768418363125696800,2.11369677734375,-0.011214450001716614,-0.03348507359623909,0.007421873509883881
1768418363135697700,2.12369775390625,-0.010313784703612328,-0.03337406367063522,0.01081642135977745
1768418363145698600,2.133698486328125,-0.008513221517205238,-0.032293885946273804,0.012420976534485817
1768418363155700700,2.14370068359375,-0.0071622407995164394,-0.029816148802638054,0.011107619851827621
1768418363165701600,2.15370166015625,-0.007865048944950104,-0.026681341230869293,0.01200324110686779
1768418363175702500,2.16370263671875,-0.008782794699072838,-0.028534935787320137,0.01434115320444107
1768418363185703400,2.173703369140625,-0.005793662741780281,-0.026289356872439384,0.01572706177830696
1768418363195704600,2.18370458984375,-0.004565604962408543,-0.025251898914575577,0.017699118703603745
1768418363205706500,2.19370654296875,-0.004833252634853125,-0.024822063744068146,0.019210994243621826
1768418363215707600,2.203707763671875,-0.003237389028072357,-0.02541390433907509,0.018011461943387985
1768418363225708800,2.213708740234375,-0.000809118733741343,-0.02752712182700634,0.019798176363110542
1768418363235709700,2.223709716796875,0.001640780596062541,-0.02892223931849003,0.021497607231140137
1768418363245710600,2.233710693359375,0.0037545314989984035,-0.0276697538793087,0.023840123787522316
1768418363255712500,2.24371240234375,0.004848448093980551,-0.028272932395339012,0.02175542525947094
1768418363265713700,2.253713623046875,0.0072865718975663185,-0.03085486590862274,0.02223186381161213
1768418363275714600,2.263714599609375,0.007169867865741253,-0.033141568303108215,0.02061658725142479
1768418363285715500,2.273715576171875,0.006357603706419468,-0.03568675369024277,0.020348140969872475
1768418363295716600,2.283716552734375,0.007523568347096443,-0.039179395884275436,0.018390284851193428
1768418363305718800,2.29371875,0.003824437502771616,-0.036287736147642136,0.018787361681461334
1768418363315719700,2.3037197265625,0.0028802896849811077,-0.032363682985305786,0.020384658128023148
1768418363325720600,2.313720458984375,0.0037540728226304054,-0.02672550454735756,0.02106482908129692
1768418363335721700,2.3237216796875,0.0035966632422059774,-0.02341044694185257,0.020702723413705826
1768418363345722600,2.33372265625,0.005247023887932301,-0.024163322523236275,0.016586273908615112
1768418363355724500,2.343724609375,0.006949333474040031,-0.028319407254457474,0.010946149006485939
1768418363365725400,2.353725341796875,0.007855873554944992,-0.02901102975010872,0.00939112901687622
1768418363375726600,2.3637265625,0.010428626090288162,-0.028903987258672714,0.009633583016693592
1768418363385727700,2.373727783203125,0.00885682925581932,-0.02869013510644436,0.008999750949442387
1768418363395728600,2.383728759765625,0.00802858080714941,-0.027914078906178474,0.008575083687901497
1768418363405729500,2.3937294921875,0.00934657920151949,-0.024801377207040787,0.011595107614994049
1768418363415731700,2.403731689453125,0.008181164041161537,-0.02282801829278469,0.012308119796216488
1768418363425732600,2.413732666015625,0.009952166117727757,-0.024465862661600113,0.011948859319090843
1768418363435733500,2.4237333984375,0.007855303585529327,-0.022973455488681793,0.007946371100842953
1768418363445734700,2.433734619140625,0.005468579009175301,-0.024498382583260536,0.005025948863476515
1768418363455736600,2.443736572265625,0.005019021220505238,-0.023934902623295784,0.001434227917343378
1768418363465737500,2.453737548828125,0.002958266995847225,-0.025031326338648796,-0.001815627794712782
1768418363475738600,2.463738525390625,0.003290338907390833,-0.027978403493762016,-0.0028539644554257393
1768418363485739800,2.47373974609375,0.00593592319637537,-0.032663967460393906,-0.0019412990659475327
1768418363495740700,2.48374072265625,0.008779441006481647,-0.03351767361164093,-0.005658310372382402
1768418363505742600,2.49374267578125,0.013676194474101067,-0.03358878195285797,-0.00582768814638257
1768418363515743700,2.50374365234375,0.012833592481911182,-0.036844994872808456,-0.006482216529548168
1768418363525744600,2.51374462890625,0.014804864302277565,-0.03937792778015137,-0.00808783620595932
1768418363535745500,2.52374560546875,0.015244736336171627,-0.041029490530490875,-0.005880913697183132
1768418363545746700,2.53374658203125,0.0118870222941041,-0.0403413288295269,-0.003957844339311123
1768418363555747600,2.54374755859375,0.011136474087834358,-0.043746352195739746,-0.00028463779017329216
1768418363565749800,2.553749755859375,0.009963884018361568,-0.0455825999379158,0.0024376455694437027
1768418363575751000,2.5637509765625,0.0075470819137990475,-0.04648829624056816,0.001643940107896924
1768418363585751800,2.573751708984375,0.007614459842443466,-0.051875870674848557,0.0002633575350046158
1768418363595752700,2.583752685546875,0.008239577524363995,-0.0570550262928009,0.0020612420048564672
1768418363605753900,2.59375390625,0.009568761102855206,-0.058150120079517365,0.009262163192033768
1768418363615755800,2.603755859375,0.015356380492448807,-0.05768132582306862,0.020036771893501282
1768418363625756700,2.613756591796875,0.023659316822886467,-0.0649309828877449,0.03644317761063576
1768418363635757600,2.623757568359375,0.028483256697654724,-0.07477825880050659,0.0575101375579834
1768418363645759000,2.633759033203125,0.027093352749943733,-0.09059423953294754,0.08318247646093369
1768418363655760000,2.643759765625,0.021134907379746437,-0.10138006508350372,0.11120875924825668
1768418363665761800,2.65376171875,0.0227716863155365,-0.10546056181192398,0.13348743319511414
1768418363675763000,2.663762939453125,0.03604916110634804,-0.09658847004175186,0.1590764969587326
1768418363685763800,2.673763916015625,0.04382479190826416,-0.07223972678184509,0.17389990389347076
1768418363695764700,2.6837646484375,0.04444221407175064,-0.046223923563957214,0.17188918590545654
1768418363705765600,2.693765625,0.0596131756901741,-0.007752697914838791,0.17797690629959106
1768418363715767800,2.703767822265625,0.07571705430746078,0.019321054220199585,0.17906776070594788
1768418363725768700,2.713768798828125,0.08519630879163742,0.041289735585451126,0.1766599863767624
1768418363735769900,2.723769775390625,0.09125080704689026,0.048336826264858246,0.1772594302892685
1768418363745770800,2.733770751953125,0.094053253531456,0.04435327649116516,0.17543889582157135
1768418363755772000,2.74377197265625,0.09722907096147537,0.032622843980789185,0.1742394119501114
1768418363765773800,2.75377392578125,0.10969825834035873,0.015961579978466034,0.17154695093631744
1768418363775774700,2.763774658203125,0.13068868219852448,-0.0011400571092963219,0.16818349063396454
1768418363785775900,2.77377587890625,0.1509167104959488,-0.02070576883852482,0.1656620055437088
1768418363795776800,2.78377685546875,0.1742054969072342,-0.05225018039345741,0.16213956475257874
1768418363805777700,2.793777587890625,0.19117781519889832,-0.08018966764211655,0.1508251279592514
1768418363815779600,2.803779541015625,0.21004188060760498,-0.11561944335699081,0.12818099558353424
1768418363825781000,2.813781005859375,0.2218007892370224,-0.1509433537721634,0.09819407761096954
1768418363835782000,2.823781982421875,0.2295660525560379,-0.19427211582660675,0.07089722901582718
1768418363845782800,2.83378271484375,0.2359006404876709,-0.24315176904201508,0.0348643958568573
1768418363855783700,2.84378369140625,0.2392442226409912,-0.28310027718544006,-0.0018327110446989536
1768418363865785900,2.853785888671875,0.24120856821537018,-0.32799825072288513,-0.03706153854727745
1768418363875786800,2.863786865234375,0.24218842387199402,-0.3758825361728668,-0.0675005242228508
1768418363885787600,2.87378759765625,0.23810046911239624,-0.42716729640960693,-0.09676387161016464
1768418363895788800,2.883788818359375,0.2250521332025528,-0.48043859004974365,-0.12072240561246872
1768418363905790000,2.8937900390625,0.20642918348312378,-0.5255435109138489,-0.14269854128360748
1768418363915792000,2.9037919921875,0.18644799292087555,-0.5594786405563354,-0.16229283809661865
1768418363925792800,2.913792724609375,0.16161614656448364,-0.5899081826210022,-0.1873800903558731
1768418363935794000,2.9237939453125,0.1330064982175827,-0.6042551398277283,-0.20815564692020416
1768418363945794800,2.933794921875,0.10515036433935165,-0.606890857219696,-0.22467097640037537
1768418363955795700,2.943795654296875,0.08184442669153214,-0.6084854602813721,-0.24366974830627441
1768418363965798000,2.9537978515625,0.06045551225543022,-0.6026355624198914,-0.26076430082321167
1768418363975798800,2.963798828125,0.047792624682188034,-0.5756129622459412,-0.2708597183227539
1768418363985799700,2.973799560546875,0.03833254426717758,-0.537380039691925,-0.26718270778656006
1768418363995800800,2.98380078125,0.039514414966106415,-0.4768773317337036,-0.26178088784217834
1768418364005801700,2.9938017578125,0.042875323444604874,-0.4084490239620209,-0.2572266161441803
1768418364015804000,3.003803955078125,0.03933601453900337,-0.3338093161582947,-0.25935038924217224
1768418364025804800,3.0138046875,0.03234761208295822,-0.2317868024110794,-0.24552220106124878
1768418364035805700,3.0238056640625,0.027460863813757896,-0.1403718888759613,-0.1991250067949295
1768418364045806800,3.033806884765625,0.032991986721754074,-0.056345175951719284,-0.12478074431419373
1768418364055807700,3.043807861328125,0.04061361029744148,0.023867478594183922,-0.03920190781354904
1768418364065809700,3.0538095703125,0.04684487730264664,0.07550377398729324,0.04344876483082771
1768418364075810800,3.063810791015625,0.05345583334565163,0.1135396808385849,0.09009590744972229
1768418364085812000,3.07381201171875,0.06268288195133209,0.13786126673221588,0.08712009340524673
1768418364095812900,3.083812744140625,0.08802661299705505,0.1450161635875702,0.05290691554546356
1768418364105813800,3.093813720703125,0.11759382486343384,0.13552013039588928,0.006924775429069996
1768418364115816000,3.10381591796875,0.14502248167991638,0.08908330649137497,-0.03128119558095932
1768418364125816800,3.11381689453125,0.16803139448165894,0.031178463250398636,-0.059358105063438416
1768418364135817700,3.123817626953125,0.18266776204109192,-0.050283033400774,-0.06173396855592728
1768418364145818600,3.133818603515625,0.19861717522144318,-0.14452804625034332,-0.059662826359272
1768418364155819800,3.14381982421875,0.21916288137435913,-0.24770058691501617,-0.059366676956415176
1768418364165821700,3.15382177734375,0.24927204847335815,-0.3300170302391052,-0.06905312091112137
1768418364175822800,3.16382275390625,0.27502870559692383,-0.3909839689731598,-0.07764016836881638
1768418364185823700,3.17382373046875,0.29532891511917114,-0.43384113907814026,-0.08008548617362976
1768418364195825000,3.183824951171875,0.30336427688598633,-0.47542834281921387,-0.06476132571697235
1768418364205825800,3.19382568359375,0.3057187795639038,-0.5148116946220398,-0.048122964799404144
1768418364215827700,3.20382763671875,0.2944771349430084,-0.5343835949897766,-0.02602878399193287
1768418364225828900,3.213828857421875,0.27336278557777405,-0.5345926880836487,-0.005659862887114286
1768418364235829800,3.223829833984375,0.24130983650684357,-0.5333675742149353,0.012159871868789196
1768418364245830700,3.23383056640625,0.2028180956840515,-0.5215825438499451,0.029582004994153976
1768418364255831800,3.243831787109375,0.16166161000728607,-0.49534210562705994,0.034038007259368896
1768418364265833700,3.253833740234375,0.114315927028656,-0.46162089705467224,0.02923686057329178
1768418364275835000,3.2638349609375,0.07413551211357117,-0.4303668439388275,0.02194855734705925
1768418364285835800,3.273835693359375,0.03906380757689476,-0.38770005106925964,0.024072162806987762
1768418364295836700,3.283836669921875,0.019950686022639275,-0.32562553882598877,0.03568197786808014
1768418364305837800,3.293837890625,0.0017849982250481844,-0.2691665291786194,0.040530793368816376
1768418364315839700,3.30383984375,-0.025393862277269363,-0.2395465224981308,0.04608358442783356
1768418364325840600,3.313840576171875,-0.06064505875110626,-0.2303554117679596,0.07123101502656937
1768418364335841800,3.323841796875,-0.09619662165641785,-0.23635196685791016,0.09811748564243317
1768418364345843000,3.333843017578125,-0.13049839437007904,-0.2656046748161316,0.11649276316165924
1768418364355843800,3.34384375,-0.15920200943946838,-0.2828700542449951,0.12468111515045166
1768418364365845800,3.353845703125,-0.17921780049800873,-0.2932523787021637,0.1421234905719757
1768418364375847000,3.363846923828125,-0.20071569085121155,-0.327006995677948,0.1605324149131775
1768418364385847800,3.373847900390625,-0.22741679847240448,-0.38612064719200134,0.191200852394104
1768418364395848700,3.3838486328125,-0.255342960357666,-0.46236053109169006,0.24229829013347626
1768418364405849600,3.393849609375,-0.2782386839389801,-0.5552433133125305,0.3024846613407135
1768418364415851800,3.403851806640625,-0.28548499941825867,-0.6397566199302673,0.35367563366889954
1768418364425852700,3.413852783203125,-0.2722397744655609,-0.6775543093681335,0.38157224655151367
1768418364435853800,3.423853759765625,-0.23633240163326263,-0.6845182776451111,0.3859593868255615
1768418364445855000,3.43385498046875,-0.1854604184627533,-0.6629785895347595,0.365303099155426
1768418364455855900,3.44385595703125,-0.1360449343919754,-0.637528121471405,0.3262341618537903
1768418364465857800,3.45385791015625,-0.09128490835428238,-0.6119553446769714,0.2789230942726135
1768418364475858700,3.463858642578125,-0.04082315042614937,-0.6040861010551453,0.23580212891101837
1768418364485859800,3.47385986328125,-0.01303679309785366,-0.6142241954803467,0.19998180866241455
1768418364495860700,3.48386083984375,-0.0011282020714133978,-0.6420326828956604,0.17804507911205292
1768418364505861600,3.493861572265625,0.008524691686034203,-0.654464840888977,0.16808299720287323
1768418364515863800,3.50386376953125,0.00784092303365469,-0.6374409198760986,0.16493865847587585
1768418364525865000,3.513864990234375,-0.0024071873631328344,-0.6166293621063232,0.15808235108852386
1768418364535865900,3.523865966796875,-0.01711135171353817,-0.5974986553192139,0.1462273746728897
1768418364545866800,3.53386669921875,-0.03426690399646759,-0.591284990310669,0.12995092570781708
1768418364555868000,3.543867919921875,-0.0660703256726265,-0.6172546744346619,0.11387759447097778
1768418364565869800,3.553869873046875,-0.10748913139104843,-0.697334885597229,0.13031995296478271
1768418364575870700,3.56387060546875,-0.17546446621418,-0.8568726181983948,0.17807184159755707
1768418364585871600,3.57387158203125,-0.25484609603881836,-0.9913124442100525,0.24843069911003113
1768418364595872800,3.583872802734375,-0.29609888792037964,-0.9598839282989502,0.3139069676399231
1768418364605874000,3.5938740234375,-0.26189324259757996,-0.7273476719856262,0.369164377450943
1768418364615875800,3.603875732421875,-0.17191052436828613,-0.3692777156829834,0.41698041558265686
1768418364625876700,3.613876708984375,-0.020962819457054138,-0.02521675080060959,0.432999849319458
1768418364635878000,3.6238779296875,0.17099134624004364,0.281503289937973,0.42374387383461
1768418364645878800,3.633878662109375,0.3576056957244873,0.5677323937416077,0.46476826071739197
1768418364655879700,3.643879638671875,0.48598623275756836,0.604727029800415,0.46390628814697266
1768418364665881600,3.653881591796875,0.4871788024902344,0.24824056029319763,0.3052647113800049
1768418364675882800,3.6638828125,0.42632123827934265,-0.010067024268209934,0.0160541832447052
1768418364685883600,3.673883544921875,0.2570997476577759,0.4007950723171234,-0.30300769209861755
1768418364695884800,3.683884765625,0.024108711630105972,0.5554611682891846,-0.4132930636405945
1768418364705885700,3.6938857421875,-0.12258326262235641,0.4205493628978729,-0.33844253420829773
1768418364715887900,3.703887939453125,-0.1939752846956253,0.21374161541461945,-0.1974579095840454
1768418364725888800,3.713888671875,-0.21120807528495789,0.09922248870134354,-0.045271843671798706
1768418364735889700,3.7238896484375,-0.21521379053592682,0.03825589269399643,0.006522446405142546
1768418364745890800,3.733890869140625,-0.2566262185573578,0.1583343744277954,0.055271342396736145
1768418364755891700,3.7438916015625,-0.21741244196891785,0.39452552795410156,0.30207598209381104
1768418364765893600,3.7538935546875,-0.11132834851741791,0.4769836366176605,0.5306087732315063
1768418364775894500,3.76389453125,-0.04704134911298752,0.37527355551719666,0.5000944137573242
1768418364785896000,3.77389599609375,-0.09037071466445923,0.2295517772436142,0.21836897730827332
1768418364795896800,3.783896728515625,-0.20108340680599213,0.1513785868883133,-0.06422659754753113
1768418364805897700,3.793897705078125,-0.2926492989063263,0.14241865277290344,-0.15454477071762085
1768418364815898600,3.803898681640625,-0.3389417827129364,0.1523483246564865,-0.07222386449575424
1768418364825900800,3.81390087890625,-0.3496655225753784,0.16896511614322662,0.06865256279706955
1768418364835901700,3.823901611328125,-0.34219449758529663,0.20379988849163055,0.19314612448215485
1768418364845902600,3.833902587890625,-0.3324577212333679,0.26204347610473633,0.2634245455265045
1768418364855903700,3.84390380859375,-0.3291744589805603,0.31813496351242065,0.2974676787853241
1768418364865905700,3.85390576171875,-0.3231554627418518,0.36120760440826416,0.33901938796043396
1768418364875906800,3.86390673828125,-0.3082425892353058,0.36416444182395935,0.3837410509586334
1768418364885907700,3.87390771484375,-0.295711874961853,0.35307928919792175,0.41365769505500793
1768418364895908900,3.883908935546875,-0.3000049889087677,0.3559585511684418,0.4058382213115692
1768418364905909800,3.89390966796875,-0.3064199984073639,0.35345250368118286,0.3605645000934601
1768418364915910700,3.90391064453125,-0.3153716027736664,0.32613933086395264,0.30690798163414
1768418364925912800,3.913912841796875,-0.3083525598049164,0.24124974012374878,0.2686045169830322
1768418364935913700,3.923913818359375,-0.28763866424560547,0.16475006937980652,0.25948840379714966
1768418364945914600,3.93391455078125,-0.2613559365272522,0.09890259802341461,0.26948750019073486
1768418364955915800,3.943915771484375,-0.22878362238407135,0.08685179799795151,0.2897230088710785
1768418364965916700,3.953916748046875,-0.17517204582691193,0.1267656683921814,0.3214718997478485
1768418364975918800,3.9639189453125,-0.10999062657356262,0.17203763127326965,0.3597021996974945
1768418364985919700,3.973919677734375,-0.05191081017255783,0.19503642618656158,0.37845379114151
1768418364995920600,3.983920654296875,-0.019020404666662216,0.19821667671203613,0.3666905462741852
1768418365005921800,3.993921875,0.010239746421575546,0.1910085529088974,0.3548552095890045
1768418365015922700,4.003922607421875,0.03982320427894592,0.1528310775756836,0.3406522870063782
1768418365025924600,4.013924560546875,0.07285572588443756,0.13122591376304626,0.3208519518375397
1768418365035925800,4.02392578125,0.09376616030931473,0.10858365893363953,0.2921498119831085
1768418365045927000,4.033927001953125,0.10346219688653946,0.0874144583940506,0.25636038184165955
1768418365055927800,4.043927734375,0.1053786650300026,0.07240234315395355,0.23121391236782074
1768418365065928700,4.0539287109375,0.10367157310247421,0.06117391958832741,0.2070917934179306
1768418365075931000,4.063930908203125,0.1098368912935257,0.07024828344583511,0.1711679995059967
1768418365085931800,4.073931884765625,0.12592105567455292,0.12378181517124176,0.11639796197414398
1768418365095932700,4.0839326171875,0.1480923742055893,0.19039863348007202,0.03885926306247711
1768418365105933600,4.09393359375,0.15897831320762634,0.21446402370929718,-0.0668269470334053
1768418365115935000,4.10393505859375,0.1392989456653595,0.18721334636211395,-0.16487036645412445
1768418365125936600,4.1139365234375,0.08767809718847275,0.1331799328327179,-0.18968836963176727
1768418365135937800,4.123937744140625,0.032905757427215576,0.08836790174245834,-0.14173206686973572
1768418365145938700,4.133938720703125,0.005195301957428455,0.10584250092506409,-0.1046890914440155
1768418365155939800,4.14393994140625,0.01230927836149931,0.16859987378120422,-0.15182293951511383
1768418365165940700,4.153940673828125,0.027118051424622536,0.21635966002941132,-0.2944413423538208
1768418365175942700,4.163942626953125,-0.008070494048297405,0.20906171202659607,-0.48688820004463196
1768418365185943800,4.17394384765625,-0.11264936625957489,0.13952204585075378,-0.643683671951294
1768418365195944700,4.18394482421875,-0.2786917984485626,-0.016057804226875305,-0.6913626194000244
1768418365205945900,4.19394580078125,-0.4559411406517029,-0.19778364896774292,-0.5836103558540344
1768418365215946800,4.20394677734375,-0.5145494937896729,-0.281585693359375,-0.3486206531524658
1768418365225949000,4.213948974609375,-0.4253655672073364,-0.28946465253829956,-0.043106548488140106
1768418365235949800,4.22394970703125,-0.31408071517944336,-0.37869036197662354,0.28336650133132935
1768418365245950700,4.23395068359375,-0.2625011205673218,-0.6125595569610596,0.5140185952186584
1768418365255951600,4.24395166015625,-0.24242863059043884,-0.79234778881073,0.543572187423706
1768418365265952800,4.253952880859375,-0.2276155948638916,-0.864602267742157,0.3429386615753174
1768418365275954700,4.26395458984375,-0.23129019141197205,-0.9039748311042786,0.022405928000807762
1768418365285955600,4.27395556640625,-0.30773037672042847,-0.8714169263839722,-0.32723090052604675
1768418365295956700,4.283956787109375,-0.31507596373558044,-0.6732107400894165,-0.6536949276924133
1768418365305958000,4.2939580078125,-0.2556014358997345,-0.3183802366256714,-0.7994308471679688
1768418365315958800,4.303958740234375,-0.1851687878370285,-0.009923768229782581,-0.7671670913696289
1768418365325960700,4.313960693359375,-0.13141660392284393,0.150453120470047,-0.6513411402702332
1768418365335961900,4.3239619140625,-0.12202657014131546,0.17385351657867432,-0.5011680126190186
1768418365345962800,4.333962646484375,-0.1268301010131836,0.1780005842447281,-0.34874969720840454
1768418365355963600,4.343963623046875,-0.08055796474218369,0.1938716471195221,-0.20462359488010406
1768418365365964500,4.353964599609375,0.015701455995440483,0.21394814550876617,-0.06558181345462799
1768418365375966700,4.363966796875,0.1310054063796997,0.1906268447637558,0.023932354524731636
1768418365385967600,4.373967529296875,0.2327905148267746,0.14238053560256958,0.03487871214747429
1768418365395968800,4.38396875,0.2789408266544342,0.06648280471563339,-0.01345725730061531
1768418365405970000,4.393969970703125,0.2642897069454193,0.03422021120786667,-0.08998105674982071
1768418365415970800,4.403970703125,0.2037392258644104,0.0501684695482254,-0.14994080364704132
1768418365425972700,4.41397265625,0.13423818349838257,0.048073895275592804,-0.1868508756160736
1768418365435973600,4.4239736328125,0.08773389458656311,0.04326147958636284,-0.19345103204250336
1768418365445974800,4.433974853515625,0.0787995234131813,0.06931491196155548,-0.1799277663230896
1768418365455975700,4.4439755859375,0.10696772485971451,0.11652518808841705,-0.16174377501010895
1768418365465976800,4.453976806640625,0.14729063212871552,0.16923820972442627,-0.13423039019107819
1768418365475978800,4.463978759765625,0.17381949722766876,0.15392860770225525,-0.1171545535326004
1768418365485980000,4.47397998046875,0.1896440088748932,0.11248636245727539,-0.08083250373601913
1768418365495980800,4.483980712890625,0.19450394809246063,0.10281950235366821,-0.01034226268529892
1768418365505981700,4.493981689453125,0.2063417136669159,0.1107059195637703,0.04903823882341385
1768418365515982800,4.50398291015625,0.21589572727680206,0.14365093410015106,0.07438142597675323
1768418365525984800,4.51398486328125,0.20336635410785675,0.18964985013008118,0.06494265049695969
1768418365535985700,4.523985595703125,0.17111285030841827,0.2257447987794876,0.02806931547820568
1768418365545986600,4.533986572265625,0.12336902320384979,0.27312910556793213,-0.028540432453155518
1768418365555987700,4.54398779296875,0.06663244962692261,0.2895101010799408,-0.0730130523443222
1768418365565988400,4.55398828125,0.02030196785926819,0.32567182183265686,-0.09650852531194687
1768418365575990500,4.563990478515625,-0.011248856782913208,0.3630128800868988,-0.10263103246688843
1768418365585991400,4.573991455078125,-0.0274528618901968,0.3941955864429474,-0.09817290306091309
1768418365595992300,4.583992431640625,-0.04170602932572365,0.40515196323394775,-0.08343327790498734
1768418365605993200,4.5939931640625,-0.06460069864988327,0.3646623492240906,-0.06743114441633224
1768418365615994400,4.603994384765625,-0.078717440366745,0.2816079258918762,-0.04870784655213356
1768418365625996300,4.613996337890625,-0.08736073225736618,0.1785944700241089,-0.06439519673585892
1768418365635997200,4.6239970703125,-0.10300011932849884,0.06220529228448868,-0.1474970430135727
1768418365645998600,4.63399853515625,-0.13693465292453766,-0.040955979377031326,-0.26707378029823303
1768418365655999500,4.64399951171875,-0.1953761875629425,-0.12358303368091583,-0.35476991534233093
1768418365666000400,4.65400048828125,-0.26319625973701477,-0.1846754103899002,-0.35349372029304504
1768418365676002300,4.664002197265625,-0.32925939559936523,-0.22295139729976654,-0.3039418160915375
1768418365686003500,4.67400341796875,-0.37603887915611267,-0.27238765358924866,-0.27332690358161926
1768418365696004400,4.68400439453125,-0.4148642420768738,-0.37821435928344727,-0.3091639578342438
1768418365706005200,4.694005126953125,-0.4539527893066406,-0.4851815700531006,-0.38951390981674194
1768418365716006400,4.70400634765625,-0.42624473571777344,-0.49911150336265564,-0.4594148099422455
1768418365726008300,4.71400830078125,-0.2909473478794098,-0.42223963141441345,-0.47461986541748047
1768418365736009500,4.724009521484375,-0.10087203234434128,-0.22803297638893127,-0.3944251239299774
1768418365746010400,4.73401025390625,0.08320779353380203,0.035044461488723755,-0.283913254737854
1768418365756011500,4.744011474609375,0.284517377614975,0.23517784476280212,-0.19600361585617065
1768418365766013400,4.754013427734375,0.4551101326942444,0.310285359621048,-0.06268097460269928
1768418365776014300,4.764014404296875,0.5703637599945068,0.3269193172454834,0.09031613171100616
1768418365786015200,4.77401513671875,0.6271455883979797,0.40273523330688477,0.20313827693462372
1768418365796016400,4.784016357421875,0.6673378944396973,0.5854424238204956,0.29579704999923706
1768418365806017300,4.794017333984375,0.704204261302948,0.6699395179748535,0.4304925501346588
1768418365816019200,4.804019287109375,0.656417727470398,0.4431879222393036,0.6653488278388977
1768418365826020400,4.814020263671875,0.6009408831596375,0.8388633728027344,0.818269670009613
1768418365836021500,4.824021484375,0.4043363332748413,1.2066631317138672,0.4883684515953064
1768418365846022400,4.8340224609375,0.2633272707462311,1.0017787218093872,0.04016804322600365
1768418365856023300,4.844023193359375,0.17407119274139404,0.8795580267906189,-0.2446724772453308
1768418365866025500,4.854025390625,0.12234914302825928,0.7798364758491516,-0.32694366574287415
1768418365876026400,4.8640263671875,0.0731954425573349,0.4841214716434479,-0.3360286355018616
1768418365886027300,4.87402734375,0.04834362119436264,0.23957964777946472,-0.2413697987794876
1768418365896028200,4.884028076171875,0.05406373739242554,0.08333205431699753,-0.01962185837328434
1768418365906029600,4.894029541015625,0.08008868247270584,-0.08955583721399307,0.24392029643058777
1768418365916031500,4.904031494140625,0.049003615975379944,-0.2080930918455124,0.36243322491645813
1768418365926032400,4.914032470703125,-0.03278472274541855,-0.08325023204088211,0.34482306241989136
1768418365936033500,4.924033447265625,-0.07017156481742859,0.16018255054950714,0.4053303003311157
1768418365946034400,4.934034423828125,-0.07117504626512527,0.3291175067424774,0.5771116018295288
1768418365956035300,4.944035400390625,-0.0888550877571106,0.2885597348213196,0.6743786334991455
1768418365966037200,4.954037353515625,-0.17671462893486023,0.1856868863105774,0.5820391178131104
1768418365976038400,4.964038330078125,-0.2559765875339508,0.1482158601284027,0.3880451023578644
1768418365986039300,4.974039306640625,-0.2642459571361542,0.20879559218883514,0.23116470873355865
1768418365996040400,4.98404052734375,-0.23658372461795807,0.32089102268218994,0.14960823953151703
1768418366006041300,4.994041259765625,-0.2103973925113678,0.4193483591079712,0.11850091814994812
1768418366016043500,5.00404345703125,-0.18977735936641693,0.5351496934890747,0.10579898208379745
1768418366026044400,5.01404443359375,-0.17788155376911163,0.6521881222724915,0.08981682360172272
1768418366036045300,5.02404541015625,-0.17335161566734314,0.7379186153411865,0.08494359999895096
1768418366046046200,5.034046142578125,-0.17849098145961761,0.7880517840385437,0.10990940034389496
1768418366056047400,5.04404736328125,-0.18708154559135437,0.8251320719718933,0.16235114634037018
1768418366066049300,5.05404931640625,-0.19702471792697906,0.8740324974060059,0.2322245091199875
1768418366076050200,5.06405029296875,-0.22761467099189758,0.8997282981872559,0.3002665042877197
1768418366086051600,5.074051513671875,-0.2540777325630188,0.8567382097244263,0.34041526913642883
1768418366096052500,5.084052490234375,-0.24588298797607422,0.7704253196716309,0.35990625619888306
1768418366106053400,5.094053466796875,-0.19885209202766418,0.6733993887901306,0.366401731967926
1768418366116055600,5.1040556640625,-0.13047397136688232,0.5829296708106995,0.35187575221061707
1768418366126056400,5.114056396484375,-0.04604058712720871,0.513844907283783,0.3284503221511841
1768418366136057300,5.124057373046875,0.047999173402786255,0.4883679151535034,0.31470799446105957
1768418366146058200,5.134058349609375,0.15542683005332947,0.4892595410346985,0.3138885498046875
1768418366156059400,5.144059326171875,0.24705810844898224,0.4924018979072571,0.33491942286491394
1768418366166061300,5.154061279296875,0.3277798593044281,0.49340829253196716,0.35985273122787476
1768418366176062500,5.1640625,0.37899091839790344,0.48130467534065247,0.3493369221687317
1768418366186063400,5.1740634765625,0.39583781361579895,0.4852792024612427,0.3089064061641693
1768418366196064500,5.184064453125,0.39961951971054077,0.5547434091567993,0.26970502734184265
1768418366206065400,5.1940654296875,0.38868191838264465,0.6384332776069641,0.2211526781320572
1768418366216067300,5.2040673828125,0.3496621549129486,0.7088077664375305,0.13149848580360413
1768418366226068200,5.214068115234375,0.27534717321395874,0.6931667327880859,0.013991564512252808
1768418366236069400,5.2240693359375,0.16927289962768555,0.5972784757614136,-0.10852395743131638
1768418366246070300,5.2340703125,0.04714513197541237,0.47762027382850647,-0.2110130488872528
1768418366256071400,5.244071533203125,-0.07071447372436523,0.3675665855407715,-0.27232450246810913
1768418366266073300,5.2540732421875,-0.1869204342365265,0.2627544105052948,-0.2834019064903259
1768418366276074500,5.264074462890625,-0.32206663489341736,0.1591804325580597,-0.26743313670158386
1768418366286075400,5.274075439453125,-0.4548020362854004,0.0939745381474495,-0.250649094581604
1768418366296076300,5.284076171875,-0.5807370543479919,0.07418275624513626,-0.2550658583641052
1768418366306077400,5.294077392578125,-0.6448166966438293,0.1074424460530281,-0.2746430039405823
1768418366316079400,5.304079345703125,-0.5888404250144958,0.2371782511472702,-0.2535504400730133
1768418366326080300,5.314080322265625,-0.41919705271720886,0.44266563653945923,-0.142481729388237
1768418366336081200,5.3240810546875,-0.22934196889400482,0.5721909999847412,0.07948948442935944
1768418366346082600,5.33408251953125,-0.11727854609489441,0.4706883430480957,0.3004447817802429
1768418366356083500,5.34408349609375,-0.12239215523004532,0.18618059158325195,0.3463454246520996
1768418366366085400,5.35408544921875,-0.19249428808689117,-0.1508922427892685,0.15441593527793884
1768418366376086500,5.36408642578125,-0.3085775673389435,-0.3913942575454712,-0.18480682373046875
1768418366386087400,5.37408740234375,-0.4712122976779938,-0.47648757696151733,-0.5082564949989319
1768418366396088300,5.38408837890625,-0.6193954348564148,-0.5144193768501282,-0.7355163097381592
1768418366406089200,5.394089111328125,-0.6401262879371643,-0.5086541771888733,-0.8305152654647827
1768418366416091400,5.40409130859375,-0.5057835578918457,-0.3893912136554718,-0.7463083863258362
1768418366426092300,5.41409228515625,-0.319278359413147,-0.23063431680202484,-0.5069890022277832
1768418366436093400,5.424093505859375,-0.14200319349765778,-0.08082351833581924,-0.25314009189605713
1768418366446094300,5.43409423828125,-0.0342695489525795,0.02257850207388401,-0.03107212483882904
1768418366456095500,5.444095458984375,0.020587235689163208,0.044778190553188324,0.07140286266803741
1768418366466097400,5.454097412109375,0.1084904596209526,0.00383767974562943,0.027908651158213615
1768418366476098300,5.464098388671875,0.21479728817939758,-0.048541177064180374,-0.08315122872591019
1768418366486099500,5.474099365234375,0.3016988933086395,-0.12327507138252258,-0.20373596251010895
1768418366496100400,5.484100341796875,0.3088715672492981,-0.26252809166908264,-0.2782498002052307
1768418366506101200,5.494101318359375,0.2618744969367981,-0.3533767759799957,-0.2777341902256012
1768418366516103200,5.504103271484375,0.23129944503307343,-0.38444674015045166,-0.2567024827003479
1768418366526104600,5.5141044921875,0.20781037211418152,-0.3922995924949646,-0.24458856880664825
1768418366536105500,5.52410546875,0.19606845080852509,-0.3715459108352661,-0.23200863599777222
1768418366546106400,5.5341064453125,0.20719194412231445,-0.328746497631073,-0.18576736748218536
1768418366556108500,5.544108642578125,0.22081410884857178,-0.30098554491996765,-0.10543940216302872
1768418366566109400,5.554109375,0.22788453102111816,-0.2875986397266388,-0.021537844091653824
1768418366576111000,5.564111083984375,0.21335990726947784,-0.2988279163837433,0.0438697412610054
1768418366586112000,5.574112060546875,0.1908458173274994,-0.3175179660320282,0.09207162261009216
1768418366596113200,5.584113037109375,0.19772784411907196,-0.3377285897731781,0.12000327557325363
1768418366606115000,5.594114990234375,0.216162770986557,-0.3141026198863983,0.14286278188228607
1768418366616116000,5.604115966796875,0.22782912850379944,-0.2756887376308441,0.13436326384544373
1768418366626117000,5.6141171875,0.23326197266578674,-0.2796829640865326,0.1255926787853241
1768418366636118300,5.6241181640625,0.2303089052438736,-0.27807682752609253,0.11198672652244568
1768418366646119200,5.634119140625,0.23543362319469452,-0.22034962475299835,0.04055967926979065
1768418366656121000,5.64412109375,0.2496764212846756,-0.16165311634540558,-0.07066986709833145
1768418366666122200,5.654122314453125,0.2664303481578827,-0.10474296659231186,-0.17225535213947296
1768418366676123100,5.664123046875,0.260165274143219,-0.10802371799945831,-0.24383525550365448
1768418366686124000,5.6741240234375,0.2125634104013443,-0.13183076679706573,-0.3015478253364563
1768418366696125000,5.684125,0.14250029623508453,-0.1471860259771347,-0.3378509283065796
1768418366706127000,5.694127197265625,0.07466771453619003,-0.1673019528388977,-0.3232634663581848
1768418366716128000,5.7041279296875,0.018648676574230194,-0.20744188129901886,-0.2746734619140625
1768418366726129200,5.714129150390625,-0.047762833535671234,-0.28259041905403137,-0.2639228105545044
1768418366736130300,5.72413037109375,-0.13042274117469788,-0.40055713057518005,-0.3095906674861908
1768418366746131200,5.734131103515625,-0.22621850669384003,-0.5368449687957764,-0.37419840693473816
1768418366756133000,5.744133056640625,-0.3097761571407318,-0.5912392735481262,-0.3682612180709839
1768418366766134000,5.754134033203125,-0.33227452635765076,-0.5543408989906311,-0.26530206203460693
1768418366776135200,5.76413525390625,-0.3419010639190674,-0.5080012679100037,-0.12003293633460999
1768418366786136000,5.774135986328125,-0.4214344620704651,-0.4749397337436676,-0.029695849865674973
1768418366796137200,5.78413720703125,-0.5265201926231384,-0.6131806969642639,-0.15106645226478577
1768418366806139100,5.79413916015625,-0.535965621471405,-0.8093627691268921,-0.35529202222824097
1768418366816140300,5.804140380859375,-0.38496336340904236,-0.6672680974006653,-0.4727585017681122
1768418366826141200,5.81414111328125,-0.08645309507846832,-0.15589986741542816,-0.39310628175735474
1768418366836142000,5.82414208984375,0.25273510813713074,0.25468161702156067,-0.1840667724609375
1768418366846143000,5.83414306640625,0.414065957069397,0.22339293360710144,-0.040630780160427094
1768418366856145200,5.844145263671875,0.3991994857788086,-0.02447446435689926,0.03635860234498978
1768418366866146000,5.85414599609375,0.3605673909187317,-0.18518371880054474,0.037137579172849655
1768418366876147000,5.86414697265625,0.38214316964149475,-0.10063600540161133,0.05915040895342827
1768418366886148000,5.874148193359375,0.3389376401901245,-0.005825339816510677,0.21563056111335754
1768418366896149200,5.884149169921875,0.23685774207115173,-0.09913530945777893,0.46941283345222473
1768418366906151200,5.894151123046875,0.09893583506345749,-0.0695587694644928,0.5482173562049866
1768418366916152300,5.90415234375,0.11710157990455627,-0.09987181425094604,0.2847355604171753
1768418366926153200,5.9141533203125,0.22893355786800385,-0.07067451626062393,-0.13309258222579956
1768418366936154000,5.924154052734375,0.25995931029319763,-0.041524507105350494,-0.3641098141670227
1768418366946155000,5.934155029296875,0.18515644967556,-0.026956485584378242,-0.28731569647789
1768418366956157200,5.9441572265625,0.18584983050823212,-0.039051201194524765,-0.07245635241270065
1768418366966158000,5.954157958984375,0.3416900336742401,-0.09849482774734497,0.164116770029068
1768418366976159000,5.964158935546875,0.5363650918006897,-0.3254625201225281,0.2199442982673645
1768418366986160000,5.97416015625,0.487565815448761,-0.2546389698982239,0.14818142354488373
1768418366996161300,5.984161376953125,0.2564941346645355,-0.032757434993982315,0.1793479174375534
1768418367006163200,5.9941630859375,0.05471787229180336,0.21768462657928467,0.30375614762306213
1768418367016164000,6.0041640625,-0.04187210649251938,0.39391759037971497,0.4299081861972809
1768418367026165000,6.0141650390625,-0.0849497988820076,0.3586738705635071,0.4617063105106354
1768418367036166100,6.024166259765625,-0.16568319499492645,0.2514687776565552,0.35670435428619385
1768418367046168000,6.03416796875,-0.2536223530769348,0.17967765033245087,0.19670510292053223
1768418367056169000,6.0441689453125,-0.30765318870544434,0.1528346836566925,0.08543281257152557
1768418367066170000,6.054170166015625,-0.30527231097221375,0.19062653183937073,0.03703226149082184
1768418367076171300,6.064171142578125,-0.27841225266456604,0.28124484419822693,0.035341184586286545
1768418367086172200,6.074172119140625,-0.2124161720275879,0.3945375680923462,0.06567086279392242
1768418367096174300,6.08417431640625,-0.128777876496315,0.5047345757484436,0.09966044127941132
1768418367106175200,6.09417529296875,-0.05847202241420746,0.5676727890968323,0.12091352790594101
1768418367116176100,6.104176025390625,-0.021256238222122192,0.5795760750770569,0.12317299097776413
1768418367126177000,6.114177001953125,-0.027289362624287605,0.5355033874511719,0.1319507658481598
1768418367136178000,6.124177978515625,-0.055368632078170776,0.4816967248916626,0.16555826365947723
1768418367146180000,6.13418017578125,-0.07341687381267548,0.45672479271888733,0.22234538197517395
1768418367156181000,6.144180908203125,-0.0707496628165245,0.4097006320953369,0.2794114053249359
1768418367166182100,6.15418212890625,-0.043056782335042953,0.3847425580024719,0.3160058856010437
1768418367176183300,6.164183349609375,-0.003148413961753249,0.3497679829597473,0.3296068608760834
1768418367186184200,6.17418408203125,0.04697946831583977,0.302386075258255,0.31921762228012085
1768418367196186000,6.18418603515625,0.08872856944799423,0.23114211857318878,0.2896275520324707
1768418367206187000,6.19418701171875,0.11232657730579376,0.17815613746643066,0.2540530562400818
1768418367216188200,6.204188232421875,0.1385384500026703,0.17150965332984924,0.25489747524261475
1768418367226189000,6.21418896484375,0.1903635710477829,0.16767576336860657,0.273668497800827
1768418367236190200,6.224190185546875,0.22816811501979828,0.13515602052211761,0.2815987169742584
1768418367246192000,6.234192138671875,0.2359730452299118,0.0859578475356102,0.27751022577285767
1768418367256193300,6.244193359375,0.23106279969215393,0.07933364808559418,0.24321338534355164
1768418367266194200,6.254194091796875,0.22734422981739044,0.13536842167377472,0.16781289875507355
1768418367276195000,6.264195068359375,0.21482186019420624,0.23100514709949493,0.05705912411212921
1768418367286196200,6.2741962890625,0.1958087533712387,0.3315921723842621,-0.06792861968278885
1768418367296198100,6.2841982421875,0.18351627886295319,0.3628254532814026,-0.1698274463415146
1768418367306199000,6.294198974609375,0.142136350274086,0.3097848892211914,-0.2511100471019745
1768418367316200000,6.304199951171875,0.04714594781398773,0.24279876053333282,-0.2995153069496155
1768418367326201000,6.314201171875,-0.10815149545669556,0.16303496062755585,-0.31087422370910645
1768418367336202200,6.3242021484375,-0.32567134499549866,0.07188896834850311,-0.30888038873672485
1768418367346204200,6.3342041015625,-0.5680679678916931,0.0672212466597557,-0.32713982462882996
1768418367356205300,6.344205322265625,-0.7340980172157288,0.1364646553993225,-0.37188172340393066
1768418367366206200,6.354206298828125,-0.7508264183998108,0.2896078824996948,-0.3822355568408966
1768418367376207000,6.36420703125,-0.6190768480300903,0.45509767532348633,-0.28747761249542236
1768418367386208000,6.3742080078125,-0.4468856155872345,0.5796539783477783,-0.04487217217683792
1768418367396210200,6.384210205078125,-0.28179824352264404,0.5426768064498901,0.2707134187221527
1768418367406211000,6.394211181640625,-0.18229268491268158,0.27204450964927673,0.4619438052177429
1768418367416212000,6.4042119140625,-0.2806156277656555,-0.1700291782617569,0.383002370595932
1768418367426213000,6.414213134765625,-0.5473839044570923,-0.542256236076355,0.09361927211284637
1768418367436214300,6.42421435546875,-0.794160008430481,-0.709683358669281,-0.1675698459148407
1768418367446216200,6.43421630859375,-0.8932732939720154,-0.7901907563209534,-0.21283985674381256
1768418367456217000,6.444217041015625,-0.9065742492675781,-0.8159186244010925,-0.1871921569108963
1768418367466218200,6.45421826171875,-0.760509192943573,-0.6992365121841431,-0.1935371458530426
1768418367476219100,6.46421923828125,-0.4771363437175751,-0.47154632210731506,-0.17739777266979218
1768418367486220000,6.474219970703125,-0.1845574826002121,-0.23766537010669708,-0.0610613115131855
1768418367496222000,6.484221923828125,0.017935127019882202,-0.15647102892398834,0.07434986531734467
1768418367506223000,6.49422314453125,0.0955931693315506,-0.17228035628795624,0.1327599138021469
1768418367516224300,6.504224365234375,0.16959427297115326,-0.14965204894542694,0.08558907359838486
1768418367526225200,6.51422509765625,0.2516651749610901,-0.12283854931592941,-0.05753985419869423
1768418367536226000,6.52422607421875,0.2914254367351532,-0.16668523848056793,-0.19474734365940094
1768418367546228200,6.534228271484375,0.2635815441608429,-0.21298590302467346,-0.26716452836990356
1768418367556229000,6.54422900390625,0.15946383774280548,-0.27965009212493896,-0.29888948798179626
1768418367566230000,6.55422998046875,0.04786992818117142,-0.319889634847641,-0.31151846051216125
1768418367576230400,6.56423046875,-0.024261653423309326,-0.34008386731147766,-0.2967110872268677
1768418367586231600,6.5742314453125,-0.05822521075606346,-0.34657585620880127,-0.23823927342891693
1768418367596233500,6.5842333984375,-0.0652087926864624,-0.31739601492881775,-0.13817594945430756
1768418367606234400,6.594234375,-0.05591462180018425,-0.2886948585510254,-0.03429456055164337
1768418367616235500,6.604235595703125,-0.03263353183865547,-0.26326993107795715,0.05956775322556496
1768418367626236400,6.614236328125,0.0002618327271193266,-0.2493850290775299,0.1311759054660797
1768418367636238300,6.62423828125,0.04626870155334473,-0.2780263423919678,0.16357272863388062
1768418367646239500,6.634239501953125,0.08910804241895676,-0.2967345118522644,0.1744205802679062
1768418367656240400,6.644240478515625,0.12673181295394897,-0.2798685133457184,0.1811559796333313
1768418367666241300,6.6542412109375,0.1531064361333847,-0.262151300907135,0.18178822100162506
1768418367676242400,6.664242431640625,0.14923040568828583,-0.26103851199150085,0.19313471019268036
1768418367686244600,6.67424462890625,0.14053864777088165,-0.25427675247192383,0.22987142205238342
1768418367696245500,6.68424560546875,0.12630552053451538,-0.2331426739692688,0.24417850375175476
1768418367706246400,6.694246337890625,0.11259236931800842,-0.22670048475265503,0.22247187793254852
1768418367716247300,6.704247314453125,0.08480727672576904,-0.22303828597068787,0.19087375700473785
1768418367726248400,6.71424853515625,0.05920391157269478,-0.2145012468099594,0.16297821700572968
1768418367736250400,6.72425048828125,0.04152021184563637,-0.18802018463611603,0.12498059868812561
1768418367746251300,6.734251220703125,0.019771773368120193,-0.16014327108860016,0.08315832912921906
1768418367756252400,6.74425244140625,-0.0039016343653202057,-0.16585315763950348,0.03005756251513958
1768418367766253600,6.754253662109375,-0.027732398360967636,-0.19118061661720276,-0.03566339239478111
1768418367776254500,6.76425439453125,-0.06874123960733414,-0.24219217896461487,-0.12660302221775055
1768418367786256400,6.77425634765625,-0.13087330758571625,-0.3245863914489746,-0.28008124232292175
1768418367796257500,6.784257568359375,-0.20662158727645874,-0.4562162756919861,-0.4358738660812378
1768418367806258400,6.794258544921875,-0.2743401825428009,-0.6427486538887024,-0.470262736082077
1768418367816259300,6.80425927734375,-0.3412221670150757,-0.8159297108650208,-0.3618180453777313
1768418367826260200,6.81426025390625,-0.40877243876457214,-0.8991726636886597,-0.2552734911441803
1768418367836262400,6.824262451171875,-0.44279593229293823,-0.8862848281860352,-0.2799089848995209
1768418367846263300,6.83426318359375,-0.39336633682250977,-0.8112300038337708,-0.37863874435424805
1768418367856264400,6.844264404296875,-0.24365586042404175,-0.6791967749595642,-0.41058841347694397
1768418367866265600,6.854265625,-0.046291135251522064,-0.41246098279953003,-0.32682961225509644
1768418367876266500,6.8642666015625,0.19205307960510254,-0.16998082399368286,-0.23397836089134216
1768418367886268400,6.874268310546875,0.40993744134902954,0.0013706861063838005,-0.20113493502140045
1768418367896269300,6.884269287109375,0.537743091583252,0.146868497133255,-0.14414063096046448
1768418367906270500,6.8942705078125,0.6050659418106079,0.3151286244392395,0.009707527235150337
1768418367916271400,6.904271240234375,0.6759404540061951,0.4964064359664917,0.2243524044752121
1768418367926272500,6.9142724609375,0.7341313362121582,0.717473566532135,0.3941555619239807
1768418367936274400,6.9242744140625,0.6937020421028137,0.8332761526107788,0.4109961688518524
1768418367946275600,6.934275634765625,0.567706286907196,0.8377795815467834,0.20328213274478912
1768418367956276500,6.9442763671875,0.42628127336502075,0.9524590373039246,-0.09377396106719971
1768418367966277400,6.95427734375,0.3547977805137634,1.116229772567749,-0.22384142875671387
1768418367976278300,6.9642783203125,0.41409263014793396,1.1367672681808472,-0.07261943817138672
1768418367986280400,6.974280517578125,0.5358920693397522,0.8147922158241272,0.051439665257930756
1768418367996281300,6.98428125,0.5404680371284485,0.43120694160461426,0.09729038178920746
1768418368006282200,6.9942822265625,0.47936150431632996,0.19135253131389618,0.11055159568786621
1768418368016283400,7.004283447265625,0.4510771632194519,0.018659338355064392,0.07952120155096054
1768418368026284500,7.014284423828125,0.40114957094192505,-0.0013758901041001081,-0.020936958491802216
1768418368036286500,7.024286376953125,0.2528378963470459,0.1712447851896286,-0.06685002893209457
1768418368046287400,7.034287353515625,0.06391432881355286,0.3988036513328552,0.031245911493897438
1768418368056288500,7.04428857421875,-0.03684646263718605,0.6068983674049377,0.20443680882453918
1768418368066289400,7.054289306640625,-0.0894116684794426,0.7408942580223083,0.3078548312187195
1768418368076290300,7.064290283203125,-0.15941710770130157,0.7655806541442871,0.2729034125804901
1768418368086292500,7.07429248046875,-0.2580571174621582,0.7190206050872803,0.17429932951927185
1768418368096293400,7.08429345703125,-0.3133665919303894,0.6764765977859497,0.10982102900743484
1768418368106294300,7.094294189453125,-0.31708329916000366,0.6959437727928162,0.10400815308094025
1768418368116295400,7.10429541015625,-0.2955373525619507,0.7604730725288391,0.13361570239067078
1768418368126296600,7.114296630859375,-0.28955376148223877,0.8245229125022888,0.1754760593175888
1768418368136298500,7.124298583984375,-0.29616865515708923,0.8610439300537109,0.20190133154392242
1768418368146299400,7.13429931640625,-0.3070082664489746,0.9119946956634521,0.2170824259519577
1768418368156300300,7.14430029296875,-0.30298376083374023,0.9876909852027893,0.25142955780029297
1768418368166301400,7.154301513671875,-0.29453355073928833,1.0259208679199219,0.3223594129085541
1768418368176302300,7.16430224609375,-0.2907543480396271,0.9582111835479736,0.4322211444377899
1768418368186304300,7.17430419921875,-0.2880706787109375,0.8275548815727234,0.5319072008132935
1768418368196305400,7.184305419921875,-0.25766152143478394,0.6899181008338928,0.5942501425743103
1768418368206306600,7.194306640625,-0.17208082973957062,0.5691102147102356,0.6000766158103943
1768418368216307500,7.204307373046875,-0.09150142967700958,0.4261570870876312,0.5683566331863403
1768418368226308400,7.214308349609375,-0.046864721924066544,0.3108680546283722,0.5217076539993286
1768418368236310500,7.224310546875,-0.009770671837031841,0.23017200827598572,0.4744134545326233
1768418368246311400,7.2343115234375,0.03860325366258621,0.16074393689632416,0.45000264048576355
1768418368256312300,7.244312255859375,0.10652460902929306,0.09438002109527588,0.4426582455635071
1768418368266313200,7.254313232421875,0.1767827868461609,0.00667041027918458,0.43971437215805054
1768418368276314600,7.264314697265625,0.2588464617729187,-0.049446951597929,0.4422980844974518
1768418368286316300,7.27431640625,0.32969561219215393,-0.03904278203845024,0.41293326020240784
1768418368296317400,7.2843173828125,0.36376115679740906,0.03519120067358017,0.3123152554035187
1768418368306318600,7.294318603515625,0.3637326657772064,0.15177161991596222,0.1481311023235321
1768418368316319500,7.304319580078125,0.3390771746635437,0.25958532094955444,-0.0303663183003664
1768418368326320400,7.3143203125,0.2905546724796295,0.3031194806098938,-0.14361751079559326
1768418368336322300,7.324322265625,0.21972429752349854,0.25759243965148926,-0.1448773443698883
1768418368346323500,7.334323486328125,0.1484602391719818,0.15187586843967438,-0.08522386848926544
1768418368356324400,7.344324462890625,0.0988730788230896,0.09255761653184891,-0.05465301126241684
1768418368366325500,7.354325439453125,0.08302567154169083,0.17210064828395844,-0.09606888890266418
1768418368376326400,7.364326416015625,0.06910369545221329,0.3558986485004425,-0.18614381551742554
1768418368386328600,7.37432861328125,-0.0010628810850903392,0.5099100470542908,-0.33900153636932373
1768418368396329500,7.38432958984375,-0.17005430161952972,0.5529671907424927,-0.48884880542755127
1768418368406330400,7.394330322265625,-0.4494433104991913,0.47585567831993103,-0.5525546073913574
1768418368416331500,7.40433154296875,-0.7302003502845764,0.3308563232421875,-0.4789292812347412
1768418368426332400,7.41433251953125,-0.7946083545684814,0.1856333613395691,-0.2221720665693283
1768418368436334300,7.424334228515625,-0.683642566204071,0.040352001786231995,0.1667172908782959
1768418368446335200,7.434335205078125,-0.575081467628479,-0.22487007081508636,0.6087421178817749
1768418368456336400,7.44433642578125,-0.5625558495521545,-0.65840744972229,0.8312011361122131
1768418368466337500,7.454337646484375,-0.6608291864395142,-1.0267513990402222,0.4472835659980774
1768418368476338400,7.46433837890625,-0.6238099336624146,-1.1111185550689697,-0.25276798009872437
1768418368486340600,7.474340576171875,-0.5266660451889038,-1.0501651763916016,-0.7499727010726929
1768418368496341500,7.484341552734375,-0.5077662467956543,-0.9641076922416687,-0.9939736723899841
1768418368506342400,7.49434228515625,-0.3681281805038452,-0.9829333424568176,-0.9927390217781067
1768418368516343300,7.50434326171875,-0.1575828492641449,-0.8389301300048828,-0.6858572363853455
1768418368526344200,7.51434423828125,-0.03719465062022209,-0.6186680793762207,-0.2499540150165558
1768418368536346400,7.524346435546875,0.028023067861795425,-0.5374500155448914,0.06168773025274277
1768418368546347300,7.53434716796875,0.0442182831466198,-0.49659210443496704,0.14715389907360077
1768418368556348400,7.544348388671875,0.0653967633843422,-0.4196566343307495,0.01390167884528637
1768418368566349600,7.554349609375,0.18188901245594025,-0.31696754693984985,-0.2217627763748169
1768418368576351700,7.564351806640625,0.34274598956108093,-0.18392659723758698,-0.3753875494003296
1768418368586352600,7.5743525390625,0.40708795189857483,-0.16374436020851135,-0.4231084883213043
1768418368596353500,7.584353515625,0.35333701968193054,-0.23343707621097565,-0.4550132155418396
1768418368606354700,7.594354736328125,0.27927106618881226,-0.2997191548347473,-0.4767104983329773
1768418368616355600,7.60435546875,0.24344144761562347,-0.32517170906066895,-0.47294771671295166
1768418368626357500,7.614357421875,0.2520948648452759,-0.3174988627433777,-0.450687974691391
1768418368636358700,7.624358642578125,0.27056577801704407,-0.2938898801803589,-0.41241636872291565
1768418368646359800,7.63435986328125,0.27808892726898193,-0.28283217549324036,-0.331881046295166
1768418368656360700,7.644360595703125,0.2841828763484955,-0.29840829968452454,-0.23691605031490326
1768418368666361600,7.654361572265625,0.2994433045387268,-0.30183711647987366,-0.14662982523441315
1768418368676363800,7.66436376953125,0.341452032327652,-0.3264199495315552,-0.06113796681165695
1768418368686364700,7.67436474609375,0.35874125361442566,-0.36395907402038574,0.025002242997288704
1768418368696365600,7.684365478515625,0.31997838616371155,-0.3619593679904938,0.06737495213747025
1768418368706366500,7.694366455078125,0.2581839859485626,-0.33640047907829285,0.06424973160028458
1768418368716367600,7.70436767578125,0.20277279615402222,-0.25586122274398804,0.03059353679418564
1768418368726369500,7.71436962890625,0.15444494783878326,-0.21205034852027893,-0.004929305054247379
1768418368736370700,7.72437060546875,0.09031635522842407,-0.15471550822257996,-0.02081097476184368
1768418368746371600,7.73437158203125,0.052421439439058304,-0.06870446354150772,-0.026727719232439995
1768418368756372700,7.744372802734375,0.02177979238331318,-0.011247252114117146,-0.046091433614492416
1768418368766373600,7.75437353515625,-0.014165690168738365,0.008162664249539375,-0.06934615224599838
1768418368776375600,7.76437548828125,-0.05278327688574791,-0.01119029987603426,-0.07422226667404175
1768418368786376700,7.774376708984375,-0.0800900012254715,-0.0357302650809288,-0.0625954419374466
1768418368796377600,7.784377685546875,-0.09920214861631393,-0.06852015107870102,-0.06089051067829132
1768418368806378500,7.79437841796875,-0.1189337745308876,-0.11614199727773666,-0.10420629382133484
1768418368816379600,7.804379638671875,-0.13491229712963104,-0.18853695690631866,-0.2152196764945984
1768418368826381600,7.814381591796875,-0.15985146164894104,-0.2933608591556549,-0.3648264706134796
1768418368836382700,7.8243828125,-0.1859344244003296,-0.3720041811466217,-0.4900316298007965
1768418368846383600,7.834383544921875,-0.19870267808437347,-0.40079188346862793,-0.4897219240665436
1768418368856384500,7.844384521484375,-0.192909374833107,-0.3797052502632141,-0.38046354055404663
1768418368866385700,7.8543857421875,-0.2472490519285202,-0.42413026094436646,-0.3082772195339203
1768418368876387600,7.8643876953125,-0.34910398721694946,-0.5163741111755371,-0.37616026401519775
1768418368886388500,7.874388427734375,-0.37182527780532837,-0.6001313328742981,-0.48854193091392517
1768418368896389600,7.8843896484375,-0.23731258511543274,-0.572523295879364,-0.49337896704673767
1768418368906390800,7.894390869140625,0.0175335556268692,-0.39169466495513916,-0.3907138407230377
1768418368916391700,7.9043916015625,0.2588490843772888,-0.1086965873837471,-0.27448663115501404
1768418368926393600,7.9143935546875,0.429940402507782,0.07820884883403778,-0.17418453097343445
1768418368936394800,7.924394775390625,0.5085980296134949,0.05301458761096001,-0.01528050284832716
1768418368946395600,7.934395751953125,0.5969058275222778,-0.02073580026626587,0.24405360221862793
1768418368956396500,7.944396484375,0.6722396016120911,-0.04257824271917343,0.4843575954437256
1768418368966397400,7.9543974609375,0.6699588894844055,-0.1088683158159256,0.481305867433548
1768418368976399600,7.964399658203125,0.5169719457626343,-0.49994605779647827,0.23708319664001465
1768418368986400500,7.974400390625,0.3370591700077057,-0.46016213297843933,-0.016140012070536613
1768418368996401700,7.984401611328125,0.28603029251098633,0.15626682341098785,-0.2874714136123657
1768418369006402800,7.99440283203125,0.28128907084465027,0.37802717089653015,-0.41956526041030884
1768418369016403700,8.00440380859375,0.28033992648124695,0.2905955910682678,-0.35860976576805115
1768418369026405600,8.014405517578124,0.3511776328086853,-0.004243229515850544,-0.2706386148929596
1768418369036406500,8.024406494140624,0.35854122042655945,-0.22871235013008118,-0.09461410343647003
1768418369046407700,8.03440771484375,0.37271109223365784,-0.39000484347343445,0.1928514987230301
1768418369056408600,8.04440869140625,0.4569512903690338,-0.6447426080703735,0.33608847856521606
1768418369066409500,8.054409423828124,0.4051395058631897,-0.5644821524620056,0.27875036001205444
1768418369076411600,8.06441162109375,0.17595690488815308,-0.215347558259964,0.21635238826274872
1768418369086412500,8.07441259765625,-0.0364842526614666,0.14217276871204376,0.29708293080329895
1768418369096413700,8.08441357421875,-0.12037025392055511,0.41256028413772583,0.41399410367012024
1768418369106414600,8.09441455078125,-0.16874364018440247,0.5742258429527283,0.4249577820301056
1768418369116416800,8.104416748046875,-0.2602600157260895,0.6551565527915955,0.32845887541770935
1768418369126417700,8.114417724609375,-0.3411969542503357,0.6413201093673706,0.21491366624832153
1768418369136418600,8.12441845703125,-0.39219242334365845,0.5766786932945251,0.114763543009758
1768418369146419500,8.13441943359375,-0.3896472454071045,0.50734543800354,0.06701492518186569
1768418369156420600,8.144420654296875,-0.34934547543525696,0.47444024682044983,0.09019225090742111
1768418369166422500,8.154422607421875,-0.2807256877422333,0.5159536004066467,0.14683155715465546
1768418369176423400,8.16442333984375,-0.2146218717098236,0.5896105170249939,0.20069432258605957
1768418369186424800,8.1744248046875,-0.17012764513492584,0.7008891105651855,0.22481855750083923
1768418369196425700,8.18442578125,-0.1405484974384308,0.7401266098022461,0.2214910387992859
1768418369206426600,8.194426513671875,-0.17071279883384705,0.7130590677261353,0.23089811205863953
1768418369216428500,8.204428466796875,-0.17550286650657654,0.6663060188293457,0.2523648142814636
1768418369226429700,8.2144296875,-0.15086090564727783,0.5946342349052429,0.3073521852493286
1768418369236430600,8.2244306640625,-0.13900743424892426,0.5532857179641724,0.4006485641002655
1768418369246431500,8.234431396484375,-0.10698318481445312,0.4248391091823578,0.47546157240867615
1768418369256432600,8.2444326171875,-0.04803333431482315,0.357742041349411,0.5147699117660522
1768418369266434600,8.2544345703125,-0.013002380728721619,0.3469269275665283,0.5041020512580872
1768418369276435700,8.264435791015625,0.03243270888924599,0.34839293360710144,0.4540466368198395
1768418369286436600,8.2744365234375,0.08969759941101074,0.3454991281032562,0.41657039523124695
1768418369296437800,8.284437744140625,0.1521630734205246,0.3188895881175995,0.40210241079330444
1768418369306439700,8.294439697265625,0.1962921917438507,0.23308973014354706,0.4182438254356384
1768418369316440600,8.304440673828125,0.2104259729385376,0.13212847709655762,0.4487725794315338
1768418369326441500,8.31444140625,0.20566663146018982,0.06425806879997253,0.4302513599395752
1768418369336442600,8.324442626953125,0.18203489482402802,0.08324261009693146,0.33283671736717224
1768418369346443800,8.33444384765625,0.15375052392482758,0.18337507545948029,0.17191867530345917
1768418369356445400,8.344445556640625,0.13556770980358124,0.29826390743255615,0.018464237451553345
1768418369366446800,8.35444677734375,0.12864509224891663,0.36085137724876404,-0.05799565091729164
1768418369376447700,8.36444775390625,0.1296207308769226,0.30728429555892944,-0.06561905145645142
1768418369386448600,8.37444873046875,0.11634860932826996,0.11597374081611633,-0.08779119700193405
1768418369396449500,8.384449462890625,0.03942405432462692,-0.09351279586553574,-0.15127983689308167
1768418369406451700,8.39445166015625,-0.0618855245411396,-0.15595832467079163,-0.20443066954612732
1768418369416452600,8.40445263671875,-0.15125739574432373,-0.10272958874702454,-0.25290006399154663
1768418369426453500,8.41445361328125,-0.2860676646232605,-0.03312626853585243,-0.3359778821468353
1768418369436454700,8.42445458984375,-0.4889107942581177,0.08042985200881958,-0.456706166267395
1768418369446456600,8.43445654296875,-0.6946732997894287,0.18774965405464172,-0.5634920001029968
1768418369456457700,8.444457763671876,-0.7218851447105408,0.2527083158493042,-0.4850867986679077
1768418369466458600,8.454458740234376,-0.4754180908203125,0.21143461763858795,-0.07916193455457687
1768418369476459800,8.464459716796876,-0.333749920129776,0.012902854010462761,0.41747623682022095
1768418369486460700,8.474460693359376,-0.4962501525878906,-0.3684554100036621,0.6741597056388855
1768418369496462600,8.484462646484374,-0.6949138045310974,-0.7033427953720093,0.6381698846817017
1768418369506463500,8.49446337890625,-0.8656003475189209,-0.8511160016059875,0.3902740478515625
1768418369516464600,8.504464599609374,-0.9568240642547607,-0.7867012619972229,0.056514471769332886
1768418369526465500,8.514465576171874,-0.9136185646057129,-0.6526667475700378,-0.3562568426132202
1768418369536466700,8.524466796875,-0.663456916809082,-0.41570451855659485,-0.6983223557472229
1768418369546468600,8.534468505859374,-0.31515857577323914,-0.13661882281303406,-0.7841461896896362
1768418369556469800,8.5444697265625,-0.08409319818019867,0.09857571870088577,-0.666412889957428
1768418369566470700,8.554470703125,0.021176762878894806,0.19787007570266724,-0.4907233715057373
1768418369576471800,8.564471923828124,0.02776437997817993,0.2251153141260147,-0.33962488174438477
1768418369586474000,8.574473876953125,0.04136381298303604,0.2038305252790451,-0.2709808349609375
1768418369596475000,8.584474853515625,0.13203607499599457,0.15335382521152496,-0.2732783854007721
1768418369606475800,8.594475830078125,0.21353866159915924,0.05497186258435249,-0.30036407709121704
1768418369616477000,8.604476806640625,0.2291480302810669,-0.08733857423067093,-0.3270529508590698
1768418369626478000,8.61447802734375,0.2001832276582718,-0.21324697136878967,-0.34028860926628113
1768418369636479700,8.624479736328125,0.1368693858385086,-0.282463014125824,-0.36008206009864807
1768418369646481000,8.63448095703125,0.09659866243600845,-0.32028523087501526,-0.38849183917045593
1768418369656482000,8.64448193359375,0.10546334087848663,-0.32750916481018066,-0.39344143867492676
1768418369666483000,8.65448291015625,0.1167311742901802,-0.3220478296279907,-0.36339300870895386
1768418369676484900,8.66448486328125,0.14060460031032562,-0.29407545924186707,-0.32285669445991516
1768418369686486000,8.674486083984375,0.1734464466571808,-0.27218613028526306,-0.27954038977622986
1768418369696487000,8.68448681640625,0.1638239324092865,-0.2577757239341736,-0.22712582349777222
1768418369706487800,8.69448779296875,0.17168878018856049,-0.2671644389629364,-0.16117477416992188
1768418369716489000,8.704489013671875,0.2226516306400299,-0.2548418641090393,-0.06791622191667557
1768418369726491000,8.714490966796875,0.2901054918766022,-0.22856950759887695,0.021759334951639175
1768418369736492000,8.724491943359375,0.3265160918235779,-0.20941154658794403,0.09028803557157516
1768418369746493000,8.734492919921875,0.309325635433197,-0.1757499873638153,0.15602178871631622
1768418369756493800,8.744493896484375,0.28982701897621155,-0.13376688957214355,0.20871303975582123
1768418369766495000,8.754494873046875,0.29043689370155334,-0.1043967604637146,0.2211097925901413
1768418369776497000,8.764496826171875,0.28792545199394226,-0.04748590663075447,0.2058568298816681
1768418369786497800,8.774497802734375,0.27824166417121887,0.016153257340192795,0.16765564680099487
1768418369796499000,8.7844990234375,0.2523871660232544,0.06064721196889877,0.0886576697230339
1768418369806499800,8.794499755859375,0.19341841340065002,0.08446945250034332,-0.042346153408288956
1768418369816501800,8.804501708984375,0.11188365519046783,0.0884552076458931,-0.19532117247581482
1768418369826503000,8.8145029296875,0.022453634068369865,0.10359634459018707,-0.2957327365875244
1768418369836504000,8.824504150390625,-0.04997103288769722,0.09194501489400864,-0.35339683294296265
1768418369846505000,8.8345048828125,-0.1046513170003891,0.019958440214395523,-0.41982218623161316
1768418369856505900,8.844505859375,-0.16896256804466248,-0.10543257743120193,-0.4785919785499573
1768418369866508000,8.854508056640626,-0.25188034772872925,-0.2457156628370285,-0.5018876791000366
1768418369876509000,8.864509033203126,-0.3310956060886383,-0.37340396642684937,-0.49127650260925293
1768418369886509800,8.874509765625,-0.38649681210517883,-0.44351035356521606,-0.4377208650112152
1768418369896510700,8.8845107421875,-0.4287315011024475,-0.48452141880989075,-0.3324020206928253
1768418369906513000,8.894512939453126,-0.4771725535392761,-0.5332050919532776,-0.23442697525024414
1768418369916513800,8.904513671875,-0.48391199111938477,-0.6483458876609802,-0.21560685336589813
1768418369926515000,8.914514892578126,-0.3734467029571533,-0.7903158068656921,-0.23100578784942627
1768418369936515800,8.924515869140626,-0.13682478666305542,-0.6586353778839111,-0.22704409062862396
1768418369946517000,8.93451708984375,0.13481125235557556,-0.3138127624988556,-0.21488915383815765
1768418369956519000,8.944518798828126,0.36996009945869446,-0.004910651594400406,-0.2022377997636795
1768418369966519800,8.954519775390626,0.5168576240539551,0.047026313841342926,-0.16308267414569855
1768418369976521000,8.96452099609375,0.5709308385848999,-0.06958402693271637,-0.031220534816384315
1768418369986521900,8.97452197265625,0.5765977501869202,-0.08232592046260834,0.19063356518745422
1768418369996523000,8.98452294921875,0.6154064536094666,0.04313835874199867,0.3912081718444824
1768418370006525000,8.99452490234375,0.6750831007957458,0.20775659382343292,0.5557078719139099
1768418370016526000,9.004526123046874,0.66722172498703,0.05826200172305107,0.7087104916572571
1768418370026527000,9.01452685546875,0.5417093634605408,-0.47831541299819946,0.8394863605499268
1768418370036527900,9.02452783203125,0.4225650727748871,0.42580950260162354,0.6284996867179871
1768418370046530000,9.034530029296874,0.3057958483695984,0.3831523358821869,0.1702897548675537
1768418370056531000,9.044531005859374,0.2685905992984772,0.3208085894584656,-0.2092491090297699
1768418370066531800,9.05453173828125,0.19558322429656982,0.35492101311683655,-0.3295808434486389
1768418370076532700,9.06453271484375,0.18205679953098297,0.2892102599143982,-0.1988673061132431
1768418370086534100,9.0745341796875,0.2616376280784607,0.19880765676498413,-0.009089656174182892
1768418370096535800,9.084535888671875,0.39270201325416565,0.12137320637702942,0.1715681403875351
1768418370106537000,9.094536865234375,0.4322635233402252,0.018766939640045166,0.24756596982479095
1768418370116537900,9.104537841796875,0.293106347322464,0.0968882143497467,0.23120778799057007
1768418370126539000,9.1145390625,0.08122047036886215,0.3707998991012573,0.27238187193870544
1768418370136540000,9.124539794921875,-0.04672324284911156,0.6355857849121094,0.3923998475074768
1768418370146541800,9.134541748046875,-0.118058942258358,0.7473501563072205,0.5500512719154358
1768418370156543000,9.14454296875,-0.18774501979351044,0.567655622959137,0.5699535012245178
1768418370166544000,9.1545439453125,-0.28639519214630127,0.37421154975891113,0.38347867131233215
1768418370176545000,9.164544921875,-0.37174004316329956,0.35624071955680847,0.13139338791370392
1768418370186546700,9.174546630859375,-0.4162854254245758,0.4027453660964966,-0.012003718875348568
1768418370196548000,9.184548095703125,-0.4277413785457611,0.43415504693984985,-0.016684284433722496
1768418370206549000,9.194549072265625,-0.40309810638427734,0.47692540287971497,0.04853573068976402
1768418370216550000,9.2045498046875,-0.36790817975997925,0.5108694434165955,0.13797134160995483
1768418370226550800,9.21455078125,-0.3506689965724945,0.5705924034118652,0.23304405808448792
1768418370236553000,9.224552978515625,-0.3396781384944916,0.6856881380081177,0.33219632506370544
1768418370246553900,9.234553955078125,-0.3084392547607422,0.7943770289421082,0.41695913672447205
1768418370256554800,9.2445546875,-0.2686847746372223,0.8746311068534851,0.493851900100708
1768418370266556000,9.254555908203125,-0.22340865433216095,0.9081262350082397,0.5650374293327332
1768418370276557000,9.26455712890625,-0.17578981816768646,0.9099234342575073,0.628035843372345
1768418370286559000,9.27455908203125,-0.11634061485528946,0.9000145792961121,0.6342370510101318
1768418370296559900,9.284559814453125,-0.047084957361221313,0.8450928330421448,0.5858214497566223
1768418370306561000,9.29456103515625,0.005670931655913591,0.7536579966545105,0.5127999782562256
1768418370316562000,9.30456201171875,0.0717184841632843,0.6992862820625305,0.43291741609573364
1768418370326563800,9.314563720703125,0.14859941601753235,0.5466203093528748,0.36535540223121643
1768418370336565000,9.32456494140625,0.2179080694913864,0.4672951400279999,0.32370132207870483
1768418370346566000,9.33456591796875,0.2740800082683563,0.35830792784690857,0.29998481273651123
1768418370356566800,9.34456689453125,0.296252578496933,0.22769945859909058,0.28419822454452515
1768418370366568000,9.35456787109375,0.2948557436466217,0.1253744214773178,0.2676336467266083
1768418370376570000,9.364570068359376,0.2633880376815796,0.07624449580907822,0.22151188552379608
1768418370386571000,9.374571044921876,0.22180649638175964,0.06355798989534378,0.1149582788348198
1768418370396572000,9.384572021484376,0.18581587076187134,0.05243369936943054,-0.007849453948438168
1768418370406572800,9.39457275390625,0.1705722063779831,-0.016630589962005615,-0.0976371318101883
1768418370416575000,9.404574951171876,0.17825481295585632,-0.17892244458198547,-0.14372140169143677
1768418370426576000,9.414575927734376,0.138323113322258,-0.36007624864578247,-0.16605441272258759
1768418370436576800,9.42457666015625,0.010537346825003624,-0.4265673756599426,-0.15998370945453644
1768418370446578000,9.434577880859376,-0.15903756022453308,-0.38803941011428833,-0.14389236271381378
1768418370456579000,9.4445791015625,-0.35313254594802856,-0.25604313611984253,-0.19970840215682983
1768418370466581000,9.4545810546875,-0.5935709476470947,-0.07558869570493698,-0.31633007526397705
1768418370476582000,9.464581787109376,-0.8229957222938538,0.0668410062789917,-0.3921584188938141
1768418370486583000,9.4745830078125,-0.8352385759353638,0.17769935727119446,-0.3192730247974396
1768418370496584000,9.484583984375,-0.6060919761657715,0.3749105632305145,-0.10010159760713577
1768418370506584800,9.494584716796876,-0.4046515226364136,0.5434050559997559,0.1552710384130478
1768418370516587000,9.5045869140625,-0.3129589855670929,0.49977049231529236,0.4063355028629303
1768418370526588000,9.514587890625,-0.2655397951602936,0.3101380169391632,0.4481484889984131
1768418370536588800,9.5245888671875,-0.30817848443984985,-0.005447357892990112,0.10969267040491104
1768418370546590000,9.53458984375,-0.385953426361084,-0.2559903562068939,-0.33609333634376526
1768418370556591900,9.544591796875,-0.45865297317504883,-0.31192290782928467,-0.6275115013122559
1768418370566593000,9.554593017578124,-0.5431712865829468,-0.27507781982421875,-0.8229886293411255
1768418370576593700,9.56459375,-0.4795992970466614,-0.1800057291984558,-0.893162190914154
1768418370586594800,9.5745947265625,-0.31392163038253784,-0.14302293956279755,-0.771160364151001
1768418370596595700,9.584595703125,-0.20595498383045197,-0.11295241862535477,-0.5258641839027405
1768418370606597600,9.59459765625,-0.19395186007022858,-0.07118366658687592,-0.21379733085632324
1768418370616598800,9.604598876953125,-0.18048937618732452,-0.06645352393388748,0.05941024422645569
1768418370626599700,9.614599609375,-0.1288251131772995,-0.06824423372745514,0.18046289682388306
1768418370636600800,9.624600830078125,-0.011863235384225845,-0.10159476846456528,0.13163770735263824
1768418370646602800,9.634602783203125,0.14686250686645508,-0.16045835614204407,0.033075712621212006
1768418370656604000,9.64460400390625,0.27717775106430054,-0.21800313889980316,-0.020813297480344772
1768418370666604800,9.654604736328125,0.3454740047454834,-0.26635974645614624,-0.04554234817624092
1768418370676605700,9.664605712890625,0.3360414206981659,-0.299236536026001,-0.07741446048021317
1768418370686606600,9.674606689453125,0.2843012809753418,-0.2923525273799896,-0.13619175553321838
1768418370696608800,9.68460888671875,0.339179128408432,-0.26440703868865967,-0.21487237513065338
1768418370706609700,9.694609619140625,0.35632801055908203,-0.27440187335014343,-0.2689252197742462
1768418370716610600,9.704610595703125,0.2913660705089569,-0.31967902183532715,-0.23292966187000275
1768418370726612000,9.714612060546875,0.21529529988765717,-0.35881897807121277,-0.12178157269954681
1768418370736613600,9.724613525390625,0.19066324830055237,-0.39432889223098755,0.011183996684849262
1768418370746614800,9.73461474609375,0.20867979526519775,-0.43760740756988525,0.12280213832855225
1768418370756615700,9.74461572265625,0.25838232040405273,-0.46327105164527893,0.23812606930732727
1768418370766616800,9.754616943359375,0.30328962206840515,-0.38407742977142334,0.35050347447395325
1768418370776617700,9.76461767578125,0.36562579870224,-0.3494182527065277,0.41918373107910156
1768418370786619600,9.77461962890625,0.41815853118896484,-0.2645725905895233,0.44032150506973267
1768418370796620800,9.784620849609375,0.41221413016319275,-0.14679419994354248,0.4117889702320099
1768418370806621700,9.79462158203125,0.34593045711517334,-0.044100575149059296,0.36579379439353943
1768418370816622800,9.804622802734375,0.2829788327217102,0.027122044935822487,0.3364308774471283
1768418370826624500,9.81462451171875,0.23632638156414032,0.06788012385368347,0.2890375256538391
1768418370836626000,9.8246259765625,0.17533797025680542,0.1048380583524704,0.2232094556093216
1768418370846626800,9.834626708984375,0.11085724830627441,0.10807619243860245,0.1537821739912033
1768418370856627700,9.844627685546875,0.04204195737838745,0.06156223639845848,0.0720386952161789
1768418370866628600,9.854628662109375,-0.022623054683208466,-0.02292654849588871,-0.044776879251003265
1768418370876630800,9.864630859375,-0.06382196396589279,-0.15367193520069122,-0.1639847457408905
1768418370886631700,9.874631591796875,-0.08884689211845398,-0.3188648819923401,-0.24123533070087433
1768418370896632600,9.884632568359375,-0.10670114308595657,-0.4984535872936249,-0.26314759254455566
1768418370906633700,9.8946337890625,-0.13529551029205322,-0.6301642060279846,-0.258832722902298
1768418370916635600,9.9046357421875,-0.17257557809352875,-0.6840271353721619,-0.2754257321357727
1768418370926636800,9.91463671875,-0.22334901988506317,-0.6966875195503235,-0.3007363975048065
1768418370936637700,9.9246376953125,-0.2887553870677948,-0.6591117978096008,-0.2690778076648712
1768418370946638800,9.934638916015626,-0.31257230043411255,-0.6623019576072693,-0.26493126153945923
1768418370956639700,9.9446396484375,-0.23988965153694153,-0.6568441987037659,-0.3093854486942291
1768418370966641700,9.9546416015625,-0.06217744201421738,-0.6143505573272705,-0.3068077564239502
1768418370976642800,9.964642822265626,0.1735137701034546,-0.6705390810966492,-0.23611758649349213
1768418370986643700,9.974643798828126,0.44217023253440857,-0.39803561568260193,-0.059731900691986084
1768418370996644600,9.98464453125,0.6149222254753113,0.04584532603621483,0.11012881994247437
1768418371006646500,9.994646484375,0.6220488548278809,0.0323960967361927,0.23785455524921417
1768418371016648000,10.00464794921875,0.5975152850151062,-0.15203957259655,0.2705816924571991
1768418371026648800,10.01464892578125,0.6050469875335693,-0.13646060228347778,0.1914360076189041
1768418371036649700,10.024649658203124,0.5345327258110046,0.03153549134731293,0.16034941375255585
1768418371046650600,10.034650634765624,0.3502110540866852,0.17506097257137299,0.10963643342256546
1768418371056652800,10.04465283203125,0.24138721823692322,0.30661097168922424,0.05577903985977173
1768418371066653700,10.05465380859375,0.19772443175315857,0.3745309114456177,0.048472657799720764
1768418371076654600,10.064654541015624,0.14911024272441864,0.26776763796806335,-0.013361142948269844
1768418371086655700,10.07465576171875,0.08377651125192642,-0.014749286696314812,-0.06236677244305611
1768418371096657700,10.08465771484375,0.03862963616847992,-0.2801986038684845,0.05401716008782387
1768418371106658800,10.094658935546875,0.07019954919815063,-0.4665343761444092,0.2935059070587158
1768418371116659700,10.10465966796875,0.12854497134685516,-0.5252089500427246,0.4549854099750519
1768418371126660900,10.114660888671875,0.08100967854261398,-0.3715618848800659,0.47720015048980713
1768418371136662800,10.124662841796875,-0.05821485444903374,-0.16044814884662628,0.4459168612957001
1768418371146663700,10.13466357421875,-0.20034882426261902,0.05914412811398506,0.4561319351196289
1768418371156664800,10.144664794921875,-0.2972586750984192,0.2612767815589905,0.5160698890686035
1768418371166665700,10.154665771484375,-0.3612600266933441,0.38276350498199463,0.5443544983863831
1768418371176667600,10.164667724609375,-0.40753328800201416,0.4276885688304901,0.49964639544487
1768418371186668500,10.17466845703125,-0.406954824924469,0.4569423198699951,0.4044075012207031
1768418371196669700,10.184669677734375,-0.3757151663303375,0.5122919082641602,0.29979780316352844
1768418371206670800,10.1946708984375,-0.31117239594459534,0.5738330483436584,0.21318700909614563
1768418371216671700,10.204671630859375,-0.2347371131181717,0.6240499019622803,0.16653293371200562
1768418371226674000,10.214673828125,-0.17283672094345093,0.6872091889381409,0.1637488603591919
1768418371236674800,10.2246748046875,-0.13454319536685944,0.7560213208198547,0.1985529363155365
1768418371246675700,10.23467578125,-0.1240636557340622,0.8084038496017456,0.23403368890285492
1768418371256676600,10.244676513671875,-0.13081024587154388,0.827938437461853,0.2625851631164551
1768418371266678800,10.2546787109375,-0.15834413468837738,0.8744704723358154,0.2778967320919037
1768418371276679700,10.2646796875,-0.1732551008462906,0.8722072243690491,0.27791669964790344
1768418371286680600,10.2746806640625,-0.1714734435081482,0.8011786341667175,0.28781354427337646
1768418371296681700,10.284681640625,-0.14853009581565857,0.7362610101699829,0.30655473470687866
1768418371306684000,10.294683837890625,-0.10813393443822861,0.6550530195236206,0.31306004524230957
1768418371316684800,10.304684814453125,-0.02844119817018509,0.5199535489082336,0.29384905099868774
1768418371326685700,10.314685791015625,0.048372089862823486,0.36086082458496094,0.25618821382522583
1768418371336686800,10.324686767578125,0.11009994894266129,0.2770289182662964,0.21685217320919037
1768418371346687700,10.334687744140625,0.16028615832328796,0.23256157338619232,0.18077193200588226
1768418371356689700,10.344689697265625,0.20199722051620483,0.1725061535835266,0.17761817574501038
1768418371366690600,10.354690673828125,0.2193455845117569,0.08746368438005447,0.19353295862674713
1768418371376691700,10.364691650390625,0.22353939712047577,0.011441677808761597,0.1914980113506317
1768418371386692900,10.37469287109375,0.2130742371082306,-0.04743894934654236,0.16694553196430206
1768418371396694800,10.38469482421875,0.19477005302906036,-0.04467117041349411,0.10907485336065292
1768418371406696000,10.394696044921876,0.18195146322250366,0.041713252663612366,0.014141416177153587
1768418371416696800,10.40469677734375,0.17933031916618347,0.15091846883296967,-0.07410584390163422
1768418371426697700,10.41469775390625,0.18932382762432098,0.22958000004291534,-0.15461081266403198
1768418371436700000,10.424699951171876,0.2147073894739151,0.22747668623924255,-0.2367776483297348
1768418371446700800,10.43470068359375,0.25035831332206726,0.09256815165281296,-0.3368893265724182
1768418371456701700,10.44470166015625,0.21064971387386322,-0.04195471853017807,-0.42538899183273315
1768418371466702600,10.45470263671875,0.10675819963216782,-0.060918018221855164,-0.4529114365577698
1768418371476704800,10.464704833984374,-0.038954686373472214,-0.029061907902359962,-0.4914977550506592
1768418371486705700,10.47470556640625,-0.24587884545326233,0.0497165247797966,-0.5901127457618713
1768418371496706800,10.484706787109374,-0.494673490524292,0.1571473479270935,-0.7157647609710693
1768418371506707700,10.494707763671874,-0.6633687615394592,0.25854212045669556,-0.7400131225585938
1768418371516710000,10.5047099609375,-0.5430078506469727,0.3132840394973755,-0.530853807926178
1768418371526710800,10.514710693359374,-0.32941752672195435,0.42911288142204285,-0.11710326373577118
1768418371536711700,10.524711669921874,-0.23068276047706604,0.48030275106430054,0.33455610275268555
1768418371546712600,10.534712646484374,-0.2424725741147995,0.34905603528022766,0.5373265147209167
1768418371556713700,10.544713623046874,-0.387630820274353,0.08429069072008133,0.29429125785827637
1768418371566715600,10.554715576171875,-0.567477822303772,-0.2757316529750824,-0.16355566680431366
1768418371576716500,10.564716552734374,-0.7673441171646118,-0.5074604153633118,-0.5058709979057312
1768418371586717700,10.5747177734375,-0.9857454299926758,-0.5316011309623718,-0.6010856628417969
1768418371596718600,10.584718505859374,-0.8856441378593445,-0.5357216000556946,-0.5124226808547974
1768418371606720800,10.594720703125,-0.6102202534675598,-0.41412460803985596,-0.27734172344207764
1768418371616721700,10.6047216796875,-0.34151408076286316,-0.28722670674324036,-0.04601703956723213
1768418371626722600,10.61472265625,-0.1117679625749588,-0.242978036403656,0.1519237458705902
1768418371636723500,10.624723388671875,-0.0016557029448449612,-0.23669318854808807,0.24489201605319977
1768418371646725600,10.6347255859375,0.10171382874250412,-0.22538886964321136,0.13021469116210938
1768418371656726500,10.6447265625,0.21854689717292786,-0.2353295385837555,-0.1157897412776947
1768418371666727400,10.6547275390625,0.2918994128704071,-0.2548806071281433,-0.28254783153533936
1768418371676728800,10.664728759765625,0.2719206213951111,-0.35887768864631653,-0.3197660446166992
1768418371686730500,10.67473046875,0.1791917383670807,-0.4806451201438904,-0.2976708710193634
1768418371696731600,10.684731689453125,0.07806244492530823,-0.5232144594192505,-0.25300395488739014
1768418371706732500,10.694732666015625,0.05745650455355644,-0.5226637125015259,-0.2057003676891327
1768418371716733700,10.704733642578125,0.0930195078253746,-0.4808357059955597,-0.168326273560524
1768418371726735600,10.714735595703125,0.15077361464500427,-0.4363750219345093,-0.13443994522094727
1768418371736736500,10.724736572265625,0.18907713890075684,-0.4275304973125458,-0.06179771572351456
1768418371746737700,10.734737548828125,0.21357502043247223,-0.40829768776893616,0.04938606172800064
1768418371756738600,10.744738525390625,0.2443685680627823,-0.3957534432411194,0.17722271382808685
1768418371766740500,10.754740478515625,0.26912081241607666,-0.4093387722969055,0.29541805386543274
1768418371776741600,10.76474169921875,0.31048518419265747,-0.4337787628173828,0.3759007751941681
1768418371786742800,10.77474267578125,0.33778420090675354,-0.40003225207328796,0.40807121992111206
1768418371796743700,10.78474365234375,0.3256181478500366,-0.3152230381965637,0.3769093453884125
1768418371806745600,10.79474560546875,0.285319447517395,-0.2908468544483185,0.29435163736343384
1768418371816746800,10.804746826171876,0.23149755597114563,-0.23678027093410492,0.2014874517917633
1768418371826747600,10.81474755859375,0.2051277458667755,-0.15584386885166168,0.15016807615756989
1768418371836748500,10.82474853515625,0.19230562448501587,-0.05604628473520279,0.13108564913272858
1768418371846750700,10.834750732421876,0.17506058514118195,0.02229619398713112,0.14115959405899048
1768418371856751600,10.844751708984376,0.1354771852493286,0.07140927761793137,0.1273362636566162
1768418371866752500,10.85475244140625,0.09914074838161469,0.07449721544981003,0.07235584408044815
1768418371876753700,10.864753662109376,0.05619938671588898,0.04008514806628227,-0.02422509714961052
1768418371886755600,10.874755615234376,0.0037036873400211334,-0.03943764045834541,-0.14150457084178925
1768418371896756700,10.8847568359375,-0.046503301709890366,-0.1678033173084259,-0.26231053471565247
1768418371906757600,10.894757568359376,-0.1147417426109314,-0.31331363320350647,-0.371696412563324
1768418371916758500,10.904758544921876,-0.2073347121477127,-0.4081616699695587,-0.4488137662410736
1768418371926760700,10.9147607421875,-0.29588213562965393,-0.4478246569633484,-0.48616647720336914
1768418371936761600,10.92476171875,-0.34101155400276184,-0.41192156076431274,-0.4487271308898926
1768418371946762500,10.934762451171874,-0.3349134624004364,-0.4580504298210144,-0.34002888202667236
1768418371956763600,10.944763671875,-0.34518805146217346,-0.6232746243476868,-0.2572265565395355
1768418371966765600,10.954765625,-0.37860754132270813,-0.820575475692749,-0.2960730195045471
1768418371976766500,10.964766357421874,-0.3422084450721741,-0.8224482536315918,-0.37092092633247375
1768418371986767600,10.974767578125,-0.17147183418273926,-0.56473308801651,-0.38978809118270874
1768418371996768800,10.984768798828124,0.10337813198566437,-0.2192852944135666,-0.3104880750179291
1768418372006770700,10.994770751953125,0.4070357382297516,0.0007357415743172169,-0.20283034443855286
1768418372016771600,11.004771484375,0.597069263458252,-0.021830447018146515,-0.11127964407205582
1768418372026772700,11.014772705078125,0.6849783062934875,-0.11681181937456131,0.014974430203437805
1768418372036773600,11.024773681640625,0.6944572925567627,-0.08669720590114594,0.16250847280025482
1768418372046775600,11.034775634765625,0.6628804802894592,0.13228599727153778,0.2940249443054199
1768418372056776400,11.0447763671875,0.5716620683670044,0.25968116521835327,0.3763718008995056
1768418372066777600,11.054777587890625,0.3299921751022339,0.12874603271484375,0.27783137559890747
1768418372076778800,11.06477880859375,0.21913489699363708,-0.33973538875579834,0.05907384306192398
1768418372086780700,11.07478076171875,0.23644331097602844,-0.6202760338783264,-0.08386653661727905
1768418372096781800,11.08478173828125,0.21052563190460205,0.20736214518547058,-0.29118266701698303
1768418372106782700,11.09478271484375,0.16707615554332733,0.0667823925614357,-0.3701837658882141
1768418372116783600,11.10478369140625,0.155817449092865,-0.17248277366161346,-0.2356342226266861
1768418372126785500,11.11478564453125,0.20587928593158722,-0.3738273084163666,0.013504494912922382
1768418372136786700,11.12478662109375,0.31341293454170227,-0.5077846050262451,0.20650404691696167
1768418372146787600,11.13478759765625,0.30915454030036926,-0.37617355585098267,0.23361316323280334
1768418372156788500,11.14478857421875,0.18324492871761322,-0.07516483962535858,0.21477752923965454
1768418372166790700,11.154790771484375,0.04218713939189911,0.20689481496810913,0.24192818999290466
1768418372176791600,11.16479150390625,-0.05338183045387268,0.4554296135902405,0.3337167501449585
1768418372186792700,11.174792724609375,-0.12364613264799118,0.5720089673995972,0.4077094793319702
1768418372196793600,11.184793701171875,-0.2247774600982666,0.5410544276237488,0.3841048777103424
1768418372206795800,11.194795654296875,-0.319224089384079,0.4916682243347168,0.2834776043891907
1768418372216796700,11.204796630859375,-0.3586530387401581,0.5059255957603455,0.17816096544265747
1768418372226797600,11.214797607421875,-0.360487699508667,0.575751543045044,0.0955803394317627
1768418372236798500,11.224798583984375,-0.31798169016838074,0.6523820757865906,0.08017728477716446
1768418372246800600,11.234800537109376,-0.2661443054676056,0.7015429735183716,0.12321982532739639
1768418372256801500,11.244801513671876,-0.216000035405159,0.7426899075508118,0.19510294497013092
1768418372266802400,11.254802490234376,-0.19729532301425934,0.8013817071914673,0.26163482666015625
1768418372276804600,11.2648046875,-0.21160246431827545,0.8744893074035645,0.30434131622314453
1768418372286805500,11.274805419921876,-0.2157902866601944,0.8842601776123047,0.3224441707134247
1768418372296806700,11.284806640625,-0.2149190604686737,0.8190387487411499,0.34144362807273865
1768418372306807600,11.2948076171875,-0.17611439526081085,0.7271237373352051,0.38006719946861267
1768418372316809700,11.304809814453124,-0.09068100899457932,0.6427392959594727,0.40975913405418396
1768418372326810600,11.314810546875,-0.03185524418950081,0.5562728047370911,0.41170644760131836
1768418372336811500,11.3248115234375,0.021458113566040993,0.4831811785697937,0.37756070494651794
1768418372346812700,11.334812744140624,0.06938249617815018,0.36902105808258057,0.30153971910476685
1768418372356814600,11.344814697265624,0.11618277430534363,0.286260724067688,0.23295390605926514
1768418372366815500,11.3548154296875,0.16705313324928284,0.24229992926120758,0.19670508801937103
1768418372376816400,11.36481640625,0.22289635241031647,0.1849471628665924,0.19078585505485535
1768418372386817800,11.37481787109375,0.2698579728603363,0.12705935537815094,0.20237299799919128
1768418372396819700,11.38481982421875,0.29593220353126526,0.06940191984176636,0.2054918259382248
1768418372406820600,11.394820556640624,0.3065323829650879,0.04344835504889488,0.1817055344581604
1768418372416821800,11.40482177734375,0.2988702654838562,0.06951229274272919,0.10982075333595276
1768418372426822700,11.41482275390625,0.2804504930973053,0.12726160883903503,-0.010909385979175568
1768418372436824600,11.424824462890625,0.2572125494480133,0.17392338812351227,-0.16577033698558807
1768418372446825700,11.43482568359375,0.20880241692066193,0.18194909393787384,-0.26081934571266174
1768418372456826600,11.44482666015625,0.1502654254436493,0.1334248185157776,-0.2277900129556656
1768418372466827500,11.45482763671875,0.112673319876194,0.004958728328347206,-0.1548233926296234
1768418372476829400,11.464829345703125,0.07011624425649643,-0.11034546047449112,-0.16133937239646912
1768418372486830600,11.47483056640625,0.01566738449037075,-0.09403280168771744,-0.20204898715019226
1768418372496831700,11.484831787109375,-0.06908349692821503,-0.051379475742578506,-0.2421867400407791
1768418372506833700,11.494833740234375,-0.23455315828323364,-0.02010278031229973,-0.3063276410102844
1768418372516834800,11.504834716796875,-0.46407610177993774,0.03708462417125702,-0.40793752670288086
1768418372526835700,11.514835693359375,-0.6833767890930176,0.14562201499938965,-0.46627992391586304
1768418372536836600,11.524836669921875,-0.7078138589859009,0.26854386925697327,-0.29758593440055847
1768418372546838500,11.534838623046875,-0.4846521019935608,0.28683367371559143,0.1160317212343216
1768418372556839700,11.544839599609375,-0.3859241008758545,0.11626075953245163,0.48200345039367676
1768418372566840600,11.554840576171875,-0.5260732173919678,-0.24303269386291504,0.5113762617111206
1768418372576841700,11.564841796875,-0.7714590430259705,-0.5688345432281494,0.2295423001050949
1768418372586843600,11.57484375,-1.0209470987319946,-0.7021768689155579,-0.16614776849746704
1768418372596844800,11.5848447265625,-1.1418225765228271,-0.5711985230445862,-0.3970075845718384
1768418372606846000,11.594845947265625,-1.1220673322677612,-0.5128960609436035,-0.5429128408432007
1768418372616846800,11.604846923828125,-0.8708251118659973,-0.5452291369438171,-0.6679522395133972
1768418372626848800,11.614848876953126,-0.5104964375495911,-0.3509877622127533,-0.6283465027809143
1768418372636849700,11.624849609375,-0.1451776772737503,-0.10805542767047882,-0.4259013831615448
1768418372646850800,11.634850830078125,0.0961792841553688,0.05741582438349724,-0.15033450722694397
1768418372656852700,11.644852783203126,0.1926509290933609,0.1245516836643219,0.05640101060271263
1768418372666853600,11.654853515625,0.255391001701355,0.09268376976251602,0.049987588077783585
1768418372676854800,11.664854736328126,0.3372593820095062,-0.03236891329288483,-0.1265002340078354
1768418372686855700,11.674855712890626,0.3661363124847412,-0.18739470839500427,-0.23095446825027466
1768418372696857600,11.684857666015626,0.35035082697868347,-0.33793070912361145,-0.19132444262504578
1768418372706858800,11.694858642578126,0.2937410771846771,-0.4396754205226898,-0.11838632822036743
1768418372716860000,11.70485986328125,0.20802642405033112,-0.4726096987724304,-0.1064361035823822
1768418372726860800,11.71486083984375,0.15671050548553467,-0.4912688732147217,-0.1672738939523697
1768418372736862700,11.72486279296875,0.14842793345451355,-0.5195317268371582,-0.22197215259075165
1768418372746863900,11.73486376953125,0.15155421197414398,-0.5021748542785645,-0.22455967962741852
1768418372756864800,11.74486474609375,0.16896800696849823,-0.4444267749786377,-0.15326930582523346
1768418372766866700,11.75486669921875,0.1863350123167038,-0.3984784483909607,-0.05389133095741272
1768418372776867800,11.764867919921874,0.21042005717754364,-0.3376556634902954,0.0360591821372509
1768418372786868700,11.77486865234375,0.2493634670972824,-0.2577251195907593,0.1153087317943573
1768418372796869600,11.78486962890625,0.28145739436149597,-0.20250658690929413,0.19189924001693726
1768418372806871600,11.79487158203125,0.3050881326198578,-0.18256856501102448,0.24212965369224548
1768418372816873000,11.804873046875,0.3123328387737274,-0.15525265038013458,0.24173180758953094
1768418372826873900,11.814873779296875,0.28680989146232605,-0.09260152280330658,0.21621738374233246
1768418372836874800,11.824874755859375,0.2518938481807709,-0.04283476248383522,0.21812693774700165
1768418372846877000,11.834876953125,0.19411896169185638,-0.012145827524363995,0.22377575933933258
1768418372856877800,11.8448779296875,0.15422587096691132,0.036374837160110474,0.22361864149570465
1768418372866878700,11.854878662109375,0.12548263370990753,0.09759478271007538,0.19418218731880188
1768418372876879600,11.864879638671875,0.10843492299318314,0.15580376982688904,0.14006632566452026
1768418372886881800,11.8748818359375,0.08239001035690308,0.17375534772872925,0.07857208698987961
1768418372896882700,11.884882568359375,0.04719313979148865,0.1455014944076538,0.016603298485279083
1768418372906883800,11.8948837890625,0.005500286817550659,0.08274436742067337,-0.02258618175983429
1768418372916885800,11.9048857421875,-0.04375952482223511,-0.03428973630070686,-0.07601062953472137
1768418372926887000,11.914886962890625,-0.11596713960170746,-0.17679840326309204,-0.19487282633781433
1768418372936887800,11.9248876953125,-0.19851639866828918,-0.3122783303260803,-0.3785741329193115
1768418372946888700,11.934888671875,-0.26042741537094116,-0.3727331757545471,-0.539258599281311
1768418372956891000,11.944890869140625,-0.2699279487133026,-0.3768436908721924,-0.5906899571418762
1768418372966891800,11.954891845703125,-0.2784476578235626,-0.4949444830417633,-0.5566784739494324
1768418372976892700,11.964892578125,-0.36426225304603577,-0.7405964732170105,-0.5312870144844055
1768418372986894800,11.974894775390625,-0.49301838874816895,-0.9930950403213501,-0.5561992526054382
1768418372996895700,11.984895751953125,-0.5431653261184692,-1.1310343742370605,-0.602002739906311
1768418373006896600,11.994896728515625,-0.3874327540397644,-1.0050513744354248,-0.5590656995773315
1768418373016897800,12.004897705078125,-0.06521189212799072,-0.6994757056236267,-0.3937373757362366
1768418373026899700,12.014899658203126,0.3254333436489105,-0.297293096780777,-0.25602611899375916
1768418373036900900,12.02490087890625,0.6056592464447021,-0.029855510219931602,-0.19825303554534912
1768418373046901800,12.03490185546875,0.6667084693908691,-0.11338715255260468,-0.046934619545936584
1768418373056902700,12.044902587890626,0.7383953928947449,-0.2422228753566742,0.20150664448738098
1768418373066904800,12.05490478515625,0.8096623420715332,-0.17686091363430023,0.48248451948165894
1768418373076905700,12.06490576171875,0.8515275716781616,0.1599574089050293,0.658304750919342
1768418373086906600,12.07490673828125,0.775808572769165,0.3527106046676636,0.673683762550354
1768418373096908800,12.08490869140625,0.5873201489448547,0.3700239956378937,0.46953025460243225
1768418373106909700,12.09490966796875,0.4502807557582855,0.37893012166023254,0.09878627210855484
1768418373116910600,12.10491064453125,0.37711817026138306,0.45962002873420715,-0.2738681435585022
1768418373126911700,12.114911865234374,0.2596128284931183,0.46080031991004944,-0.43358591198921204
1768418373136913700,12.12491357421875,0.160861074924469,0.24210338294506073,-0.3513387441635132
1768418373146914800,12.134914794921874,0.11520703881978989,-0.021015333011746407,-0.11880908161401749
1768418373156915700,12.144915771484374,0.18257340788841248,-0.23179395496845245,0.17155799269676208
1768418373166918000,12.15491796875,0.3501299023628235,-0.4212789535522461,0.3884633779525757
1768418373176918800,12.164918701171874,0.38438692688941956,-0.4261094331741333,0.4271030128002167
1768418373186919700,12.174919677734374,0.2394992560148239,-0.19891223311424255,0.3859342634677887
1768418373196920600,12.184920654296874,0.049268342554569244,0.1370205581188202,0.4309613108634949
1768418373206922800,12.1949228515625,-0.08815263211727142,0.42792561650276184,0.5692547559738159
1768418373216923600,12.204923583984375,-0.1926836371421814,0.5027914047241211,0.6456261873245239
1768418373226924500,12.214924560546875,-0.3376842439174652,0.3856896162033081,0.5486525297164917
1768418373236926000,12.224926025390625,-0.47774839401245117,0.28574278950691223,0.35434582829475403
1768418373246927600,12.234927734375,-0.5463820695877075,0.32278311252593994,0.17655932903289795
1768418373256928800,12.2449287109375,-0.5490395426750183,0.48156943917274475,0.07875274866819382
1768418373266930000,12.254929931640625,-0.5163572430610657,0.6570715308189392,0.0866096094250679
1768418373276931800,12.264931884765625,-0.47642046213150024,0.7865895628929138,0.15549558401107788
1768418373286932700,12.2749326171875,-0.4277871549129486,0.9031209349632263,0.22534817457199097
1768418373296933600,12.28493359375,-0.3810141980648041,1.000745415687561,0.27912911772727966
1768418373306934800,12.294934814453125,-0.3678179681301117,1.1124882698059082,0.3239668905735016
