time,seconds_elapsed,z,y,x
1768421545322850800,0.051850830078125,-0.00738525390625,-0.932525634765625,-0.1637725830078125
1768421545332851000,0.061850830078125,-0.0038299560546875,-0.9397430419921875,-0.15777587890625
1768421545342850800,0.071850830078125,0.0058746337890625,-0.9475860595703125,-0.1636505126953125
1768421545352851000,0.081850830078125,0.0084228515625,-0.959930419921875,-0.1715545654296875
1768421545362850800,0.091850830078125,0.009063720703125,-0.9754486083984375,-0.1832427978515625
1768421545372851000,0.101850830078125,0.0080413818359375,-0.9904632568359375,-0.1934661865234375
1768421545382850800,0.111850830078125,0.0095062255859375,-0.993011474609375,-0.192169189453125
1768421545392851000,0.121850830078125,0.0082855224609375,-0.9913330078125,-0.1783447265625
1768421545402850800,0.131850830078125,-0.0009307861328125,-0.989776611328125,-0.1604461669921875
1768421545412851000,0.141850830078125,-0.0126953125,-0.9819793701171875,-0.143341064453125
1768421545422850800,0.151850830078125,-0.0274505615234375,-0.9764404296875,-0.1348876953125
1768421545432850700,0.1618505859375,-0.036712646484375,-0.975677490234375,-0.1267242431640625
1768421545442850600,0.1718505859375,-0.0340728759765625,-0.9842071533203125,-0.12396240234375
1768421545452850700,0.1818505859375,-0.0169525146484375,-0.9965972900390625,-0.12445068359375
1768421545462851800,0.191851806640625,0.0118408203125,-1.0109710693359375,-0.1368408203125
1768421545472851700,0.201851806640625,0.026702880859375,-1.0224609375,-0.1585693359375
1768421545482851800,0.211851806640625,0.0274505615234375,-1.03253173828125,-0.1768798828125
1768421545492851700,0.221851806640625,0.0281829833984375,-1.0318756103515625,-0.19720458984375
1768421545502851800,0.231851806640625,0.0191650390625,-1.0124969482421875,-0.210113525390625
1768421545512851700,0.241851806640625,-0.0031890869140625,-0.9857025146484375,-0.2285003662109375
1768421545522851600,0.2518515625,-0.018524169921875,-0.9558258056640625,-0.257781982421875
1768421545532851700,0.261851806640625,-0.0101470947265625,-0.9315032958984375,-0.26763916015625
1768421545542851600,0.2718515625,0.012115478515625,-0.918975830078125,-0.2600860595703125
1768421545552851700,0.281851806640625,0.024444580078125,-0.9168853759765625,-0.2463531494140625
1768421545562851600,0.2918515625,0.0197601318359375,-0.9237518310546875,-0.23272705078125
1768421545572851700,0.301851806640625,0.0088348388671875,-0.927642822265625,-0.2269439697265625
1768421545582851600,0.3118515625,-0.01190185546875,-0.9271697998046875,-0.225341796875
1768421545592851700,0.321851806640625,-0.0384368896484375,-0.919097900390625,-0.2312774658203125
1768421545602851600,0.3318515625,-0.0574798583984375,-0.9109344482421875,-0.23541259765625
1768421545612852500,0.3418525390625,-0.0663909912109375,-0.9052276611328125,-0.2418212890625
1768421545622852600,0.3518525390625,-0.045745849609375,-0.9011688232421875,-0.246185302734375
1768421545632852700,0.361852783203125,-0.025634765625,-0.8955078125,-0.2583160400390625
1768421545642852900,0.371852783203125,0.0117645263671875,-0.8834075927734375,-0.2850494384765625
1768421545652852700,0.381852783203125,0.1014862060546875,-0.8741455078125,-0.3338470458984375
1768421545662852900,0.391852783203125,0.20733642578125,-0.877105712890625,-0.3837890625
1768421545672852700,0.401852783203125,0.2679290771484375,-0.9001922607421875,-0.41796875
1768421545682852900,0.411852783203125,0.269989013671875,-0.9443817138671875,-0.4308319091796875
1768421545692852700,0.421852783203125,0.2286376953125,-1.012481689453125,-0.4053497314453125
1768421545702852600,0.4318525390625,0.158782958984375,-1.0823211669921875,-0.3351593017578125
1768421545712852700,0.441852783203125,0.108612060546875,-1.11712646484375,-0.2565765380859375
1768421545722852600,0.4518525390625,0.1046295166015625,-1.0956878662109375,-0.189483642578125
1768421545732852700,0.461852783203125,0.1322479248046875,-1.0106201171875,-0.121429443359375
1768421545742852600,0.4718525390625,0.1765289306640625,-0.89007568359375,-0.025115966796875
1768421545752853500,0.481853515625,0.2021026611328125,-0.7986297607421875,0.071502685546875
1768421545762853600,0.491853515625,0.19049072265625,-0.7702484130859375,0.1318817138671875
1768421545772853500,0.501853515625,0.1649169921875,-0.8008880615234375,0.164520263671875
1768421545782853600,0.511853515625,0.142791748046875,-0.8858795166015625,0.12371826171875
1768421545792853500,0.521853515625,0.12872314453125,-1.0015716552734375,0.0060882568359375
1768421545802853600,0.531853515625,0.1395263671875,-1.1125335693359375,-0.1012420654296875
1768421545812853500,0.541853515625,0.1835174560546875,-1.2369384765625,-0.1828155517578125
1768421545822853600,0.551853515625,0.2005462646484375,-1.3782501220703125,-0.2208404541015625
1768421545832853800,0.561853759765625,0.212188720703125,-1.5125732421875,-0.2187042236328125
1768421545842854000,0.57185400390625,0.2248687744140625,-1.61163330078125,-0.196197509765625
1768421545852853800,0.581853759765625,0.20794677734375,-1.636932373046875,-0.1356048583984375
1768421545862854000,0.59185400390625,0.1669158935546875,-1.5803680419921875,-0.0432891845703125
1768421545872854800,0.601854736328125,0.137786865234375,-1.4818878173828125,0.0258331298828125
1768421545882854700,0.611854736328125,0.1251678466796875,-1.3807830810546875,0.0802154541015625
1768421545892854800,0.621854736328125,0.126495361328125,-1.3100128173828125,0.1356048583984375
1768421545902854700,0.631854736328125,0.136688232421875,-1.2760009765625,0.1829986572265625
1768421545912854800,0.641854736328125,0.1486053466796875,-1.268402099609375,0.1936187744140625
1768421545922854700,0.651854736328125,0.1702728271484375,-1.2833709716796875,0.133544921875
1768421545932854500,0.6618544921875,0.161224365234375,-1.291717529296875,0.0139312744140625
1768421545942854700,0.671854736328125,0.0927734375,-1.302581787109375,-0.14013671875
1768421545952854500,0.6818544921875,0.008575439453125,-1.312896728515625,-0.2961273193359375
1768421545962854700,0.691854736328125,-0.0315093994140625,-1.311920166015625,-0.4172210693359375
1768421545972854500,0.7018544921875,-0.0037689208984375,-1.2817840576171875,-0.484588623046875
1768421545982855700,0.711855712890625,0.0240020751953125,-1.1970977783203125,-0.4773712158203125
1768421545992855800,0.721855712890625,0.02874755859375,-1.06683349609375,-0.414764404296875
1768421546002855700,0.731855712890625,-0.009979248046875,-0.9161529541015625,-0.308197021484375
1768421546012855800,0.741855712890625,-0.077911376953125,-0.77056884765625,-0.182830810546875
1768421546022855700,0.751855712890625,-0.138519287109375,-0.6270904541015625,-0.0449981689453125
1768421546032855800,0.761855712890625,-0.1661224365234375,-0.4989166259765625,0.07708740234375
1768421546042855700,0.771855712890625,-0.168792724609375,-0.3826141357421875,0.1554412841796875
1768421546052855800,0.781855712890625,-0.0971221923828125,-0.3064117431640625,0.17071533203125
1768421546062855700,0.791855712890625,0.0319366455078125,-0.28240966796875,0.1315765380859375
1768421546072855800,0.801855712890625,0.1361236572265625,-0.3117523193359375,0.0619659423828125
1768421546082855700,0.811855712890625,0.14080810546875,-0.366973876953125,0.0245513916015625
1768421546092856600,0.821856689453125,0.09368896484375,-0.4030914306640625,-0.000244140625
1768421546102856700,0.831856689453125,0.0233154296875,-0.412445068359375,-0.019622802734375
1768421546112856600,0.841856689453125,-0.0798797607421875,-0.4137725830078125,-0.06121826171875
1768421546122856700,0.851856689453125,-0.12066650390625,-0.37884521484375,-0.0660858154296875
1768421546132856600,0.861856689453125,-0.060089111328125,-0.3160247802734375,-0.0243377685546875
1768421546142856700,0.871856689453125,-0.01483154296875,-0.290191650390625,-0.0287322998046875
1768421546152856600,0.881856689453125,0.0509185791015625,-0.27471923828125,-0.0826873779296875
1768421546162856700,0.891856689453125,0.3353424072265625,-0.254241943359375,-0.1551513671875
1768421546172856600,0.901856689453125,0.835693359375,-0.2302398681640625,-0.1881103515625
1768421546182856700,0.911856689453125,1.5245361328125,-0.3047332763671875,-0.2313385009765625
1768421546192857900,0.92185791015625,2.0001678466796875,-0.8378143310546875,-0.489990234375
1768421546202857700,0.931857666015625,0.6961517333984375,-1.704742431640625,-0.92022705078125
1768421546212857600,0.941857666015625,-0.40472412109375,-2.749053955078125,-0.9550628662109375
1768421546231607600,0.960607666015625,0.12261962890625,-2.7568359375,0.1861572265625
1768421546241607700,0.970607666015625,0.5732269287109375,-1.9283294677734375,0.64471435546875
1768421546251607600,0.980607666015625,0.9401092529296875,-1.4638214111328125,0.5004119873046875
1768421546261607700,0.990607666015625,0.9936676025390625,-1.1746826171875,0.2971038818359375
1768421546271607600,1.000607666015625,0.6826019287109375,-1.0324249267578125,0.1555328369140625
1768421546281607700,1.010607666015625,0.2275848388671875,-1.0036163330078125,-0.0379486083984375
1768421546291608600,1.020608642578125,0.0239715576171875,-1.0286407470703125,-0.1727752685546875
1768421546301608400,1.0306083984375,0.1917724609375,-1.0421600341796875,-0.2030792236328125
1768421546311608800,1.04060888671875,0.3427734375,-1.105316162109375,-0.286865234375
1768421546321608700,1.050608642578125,0.2601776123046875,-1.27679443359375,-0.4041900634765625
1768421546331608800,1.06060888671875,0.106964111328125,-1.4430999755859375,-0.494384765625
1768421546341608700,1.070608642578125,0.027313232421875,-1.4954833984375,-0.59210205078125
1768421546351608800,1.08060888671875,-0.0169830322265625,-1.4122314453125,-0.669158935546875
1768421546361608700,1.090608642578125,-0.0387420654296875,-1.23797607421875,-0.63287353515625
1768421546371608800,1.10060888671875,-0.0406341552734375,-1.0721435546875,-0.4711761474609375
1768421546381609700,1.110609619140625,0.002227783203125,-0.9555206298828125,-0.314239501953125
1768421546391609600,1.120609619140625,0.06915283203125,-0.8712158203125,-0.213653564453125
1768421546401609700,1.130609619140625,0.100067138671875,-0.80853271484375,-0.122344970703125
1768421546411609600,1.140609619140625,0.122314453125,-0.7497406005859375,-0.0402984619140625
1768421546421609700,1.150609619140625,0.120819091796875,-0.7012176513671875,0.020477294921875
1768421546431609000,1.160609130859375,0.0637664794921875,-0.683502197265625,0.0276336669921875
1768421546441609200,1.170609130859375,-0.033905029296875,-0.691070556640625,-0.01708984375
1768421546451609000,1.180609130859375,-0.1170196533203125,-0.7362060546875,-0.101715087890625
1768421546461609200,1.190609130859375,-0.1319732666015625,-0.7902374267578125,-0.18646240234375
1768421546471610000,1.200610107421875,-0.0752105712890625,-0.8176727294921875,-0.2357635498046875
1768421546481610000,1.21060986328125,-0.0042724609375,-0.8325347900390625,-0.2585296630859375
1768421546491610000,1.220610107421875,0.0280914306640625,-0.8456573486328125,-0.2720947265625
1768421546501610000,1.23060986328125,0.029052734375,-0.8468475341796875,-0.276641845703125
1768421546511610000,1.240610107421875,0.020263671875,-0.821929931640625,-0.2600555419921875
1768421546521610000,1.25060986328125,0.0054473876953125,-0.779327392578125,-0.2336273193359375
1768421546531610000,1.260610107421875,0.0166168212890625,-0.7253570556640625,-0.215728759765625
1768421546541610000,1.27060986328125,0.0526580810546875,-0.6669158935546875,-0.196014404296875
1768421546551610000,1.280610107421875,0.087249755859375,-0.6156768798828125,-0.1883544921875
1768421546561611300,1.290611328125,0.1031646728515625,-0.571990966796875,-0.1725921630859375
1768421546571611100,1.300611083984375,0.097442626953125,-0.5488128662109375,-0.1514739990234375
1768421546581611300,1.310611328125,0.0830078125,-0.5415191650390625,-0.1290130615234375
1768421546591611100,1.320611083984375,0.058746337890625,-0.5680694580078125,-0.1101226806640625
1768421546601611300,1.330611328125,0.03582763671875,-0.6156768798828125,-0.0881195068359375
1768421546611611100,1.340611083984375,0.03717041015625,-0.6430206298828125,-0.0611419677734375
1768421546621611000,1.350611083984375,0.0355377197265625,-0.6409759521484375,-0.037689208984375
1768421546631611100,1.360611083984375,0.0261688232421875,-0.616607666015625,-0.02362060546875
1768421546641612000,1.370612060546875,0.0239105224609375,-0.57147216796875,-0.0117340087890625
1768421546651612200,1.380612060546875,0.05316162109375,-0.4991607666015625,0.019256591796875
1768421546661612000,1.390612060546875,0.1973419189453125,-0.444183349609375,0.0589599609375
1768421546671612000,1.40061181640625,0.3788299560546875,-0.4700164794921875,0.0611572265625
1768421546681612000,1.410612060546875,0.611846923828125,-0.6224212646484375,0.0716705322265625
1768421546691612000,1.42061181640625,0.8773345947265625,-0.9126129150390625,0.1152801513671875
1768421546701612000,1.430612060546875,0.7969970703125,-1.3064117431640625,0.1274566650390625
1768421546711612000,1.44061181640625,0.5435638427734375,-1.71466064453125,0.1019287109375
1768421546721613000,1.450613037109375,0.1707763671875,-2.035797119140625,-0.0132598876953125
1768421546731613200,1.46061328125,-0.2646636962890625,-2.0841827392578125,-0.2338104248046875
1768421546741613000,1.470613037109375,-0.3114013671875,-1.7562408447265625,-0.4794769287109375
1768421546751613200,1.48061328125,-0.0365142822265625,-1.352203369140625,-0.5634918212890625
1768421546761613000,1.490613037109375,0.0764617919921875,-1.152008056640625,-0.574493408203125
1768421546771613200,1.50061328125,0.0571136474609375,-1.11248779296875,-0.465545654296875
1768421546781613000,1.510613037109375,0.1327667236328125,-1.139739990234375,-0.2519989013671875
1768421546791613200,1.52061328125,0.3390350341796875,-1.24334716796875,-0.0866241455078125
1768421546801614000,1.530614013671875,0.5112762451171875,-1.3857269287109375,0.0218505859375
1768421546811614000,1.540614013671875,0.5348052978515625,-1.54339599609375,0.0686187744140625
1768421546821614000,1.550614013671875,0.4072113037109375,-1.66778564453125,0.04473876953125
1768421546831614000,1.560614013671875,0.1939544677734375,-1.70599365234375,0.0051116943359375
1768421546841614000,1.570614013671875,0.05859375,-1.63360595703125,-0.03497314453125
1768421546851614000,1.580614013671875,0.0497589111328125,-1.4714508056640625,-0.0755615234375
1768421546861614000,1.590614013671875,0.0836944580078125,-1.2759857177734375,-0.1042022705078125
1768421546871614000,1.600614013671875,0.088165283203125,-1.097808837890625,-0.10479736328125
1768421546881615000,1.610614990234375,0.0669708251953125,-0.9577789306640625,-0.070953369140625
1768421546891615200,1.620615234375,0.0310516357421875,-0.8504180908203125,-0.03558349609375
1768421546901615000,1.630614990234375,0.019866943359375,-0.7786407470703125,-0.003814697265625
1768421546911615200,1.640615234375,0.01129150390625,-0.73895263671875,0.0255126953125
1768421546921615000,1.650614990234375,0.0147705078125,-0.71722412109375,0.0466461181640625
1768421546931615200,1.660615234375,0.0092010498046875,-0.6957855224609375,0.0623016357421875
1768421546941615000,1.670614990234375,-0.017425537109375,-0.654052734375,0.091094970703125
1768421546951616000,1.680615966796875,-0.0465545654296875,-0.587310791015625,0.1143798828125
1768421546961616100,1.6906162109375,-0.063232421875,-0.5172119140625,0.130401611328125
1768421546971616000,1.700615966796875,-0.0701141357421875,-0.4534912109375,0.1365966796875
1768421546981616000,1.7106162109375,-0.0706329345703125,-0.405670166015625,0.118194580078125
1768421546991616000,1.720615966796875,-0.045135498046875,-0.371551513671875,0.0840911865234375
1768421547001616100,1.7306162109375,-0.0196685791015625,-0.361419677734375,0.0338897705078125
1768421547011616000,1.740615966796875,-0.029632568359375,-0.3672027587890625,-0.022308349609375
1768421547021615900,1.750615966796875,-0.041259765625,-0.3576507568359375,-0.0602874755859375
1768421547031617300,1.7606171875,-0.0305633544921875,-0.3355865478515625,-0.0691680908203125
1768421547041617200,1.7706171875,-0.0011138916015625,-0.2889862060546875,-0.0441436767578125
1768421547051617000,1.780616943359375,0.0409088134765625,-0.235870361328125,-0.014373779296875
1768421547061617200,1.7906171875,0.10198974609375,-0.203399658203125,-0.0246124267578125
1768421547071617000,1.800616943359375,0.24676513671875,-0.1881561279296875,-0.0882568359375
1768421547081617200,1.8106171875,0.6380157470703125,-0.2178497314453125,-0.207672119140625
1768421547091617000,1.820616943359375,1.1434478759765625,-0.261260986328125,-0.3632354736328125
1768421547101618200,1.8306181640625,1.6511077880859375,-0.5027313232421875,-0.5179290771484375
1768421547111618000,1.8406181640625,1.4866485595703125,-1.20458984375,-0.7720489501953125
1768421547121618000,1.850617919921875,-0.09478759765625,-2.2899017333984375,-0.950225830078125
1768421547131618000,1.8606181640625,-0.9593048095703125,-3.1254730224609375,-0.9412689208984375
1768421547141618000,1.870617919921875,-0.32708740234375,-3.1858978271484375,-0.65997314453125
1768421547151618000,1.8806181640625,0.3285369873046875,-2.290618896484375,-0.139862060546875
1768421547161618000,1.890617919921875,0.99072265625,-1.5308380126953125,-0.1441650390625
1768421547171618800,1.900618896484375,1.1419219970703125,-1.1736602783203125,-0.4419097900390625
1768421547181619200,1.910619140625,0.6989898681640625,-0.9999237060546875,-0.4930419921875
1768421547191619000,1.920619140625,0.06488037109375,-1.01641845703125,-0.3986358642578125
1768421547201619200,1.930619140625,-0.0494537353515625,-1.133026123046875,-0.1787567138671875
1768421547211619000,1.940619140625,0.40289306640625,-1.26776123046875,0.045806884765625
1768421547221619200,1.950619140625,0.6878814697265625,-1.3859710693359375,0.1450042724609375
1768421547231619000,1.960619140625,0.646087646484375,-1.44171142578125,0.046905517578125
1768421547241620000,1.970619873046875,0.4484405517578125,-1.4475860595703125,-0.204315185546875
1768421547251620000,1.9806201171875,0.286468505859375,-1.3968963623046875,-0.50628662109375
1768421547261620000,1.990619873046875,0.2140655517578125,-1.294921875,-0.7292633056640625
1768421547271620000,2.0006201171875,0.1864166259765625,-1.150726318359375,-0.78118896484375
1768421547281620000,2.010619873046875,0.1532135009765625,-0.9819183349609375,-0.692901611328125
1768421547291620000,2.0206201171875,0.116668701171875,-0.848907470703125,-0.541259765625
1768421547301620000,2.030619873046875,0.105712890625,-0.7744293212890625,-0.389923095703125
1768421547311620900,2.040620849609375,0.130096435546875,-0.7398529052734375,-0.254150390625
1768421547321621000,2.05062109375,0.1589508056640625,-0.71099853515625,-0.1564178466796875
1768421547331621000,2.06062109375,0.1797027587890625,-0.6713714599609375,-0.115142822265625
1768421547341621200,2.070621337890625,0.173248291015625,-0.6298675537109375,-0.1216888427734375
1768421547351621000,2.08062109375,0.119964599609375,-0.602081298828125,-0.1713409423828125
1768421547361621200,2.090621337890625,0.0862274169921875,-0.5879669189453125,-0.2336273193359375
1768421547371621000,2.10062109375,0.0959930419921875,-0.57867431640625,-0.2630615234375
1768421547381622000,2.1106220703125,0.098876953125,-0.5816802978515625,-0.2700347900390625
1768421547391622100,2.1206220703125,0.0995941162109375,-0.598785400390625,-0.257171630859375
1768421547401622000,2.1306220703125,0.1141204833984375,-0.6255035400390625,-0.2451324462890625
1768421547411622100,2.1406220703125,0.1429901123046875,-0.65753173828125,-0.2400970458984375
1768421547421622000,2.1506220703125,0.177703857421875,-0.6953125,-0.24383544921875
1768421547431622000,2.160621826171875,0.18975830078125,-0.73626708984375,-0.2513275146484375
1768421547441621800,2.170621826171875,0.1829071044921875,-0.782318115234375,-0.25909423828125
1768421547451622700,2.18062255859375,0.1674041748046875,-0.824310302734375,-0.2755584716796875
1768421547461622800,2.190622802734375,0.1478271484375,-0.8468780517578125,-0.2981414794921875
1768421547471622700,2.20062255859375,0.1337432861328125,-0.845977783203125,-0.3332977294921875
1768421547481622800,2.210622802734375,0.126068115234375,-0.8389129638671875,-0.375732421875
1768421547491623000,2.220622802734375,0.1191864013671875,-0.8358612060546875,-0.404266357421875
1768421547501623000,2.230623046875,0.0955810546875,-0.8459320068359375,-0.4022216796875
1768421547511623000,2.240622802734375,0.049224853515625,-0.864532470703125,-0.3763427734375
1768421547521623800,2.250623779296875,0.0025787353515625,-0.886505126953125,-0.336090087890625
1768421547531624000,2.2606240234375,-0.049224853515625,-0.8911590576171875,-0.2927703857421875
1768421547541623800,2.270623779296875,-0.10614013671875,-0.853271484375,-0.257232666015625
1768421547551624000,2.2806240234375,-0.1621856689453125,-0.7748260498046875,-0.23297119140625
1768421547561623800,2.290623779296875,-0.199737548828125,-0.676361083984375,-0.191619873046875
1768421547571623700,2.300623779296875,-0.1791839599609375,-0.56719970703125,-0.130096435546875
1768421547581624800,2.310624755859375,-0.065673828125,-0.447235107421875,-0.0771484375
1768421547591624700,2.320624755859375,0.22900390625,-0.3480377197265625,-0.04974365234375
1768421547601624800,2.330624755859375,0.5413818359375,-0.3740081787109375,-0.039459228515625
1768421547611624700,2.340624755859375,0.7131195068359375,-0.5836944580078125,-0.09014892578125
1768421547621624800,2.350624755859375,0.783416748046875,-0.9820709228515625,-0.132659912109375
1768421547631624700,2.360624755859375,0.631195068359375,-1.467315673828125,-0.0607147216796875
1768421547641624600,2.37062451171875,0.3676605224609375,-1.8213043212890625,-0.0092315673828125
1768421547651626000,2.3806259765625,0.00091552734375,-1.8510589599609375,-0.0587005615234375
1768421547661625900,2.3906259765625,-0.224945068359375,-1.5022735595703125,-0.0731048583984375
1768421547671625700,2.400625732421875,-0.227447509765625,-1.0864410400390625,-0.0055389404296875
1768421547681625900,2.4106259765625,-0.0781097412109375,-0.8272857666015625,0.034637451171875
1768421547691625700,2.420625732421875,0.1846160888671875,-0.7938079833984375,0.039703369140625
1768421547701625900,2.4306259765625,0.3056793212890625,-0.9891204833984375,0.078216552734375
1768421547711625700,2.440625732421875,0.3536529541015625,-1.327392578125,0.1100311279296875
1768421547721627000,2.450626953125,0.40087890625,-1.655487060546875,0.0940093994140625
1768421547731626800,2.460626708984375,0.37164306640625,-1.94122314453125,0.050628662109375
1768421547741626600,2.470626708984375,0.2781982421875,-2.160003662109375,-0.03033447265625
1768421547751626800,2.480626708984375,0.167236328125,-2.2283935546875,-0.133880615234375
1768421547761626600,2.490626708984375,0.1039276123046875,-2.1121826171875,-0.251129150390625
1768421547771626800,2.500626708984375,0.11962890625,-1.87591552734375,-0.283172607421875
1768421547781626600,2.510626708984375,0.169097900390625,-1.6312255859375,-0.2133026123046875
1768421547791627800,2.520627685546875,0.1918487548828125,-1.3569488525390625,-0.0713653564453125
1768421547801628000,2.5306279296875,0.1748809814453125,-1.100738525390625,0.0637359619140625
1768421547811627800,2.540627685546875,0.1377410888671875,-0.913238525390625,0.1332244873046875
1768421547821628000,2.5506279296875,0.117523193359375,-0.78173828125,0.1299285888671875
1768421547831627800,2.560627685546875,0.123565673828125,-0.6990203857421875,0.0804290771484375
1768421547841628000,2.5706279296875,0.1262359619140625,-0.656463623046875,0.0207366943359375
1768421547851628800,2.58062890625,0.114410400390625,-0.6507415771484375,-0.0377655029296875
1768421547861628700,2.590628662109375,0.099609375,-0.658782958984375,-0.0956573486328125
1768421547871628800,2.60062890625,0.0727081298828125,-0.6608428955078125,-0.139129638671875
1768421547881628700,2.610628662109375,0.037384033203125,-0.6469573974609375,-0.1544189453125
1768421547891628800,2.62062890625,0.0163726806640625,-0.6051788330078125,-0.1344146728515625
1768421547901628700,2.630628662109375,-0.0128021240234375,-0.5401153564453125,-0.0952301025390625
1768421547911628800,2.64062890625,-0.048065185546875,-0.451171875,-0.0467529296875
1768421547921630000,2.6506298828125,-0.0477142333984375,-0.3609466552734375,-0.02764892578125
1768421547931629800,2.6606298828125,-0.0283355712890625,-0.287353515625,-0.010040283203125
1768421547941630000,2.6706298828125,-0.0191192626953125,-0.2305145263671875,0.024871826171875
1768421547951629800,2.6806298828125,-0.0322723388671875,-0.1849822998046875,0.05877685546875
1768421547961630000,2.6906298828125,-0.043212890625,-0.14593505859375,0.0722808837890625
1768421547971629800,2.7006298828125,-0.022003173828125,-0.1175537109375,0.0738677978515625
1768421547981630700,2.710630615234375,0.0259246826171875,-0.0972137451171875,0.06793212890625
1768421547991630800,2.720630859375,0.0883636474609375,-0.078216552734375,0.05584716796875
1768421548001630700,2.730630615234375,0.21044921875,-0.0609130859375,0.0532684326171875
1768421548011630800,2.740630859375,0.42144775390625,-0.0543365478515625,0.0050048828125
1768421548021630700,2.750630615234375,0.677001953125,-0.10833740234375,-0.1248016357421875
1768421548031630800,2.760630859375,0.894134521484375,-0.3197784423828125,-0.309661865234375
1768421548041630700,2.770630615234375,0.758758544921875,-0.777587890625,-0.5835418701171875
1768421548051631600,2.780631591796875,0.166290283203125,-1.5401153564453125,-0.863006591796875
1768421548061632000,2.790632080078125,-0.4159698486328125,-2.3403778076171875,-1.1029510498046875
1768421548071632000,2.8006318359375,-0.3784027099609375,-2.542938232421875,-0.8720550537109375
1768421548081632000,2.810632080078125,0.0209503173828125,-2.10382080078125,-0.14013671875
1768421548091631900,2.8206318359375,0.22589111328125,-1.8809814453125,0.2738037109375
1768421548101632000,2.830632080078125,0.514556884765625,-1.8368988037109375,0.437744140625
1768421548111633000,2.8406328125,0.559661865234375,-1.765777587890625,0.4394378662109375
1768421548121632800,2.8506328125,0.2164306640625,-1.606353759765625,0.3526153564453125
1768421548131633000,2.8606328125,-0.1927337646484375,-1.45855712890625,0.1938629150390625
1768421548141632800,2.8706328125,-0.47991943359375,-1.415008544921875,0.007354736328125
1768421548151633000,2.8806328125,-0.51287841796875,-1.585113525390625,-0.2070465087890625
1768421548161632800,2.8906328125,-0.332122802734375,-1.934906005859375,-0.5662994384765625
1768421548171632600,2.900632568359375,-0.0926361083984375,-2.2186279296875,-0.846954345703125
1768421548181633800,2.9106337890625,-0.0255126953125,-2.2812042236328125,-0.8831024169921875
1768421548191633700,2.920633544921875,-0.1053619384765625,-2.01202392578125,-0.4576873779296875
1768421548201633800,2.9306337890625,-0.13653564453125,-1.7747344970703125,-0.69927978515625
1768421548211634000,2.940634033203125,-0.1306915283203125,-1.4513092041015625,-0.6898040771484375
1768421548221633800,2.9506337890625,-0.091644287109375,-1.0749053955078125,-0.348968505859375
1768421548231634000,2.960634033203125,0.006927490234375,-0.78314208984375,-0.160980224609375
1768421548241634800,2.970634765625,0.092041015625,-0.617279052734375,-0.1055908203125
1768421548251635000,2.980635009765625,0.08038330078125,-0.5353240966796875,-0.014007568359375
1768421548261634800,2.990634765625,0.0114593505859375,-0.5106048583984375,0.070587158203125
1768421548271635000,3.000635009765625,-0.0267181396484375,-0.531494140625,0.0652923583984375
1768421548281634800,3.010634765625,0.0117950439453125,-0.5326690673828125,0.008636474609375
1768421548291634700,3.020634765625,0.067138671875,-0.4776153564453125,-0.024993896484375
1768421548301634800,3.030634765625,0.0906829833984375,-0.383636474609375,-0.0124053955078125
1768421548311635700,3.0406357421875,0.0936126708984375,-0.2802734375,0.0453643798828125
1768421548321635800,3.0506357421875,0.114959716796875,-0.18023681640625,0.1065826416015625
1768421548331635700,3.0606357421875,0.148223876953125,-0.1058807373046875,0.14501953125
1768421548341635600,3.070635498046875,0.180206298828125,-0.03607177734375,0.1437530517578125
1768421548351635700,3.0806357421875,0.189788818359375,-0.023162841796875,0.07696533203125
1768421548361635800,3.0906357421875,0.1505279541015625,-0.0253753662109375,-0.011322021484375
1768421548371637000,3.100636962890625,0.102752685546875,-0.0168304443359375,-0.06024169921875
1768421548381636900,3.110636962890625,0.1500396728515625,-0.030120849609375,-0.10784912109375
1768421548391636700,3.12063671875,0.3109130859375,-0.0655975341796875,-0.1742706298828125
1768421548401636900,3.130636962890625,0.4257354736328125,-0.1571197509765625,-0.2192230224609375
1768421548411636700,3.14063671875,0.3511199951171875,-0.4206085205078125,-0.1466827392578125
1768421548421636900,3.150636962890625,0.1626739501953125,-0.9969482421875,0.0209197998046875
1768421548431636700,3.16063671875,0.096435546875,-1.6461181640625,0.15069580078125
1768421548441638100,3.17063818359375,0.2738037109375,-1.865814208984375,0.2080078125
1768421548451638300,3.18063818359375,0.553314208984375,-1.6662445068359375,-0.0716705322265625
1768421548461638100,3.19063818359375,0.734466552734375,-1.6276092529296875,-0.1970062255859375
1768421548471638300,3.20063818359375,0.4856414794921875,-1.7884979248046875,-0.1359405517578125
1768421548481638100,3.21063818359375,0.100189208984375,-1.72998046875,-0.2917022705078125
1768421548491638500,3.220638427734375,0.1276092529296875,-1.75946044921875,-0.381011962890625
1768421548501639400,3.230639404296875,0.268829345703125,-1.8958587646484375,-0.4896697998046875
1768421548511639300,3.240639404296875,0.2815399169921875,-1.99169921875,-0.6200714111328125
1768421548521639400,3.250639404296875,0.1840667724609375,-1.9984130859375,-0.6587677001953125
1768421548531639300,3.260639404296875,0.05047607421875,-1.9720458984375,-0.608795166015625
1768421548541639400,3.270639404296875,-0.0359039306640625,-1.9356231689453125,-0.44207763671875
1768421548551639300,3.280639404296875,0.0272979736328125,-1.8594970703125,-0.2253875732421875
1768421548561639400,3.290639404296875,0.1761627197265625,-1.7131195068359375,-0.0110626220703125
1768421548571640300,3.300640380859375,0.23968505859375,-1.5637359619140625,0.145111083984375
1768421548581640200,3.31064013671875,0.2003326416015625,-1.413604736328125,0.2359771728515625
1768421548591640300,3.320640380859375,0.1304168701171875,-1.266754150390625,0.2575531005859375
1768421548601640200,3.33064013671875,0.0731353759765625,-1.124359130859375,0.24847412109375
1768421548611640300,3.340640380859375,0.0629425048828125,-1.012298583984375,0.1906890869140625
1768421548621640200,3.35064013671875,0.0620574951171875,-0.8994140625,0.1488494873046875
1768421548631641300,3.360641357421875,0.0193023681640625,-0.7920989990234375,0.126220703125
1768421548641641500,3.370641357421875,-0.033416748046875,-0.662872314453125,0.105682373046875
1768421548651641300,3.380641357421875,-0.0896759033203125,-0.526214599609375,0.058624267578125
1768421548661641500,3.390641357421875,-0.123321533203125,-0.387969970703125,-0.0084991455078125
1768421548671641300,3.400641357421875,-0.1842803955078125,-0.2209320068359375,-0.036224365234375
1768421548681641200,3.41064111328125,-0.2323760986328125,-0.06268310546875,-0.01715087890625
1768421548691642400,3.420642333984375,-0.1878204345703125,0.029632568359375,0.0223846435546875
1768421548701642200,3.430642333984375,-0.0637969970703125,0.063873291015625,0.0752410888671875
1768421548711642400,3.440642333984375,0.0629730224609375,0.0659332275390625,0.130279541015625
1768421548721642200,3.450642333984375,0.1196746826171875,0.0615692138671875,0.130706787109375
1768421548731642400,3.460642333984375,0.1374053955078125,0.06890869140625,0.0558013916015625
1768421548741642200,3.470642333984375,0.1497650146484375,0.0850830078125,-0.0424957275390625
1768421548751642000,3.48064208984375,0.1665802001953125,0.109893798828125,-0.1363525390625
1768421548761643500,3.4906435546875,0.1801605224609375,0.1296539306640625,-0.2164306640625
1768421548771643400,3.500643310546875,0.22845458984375,0.0771942138671875,-0.27227783203125
1768421548781643300,3.510643310546875,0.420654296875,-0.062744140625,-0.2930755615234375
1768421548791643400,3.520643310546875,0.72064208984375,-0.1416168212890625,-0.29248046875
1768421548801643300,3.530643310546875,1.1949310302734375,-0.27490234375,-0.1622314453125
1768421548811643400,3.540643310546875,1.2536468505859375,-0.7452545166015625,-0.2408294677734375
1768421548821644300,3.550644287109375,0.3087158203125,-1.444000244140625,-0.4518585205078125
1768421548831644400,3.56064453125,-0.5289154052734375,-2.1945648193359375,-0.658599853515625
1768421548841644300,3.570644287109375,-0.4807586669921875,-2.568756103515625,-0.657196044921875
1768421548851644200,3.58064404296875,0.23095703125,-2.2431182861328125,-0.12506103515625
1768421548861644300,3.590644287109375,0.4719390869140625,-2.009490966796875,0.2488250732421875
1768421548871644200,3.60064404296875,0.4961395263671875,-2.0807952880859375,0.1663665771484375
1768421548881644300,3.610644287109375,0.596771240234375,-2.151947021484375,0.0146942138671875
1768421548891645200,3.620645263671875,0.5248565673828125,-2.1291961669921875,-0.0612640380859375
1768421548901645300,3.630645263671875,0.2608489990234375,-1.946502685546875,-0.1556549072265625
1768421548911645400,3.6406455078125,0.051300048828125,-1.7778167724609375,-0.178497314453125
1768421548921645300,3.650645263671875,-0.099609375,-1.783843994140625,-0.2576904296875
1768421548931645400,3.6606455078125,-0.095947265625,-1.9531402587890625,-0.4534149169921875
1768421548941645300,3.670645263671875,0.0218658447265625,-2.1297149658203125,-0.665924072265625
1768421548951646200,3.680646240234375,0.0414581298828125,-2.166290283203125,-0.863433837890625
1768421548961646300,3.690646240234375,-0.0079193115234375,-1.98809814453125,-0.8996429443359375
1768421548971646200,3.700646240234375,-0.041168212890625,-1.680694580078125,-0.821563720703125
1768421548981646300,3.710646240234375,-0.031951904296875,-1.344970703125,-0.6364898681640625
1768421548991646200,3.720646240234375,-0.0249786376953125,-1.029022216796875,-0.390533447265625
1768421549001646300,3.730646240234375,-0.0329742431640625,-0.8029022216796875,-0.2157440185546875
1768421549011646200,3.740646240234375,-0.0746917724609375,-0.625091552734375,-0.08477783203125
1768421549021647000,3.750647216796875,-0.06890869140625,-0.4718475341796875,0.055267333984375
1768421549031647200,3.760647216796875,-0.032012939453125,-0.3549957275390625,0.16143798828125
1768421549041647000,3.770647216796875,0.0035858154296875,-0.2930450439453125,0.20458984375
1768421549051647500,3.7806474609375,0.0191650390625,-0.2576751708984375,0.183380126953125
1768421549061647400,3.7906474609375,0.018951416015625,-0.196929931640625,0.120880126953125
1768421549071647500,3.8006474609375,0.039581298828125,-0.1090850830078125,0.0918426513671875
1768421549081647400,3.8106474609375,0.0848541259765625,-0.019012451171875,0.1176910400390625
1768421549091648300,3.820648193359375,0.1436004638671875,0.054840087890625,0.1862640380859375
1768421549101648400,3.8306484375,0.1763916015625,0.0946807861328125,0.245208740234375
1768421549111648300,3.840648193359375,0.1642913818359375,0.0892181396484375,0.2514495849609375
1768421549121648400,3.8506484375,0.166229248046875,0.053680419921875,0.17431640625
1768421549131648300,3.860648193359375,0.1456298828125,0.007904052734375,0.024139404296875
1768421549141648400,3.8706484375,0.11553955078125,-0.0137786865234375,-0.0850372314453125
1768421549151649300,3.880649169921875,0.0717010498046875,-0.0333099365234375,-0.1230316162109375
1768421549161649200,3.890649169921875,-0.011871337890625,-0.083465576171875,-0.1202850341796875
1768421549171649300,3.900649169921875,-0.0586090087890625,-0.1678009033203125,-0.0710906982421875
1768421549181649200,3.910649169921875,0.1035614013671875,-0.2432403564453125,0.0011749267578125
1768421549191649300,3.920649169921875,0.5029449462890625,-0.25421142578125,0.046600341796875
1768421549201649200,3.930649169921875,0.7574005126953125,-0.296417236328125,-0.028167724609375
1768421549211649500,3.9406494140625,1.7968597412109375,-0.8262176513671875,-0.073516845703125
1768421549221650400,3.950650390625,2.2862701416015625,-2.445770263671875,0.0227813720703125
1768421549231650300,3.960650390625,0.717803955078125,-3.07708740234375,-0.1285400390625
1768421549241650400,3.970650390625,-0.3310394287109375,-2.1372222900390625,-0.35150146484375
1768421549251650300,3.980650390625,-0.1885833740234375,-1.6141815185546875,-0.399627685546875
1768421549261650400,3.990650390625,-0.0560150146484375,-1.5674896240234375,-0.464263916015625
1768421549271650300,4.000650390625,0.0894317626953125,-1.5035400390625,-0.461761474609375
1768421549281651200,4.010651123046875,0.2554473876953125,-1.3953094482421875,-0.24920654296875
1768421549291651300,4.0206513671875,0.1831817626953125,-1.340057373046875,0.04730224609375
1768421549301651200,4.030651123046875,0.0917816162109375,-1.3523712158203125,0.17059326171875
1768421549311651300,4.0406513671875,0.1476898193359375,-1.47808837890625,0.01068115234375
1768421549321651200,4.050651123046875,0.2993316650390625,-1.7385406494140625,-0.1774444580078125
1768421549331651300,4.0606513671875,0.41729736328125,-2.0232391357421875,-0.2301177978515625
1768421549341651200,4.070651123046875,0.3617706298828125,-2.222900390625,-0.21746826171875
1768421549351652400,4.08065234375,0.2047271728515625,-2.2602996826171875,-0.1294403076171875
1768421549361652500,4.090652587890625,0.056488037109375,-2.1534881591796875,-0.0645751953125
1768421549371652400,4.10065234375,-0.019805908203125,-1.9464569091796875,-0.054718017578125
1768421549381652500,4.110652587890625,-0.0174560546875,-1.6847381591796875,-0.0874786376953125
1768421549391652400,4.12065234375,0.003173828125,-1.3874359130859375,-0.13336181640625
1768421549401652200,4.13065234375,0.01519775390625,-1.13336181640625,-0.1580352783203125
1768421549411652400,4.14065234375,0.0195770263671875,-0.9414825439453125,-0.0838623046875
1768421549421653200,4.1506533203125,0.0359954833984375,-0.8255462646484375,0.0270233154296875
1768421549431653400,4.1606533203125,0.045562744140625,-0.7493133544921875,0.119354248046875
1768421549441653800,4.17065380859375,0.053802490234375,-0.667205810546875,0.20233154296875
1768421549451653600,4.180653564453125,0.050872802734375,-0.5843658447265625,0.2647705078125
1768421549461653800,4.19065380859375,0.0469818115234375,-0.4993133544921875,0.22760009765625
1768421549471653600,4.200653564453125,0.039794921875,-0.3812255859375,0.08978271484375
1768421549481654500,4.210654541015625,0.044830322265625,-0.262237548828125,-0.0270233154296875
1768421549491654700,4.220654541015625,0.052978515625,-0.172332763671875,-0.13665771484375
1768421549501654500,4.230654541015625,0.0742034912109375,-0.0967254638671875,-0.2323760986328125
1768421549511654700,4.240654541015625,0.107330322265625,-0.020263671875,-0.2783966064453125
1768421549521654500,4.250654541015625,0.1395416259765625,0.0560455322265625,-0.2714080810546875
1768421549531654700,4.260654541015625,0.178924560546875,0.127349853515625,-0.1994476318359375
1768421549541654500,4.270654541015625,0.201202392578125,0.1799774169921875,-0.091644287109375
1768421549551655700,4.28065576171875,0.184478759765625,0.197296142578125,0.025604248046875
1768421549561655800,4.29065576171875,0.1513824462890625,0.1784820556640625,0.1284942626953125
1768421549571655700,4.30065576171875,0.1014404296875,0.115631103515625,0.1721038818359375
1768421549581655800,4.31065576171875,0.1235809326171875,-0.0039825439453125,0.098175048828125
1768421549591655700,4.32065576171875,0.392822265625,-0.0863037109375,-0.094879150390625
1768421549601655800,4.33065576171875,0.7388916015625,-0.0938262939453125,-0.28314208984375
1768421549611655700,4.34065576171875,1.2156829833984375,-0.2508697509765625,-0.3604278564453125
1768421549621656600,4.350656494140625,1.237518310546875,-0.8274078369140625,-0.6194915771484375
1768421549631656700,4.36065673828125,0.2952880859375,-1.602752685546875,-0.7400665283203125
1768421549641656600,4.370656494140625,-0.91485595703125,-2.337188720703125,-0.7473907470703125
1768421549651656700,4.38065673828125,-0.915618896484375,-2.549835205078125,-0.4600677490234375
1768421549661656600,4.390656494140625,-0.3217010498046875,-2.3383941650390625,0.1247711181640625
1768421549671656700,4.40065673828125,0.066253662109375,-2.2167816162109375,0.4161224365234375
1768421549681656600,4.410656494140625,0.4120025634765625,-2.20538330078125,0.262725830078125
1768421549691657700,4.42065771484375,0.5166778564453125,-2.1884002685546875,-0.064605712890625
1768421549701657900,4.430657958984375,0.3162689208984375,-2.036376953125,-0.121063232421875
1768421549711657700,4.44065771484375,0.0005340576171875,-1.8762054443359375,0.0112762451171875
1768421549721657900,4.450657958984375,-0.1348724365234375,-1.8519439697265625,0.048492431640625
1768421549731657700,4.46065771484375,-0.1348114013671875,-1.9587554931640625,-0.1563720703125
1768421549741657900,4.470657958984375,-0.0926971435546875,-2.1053619384765625,-0.4312286376953125
1768421549751657700,4.48065771484375,-0.0451202392578125,-2.1017608642578125,-0.61468505859375
1768421549761658600,4.49065869140625,-0.05584716796875,-1.91912841796875,-0.7619476318359375
1768421549771658800,4.50065869140625,-0.1248016357421875,-1.628875732421875,-0.812225341796875
1768421549781658600,4.51065869140625,-0.1685638427734375,-1.34295654296875,-0.76641845703125
1768421549791658800,4.52065869140625,-0.1699981689453125,-1.092864990234375,-0.5152740478515625
1768421549801658600,4.53065869140625,-0.1285247802734375,-0.91302490234375,-0.27410888671875
1768421549811658500,4.540658447265625,-0.0177001953125,-0.820281982421875,-0.1427764892578125
1768421549821659600,4.55065966796875,0.120635986328125,-0.7327880859375,-0.014129638671875
1768421549831659800,4.56065966796875,0.2368011474609375,-0.63494873046875,0.0933074951171875
1768421549841660000,4.570659912109375,0.27734375,-0.534820556640625,0.1441192626953125
1768421549851659800,4.58065966796875,0.23309326171875,-0.4447174072265625,0.1143951416015625
1768421549861659600,4.59065966796875,0.163604736328125,-0.352020263671875,0.0399932861328125
1768421549871659800,4.60065966796875,0.0979766845703125,-0.240447998046875,0.0005035400390625
1768421549881659600,4.61065966796875,0.0534820556640625,-0.1560821533203125,-0.0224151611328125
1768421549891659800,4.62065966796875,0.0494232177734375,-0.094879150390625,-0.0361175537109375
1768421549901660700,4.63066064453125,0.06219482421875,-0.0406341552734375,-0.029541015625
1768421549911660500,4.64066064453125,0.0754241943359375,-0.0057525634765625,-0.0518646240234375
1768421549921660700,4.65066064453125,0.0791473388671875,0.022064208984375,-0.099456787109375
1768421549931660500,4.66066064453125,0.0726318359375,0.0519256591796875,-0.140838623046875
1768421549941660700,4.67066064453125,0.0809173583984375,0.072296142578125,-0.1643218994140625
1768421549951660500,4.68066064453125,0.100616455078125,0.0802764892578125,-0.1574554443359375
1768421549961661700,4.69066162109375,0.077972412109375,0.058929443359375,-0.122161865234375
1768421549971661600,4.70066162109375,0.0308685302734375,0.0193328857421875,-0.0689697265625
1768421549981661700,4.71066162109375,0.094451904296875,-0.01025390625,-0.0240325927734375
1768421549991661800,4.720661865234375,0.4467926025390625,-0.00653076171875,-0.0251617431640625
1768421550001661700,4.73066162109375,1.008941650390625,-0.0242919921875,-0.0781707763671875
1768421550011661800,4.740661865234375,1.4233551025390625,-0.3150177001953125,-0.077545166015625
1768421550021661700,4.75066162109375,1.4691925048828125,-1.3164215087890625,0.1070098876953125
1768421550031662600,4.76066259765625,0.525238037109375,-2.727569580078125,0.40191650390625
1768421550041662700,4.770662841796875,-0.12005615234375,-2.6094970703125,0.6051483154296875
1768421550051662600,4.78066259765625,0.41363525390625,-1.9522857666015625,0.2266998291015625
1768421550061662700,4.790662841796875,0.3419189453125,-1.7913818359375,-0.4873046875
1768421550071662600,4.80066259765625,0.0066986083984375,-1.6143646240234375,-0.7396392822265625
1768421550081662700,4.810662841796875,-0.0349578857421875,-1.4787139892578125,-0.831298828125
1768421550091662600,4.82066259765625,-0.0704498291015625,-1.50372314453125,-1.005889892578125
1768421550101663500,4.83066357421875,-0.1749267578125,-1.5723876953125,-1.1082763671875
1768421550111663600,4.84066357421875,-0.21875,-1.6837310791015625,-1.0833282470703125
1768421550121663500,4.85066357421875,-0.174224853515625,-1.917572021484375,-0.8740081787109375
1768421550131664000,4.860663818359375,-0.0299224853515625,-2.135345458984375,-0.5998077392578125
1768421550141663700,4.870663818359375,0.200042724609375,-2.15081787109375,-0.302276611328125
1768421550151663900,4.880663818359375,0.2825927734375,-2.0631561279296875,0.0317840576171875
1768421550161663700,4.890663818359375,0.1711273193359375,-1.9445648193359375,0.30718994140625
1768421550171664600,4.90066455078125,0.012420654296875,-1.72015380859375,0.5836029052734375
1768421550181664800,4.910664794921875,-0.074615478515625,-1.4554443359375,0.7300567626953125
1768421550191664600,4.92066455078125,-0.038543701171875,-1.2021484375,0.639404296875
1768421550201664800,4.930664794921875,0.0443267822265625,-0.997589111328125,0.4383544921875
1768421550211664600,4.94066455078125,0.0988922119140625,-0.794586181640625,0.2559051513671875
1768421550221664800,4.950664794921875,0.0994873046875,-0.6396331787109375,0.102935791015625
1768421550231664600,4.96066455078125,0.051422119140625,-0.5489349365234375,-0.01708984375
1768421550241665500,4.97066552734375,-0.0064544677734375,-0.4717864990234375,-0.09466552734375
1768421550251665700,4.980665771484375,-0.03662109375,-0.3929901123046875,-0.175201416015625
1768421550261665500,4.99066552734375,-0.0096435546875,-0.3187408447265625,-0.262847900390625
1768421550271665700,5.000665771484375,0.04718017578125,-0.25433349609375,-0.3451690673828125
1768421550281665500,5.01066552734375,0.1214599609375,-0.20050048828125,-0.4163818359375
1768421550291666000,5.020666015625,0.1668701171875,-0.1546630859375,-0.45916748046875
1768421550301665800,5.030665771484375,0.1543426513671875,-0.0923919677734375,-0.4742889404296875
1768421550311666700,5.040666748046875,0.1123504638671875,-0.0093231201171875,-0.4481964111328125
1768421550321666800,5.050666748046875,0.102752685546875,0.0775299072265625,-0.3592681884765625
1768421550331666700,5.060666748046875,0.1685028076171875,0.169342041015625,-0.2041168212890625
1768421550341666800,5.070666748046875,0.25885009765625,0.23919677734375,-0.0450439453125
1768421550351666700,5.080666748046875,0.2865753173828125,0.265472412109375,0.0560150146484375
1768421550361666600,5.09066650390625,0.2545013427734375,0.238037109375,0.0439910888671875
1768421550371666700,5.100666748046875,0.35369873046875,0.161468505859375,-0.1869964599609375
1768421550381666600,5.11066650390625,0.731781005859375,0.0576171875,-0.5520477294921875
1768421550391667700,5.120667724609375,1.121978759765625,-0.0260772705078125,-0.7068939208984375
1768421550401667600,5.13066748046875,1.197113037109375,-0.259765625,-0.550506591796875
1768421550411667700,5.140667724609375,0.2992095947265625,-1.1450347900390625,-0.419952392578125
1768421550421667600,5.15066748046875,-1.193389892578125,-2.336944580078125,-0.4940643310546875
1768421550431667500,5.16066748046875,-0.5023345947265625,-2.9377593994140625,-0.22454833984375
1768421550441668000,5.170668212890625,0.7034912109375,-2.9441070556640625,0.378143310546875
1768421550451668000,5.18066796875,1.028564453125,-3.07208251953125,0.4739532470703125
1768421550461668900,5.1906689453125,1.0360260009765625,-2.77923583984375,-0.2298431396484375
1768421550471669000,5.2006689453125,0.5225677490234375,-2.0308380126953125,-0.9587860107421875
1768421550481668900,5.2106689453125,-0.2709503173828125,-1.4487762451171875,-0.970458984375
1768421550491669000,5.2206689453125,-0.5260162353515625,-1.1826934814453125,-0.6616363525390625
1768421550501668900,5.2306689453125,-0.301849365234375,-1.2052154541015625,-0.3788299560546875
1768421550511669000,5.2406689453125,-0.1735992431640625,-1.5013427734375,-0.307342529296875
1768421550521668900,5.2506689453125,-0.044586181640625,-1.8807373046875,-0.34765625
1768421550531670000,5.260669921875,0.13751220703125,-2.2494049072265625,-0.356414794921875
1768421550541670100,5.270670166015625,0.277374267578125,-2.4879608154296875,-0.451904296875
1768421550551670000,5.280669921875,0.3800048828125,-2.43402099609375,-0.523223876953125
1768421550561670100,5.290670166015625,0.3319549560546875,-2.093963623046875,-0.530029296875
1768421550571670000,5.300669921875,0.15106201171875,-1.6240234375,-0.4660491943359375
1768421550581670100,5.310670166015625,-0.0412445068359375,-1.2029571533203125,-0.3820648193359375
1768421550591670000,5.320669921875,-0.1670379638671875,-0.8536529541015625,-0.3345489501953125
1768421550601671000,5.3306708984375,-0.21832275390625,-0.5966796875,-0.3002471923828125
1768421550611671000,5.340671142578125,-0.2085418701171875,-0.4161529541015625,-0.263031005859375
1768421550621671000,5.3506708984375,-0.1461944580078125,-0.256927490234375,-0.2010345458984375
1768421550631671000,5.360671142578125,-0.0214996337890625,-0.125701904296875,-0.1433258056640625
1768421550641671000,5.3706708984375,0.102447509765625,-0.051971435546875,-0.0694427490234375
1768421550651671000,5.380671142578125,0.12713623046875,-0.07098388671875,0.0217742919921875
1768421550661671000,5.3906708984375,0.0399169921875,-0.11383056640625,0.11517333984375
1768421550671672000,5.400672119140625,-0.055328369140625,-0.1199493408203125,0.16241455078125
1768421550681672200,5.410672119140625,-0.0480499267578125,-0.0937042236328125,0.1236419677734375
1768421550691672000,5.420672119140625,0.0439605712890625,-0.0588836669921875,-0.0047760009765625
1768421550701672200,5.430672119140625,0.1165924072265625,-0.0318756103515625,-0.15057373046875
1768421550711672000,5.440672119140625,0.0919036865234375,0.00811767578125,-0.228363037109375
1768421550721672000,5.450671875,0.0238800048828125,0.0384674072265625,-0.230926513671875
1768421550731672000,5.460672119140625,-0.0423736572265625,0.033905029296875,-0.1829376220703125
1768421550741672000,5.470671875,-0.0999603271484375,0.0020751953125,-0.116973876953125
1768421550751673000,5.480673095703125,-0.0471649169921875,-0.0276031494140625,-0.09014892578125
1768421550761673000,5.4906728515625,0.3755340576171875,-0.0279541015625,-0.1233673095703125
1768421550771673000,5.500673095703125,1.012847900390625,-0.08197021484375,-0.2400970458984375
1768421550781673000,5.5106728515625,1.494354248046875,-0.4029998779296875,-0.3955841064453125
1768421550791672800,5.5206728515625,1.5674896240234375,-1.074859619140625,-0.348876953125
1768421550801673000,5.5306728515625,0.451080322265625,-1.9801177978515625,-0.0366668701171875
1768421550811672800,5.5406728515625,-0.7000579833984375,-2.3676605224609375,0.232269287109375
1768421550821674000,5.550674072265625,-0.45684814453125,-1.9954071044921875,0.161834716796875
1768421550831674000,5.560674072265625,0.293609619140625,-1.71405029296875,-0.2899017333984375
1768421550841674000,5.570674072265625,0.4274749755859375,-1.593353271484375,-0.4661712646484375
1768421550851674000,5.580674072265625,0.176666259765625,-1.5587158203125,-0.431396484375
1768421550861674000,5.590674072265625,-0.074249267578125,-1.4899139404296875,-0.2701568603515625
1768421550871674000,5.600674072265625,-0.094940185546875,-1.4209442138671875,-0.164642333984375
1768421550881674000,5.610674072265625,0.289398193359375,-1.4589996337890625,-0.149139404296875
1768421550891675000,5.6206748046875,0.5809173583984375,-1.662628173828125,-0.1832275390625
1768421550901675000,5.630675048828125,0.5078887939453125,-1.9718475341796875,-0.166107177734375
1768421550911675000,5.6406748046875,0.291351318359375,-2.2316741943359375,-0.1363677978515625
1768421550921675000,5.650675048828125,0.0624542236328125,-2.36627197265625,-0.1443328857421875
1768421550931675000,5.6606748046875,-0.01715087890625,-2.2853240966796875,-0.11669921875
1768421550941675000,5.670675048828125,0.05889892578125,-2.0058441162109375,-0.0247039794921875
1768421550951675000,5.6806748046875,0.142822265625,-1.681121826171875,0.073455810546875
1768421550961675000,5.690675048828125,0.1565399169921875,-1.3905181884765625,0.127166748046875
1768421550971676200,5.70067626953125,0.1267242431640625,-1.1524810791015625,0.1180572509765625
1768421550981676000,5.710676025390625,0.072845458984375,-0.9448394775390625,0.061126708984375
1768421550991676200,5.72067626953125,0.0236053466796875,-0.774932861328125,-0.019287109375
1768421551001676000,5.730676025390625,0.0307159423828125,-0.673309326171875,-0.0859375
1768421551011676200,5.74067626953125,0.07415771484375,-0.590484619140625,-0.0789337158203125
1768421551021676000,5.750676025390625,0.115875244140625,-0.5210113525390625,0.0045013427734375
1768421551031676200,5.76067626953125,0.123565673828125,-0.464385986328125,0.1076507568359375
1768421551041677000,5.770677001953125,0.096038818359375,-0.4376220703125,0.1812286376953125
1768421551051677000,5.780677001953125,0.066131591796875,-0.4546356201171875,0.211639404296875
1768421551061677000,5.790677001953125,0.0575103759765625,-0.4518890380859375,0.21026611328125
1768421551071677000,5.800677001953125,0.0396270751953125,-0.4196624755859375,0.11737060546875
1768421551081677000,5.810677001953125,-0.0397186279296875,-0.38323974609375,0.0350799560546875
1768421551091677000,5.820677001953125,-0.098480224609375,-0.327423095703125,-0.0182647705078125
1768421551101677000,5.830677001953125,-0.0806427001953125,-0.256317138671875,-0.0489044189453125
1768421551111678200,5.84067822265625,-0.0202484130859375,-0.1773834228515625,-0.0577850341796875
1768421551121678000,5.850677978515625,0.101806640625,-0.0912017822265625,-0.0468292236328125
1768421551131678200,5.86067822265625,0.2167205810546875,-0.017120361328125,0.0003662109375
1768421551141678000,5.870677978515625,0.2640533447265625,0.02337646484375,0.0701446533203125
1768421551151678200,5.88067822265625,0.2540283203125,0.012359619140625,0.126251220703125
1768421551161678000,5.890677978515625,0.27886962890625,-0.0245361328125,0.1115570068359375
1768421551171678000,5.900677978515625,0.49200439453125,-0.0467529296875,-0.0531158447265625
1768421551181679000,5.91067919921875,0.9697723388671875,-0.0560760498046875,-0.1896209716796875
1768421551191679000,5.920678955078125,1.41217041015625,-0.3178253173828125,-0.1627044677734375
1768421551201679000,5.93067919921875,0.4132232666015625,-1.0400848388671875,-0.4183807373046875
1768421551211679000,5.940678955078125,-0.529449462890625,-1.659423828125,-0.5720062255859375
1768421551221678800,5.950678955078125,-0.5406646728515625,-2.0838165283203125,-0.644378662109375
1768421551231679000,5.960678955078125,0.0429534912109375,-2.1015472412109375,-0.3596954345703125
1768421551241678800,5.970678955078125,0.3910675048828125,-1.8612060546875,0.2022857666015625
1768421551251679000,5.980678955078125,0.3335418701171875,-1.9823455810546875,0.43121337890625
1768421551261680000,5.99068017578125,0.3801422119140625,-2.159210205078125,0.4008026123046875
1768421551271680000,6.000679931640625,0.356170654296875,-2.258087158203125,0.1495208740234375
1768421551281680100,6.01068017578125,0.3269195556640625,-2.2470245361328125,-0.0183258056640625
1768421551291680000,6.020679931640625,0.168121337890625,-2.103240966796875,0.0822906494140625
1768421551301680000,6.03068017578125,0.013275146484375,-1.9431610107421875,0.2003326416015625
1768421551311680000,6.040679931640625,-0.0190582275390625,-1.8303985595703125,0.1623382568359375
1768421551321680100,6.05068017578125,-0.0194091796875,-1.7722930908203125,0.0673065185546875
1768421551331681000,6.060680908203125,0.02923583984375,-1.7679443359375,-0.1066436767578125
1768421551341681000,6.070680908203125,0.11669921875,-1.6611785888671875,-0.341461181640625
1768421551351681000,6.080680908203125,0.089752197265625,-1.3951416015625,-0.566253662109375
1768421551361681000,6.090680908203125,-0.029754638671875,-1.1021270751953125,-0.618377685546875
1768421551371681000,6.100680908203125,-0.1339569091796875,-0.8659515380859375,-0.5277099609375
1768421551381681000,6.110680908203125,-0.1463165283203125,-0.7000885009765625,-0.4282073974609375
1768421551391681000,6.120680908203125,-0.095458984375,-0.579498291015625,-0.354461669921875
1768421551401682000,6.130681884765625,-0.0354156494140625,-0.5207366943359375,-0.2615203857421875
1768421551411682000,6.14068212890625,0.00286865234375,-0.4973297119140625,-0.1910858154296875
1768421551421682200,6.15068212890625,0.025482177734375,-0.46820068359375,-0.1327667236328125
1768421551431682000,6.16068212890625,0.02923583984375,-0.43218994140625,-0.081207275390625
1768421551441681200,6.17068115234375,0.02752685546875,-0.36627197265625,-0.00762939453125
1768421551451681000,6.180680908203125,0.0439453125,-0.2845458984375,0.0334625244140625
1768421551461681200,6.19068115234375,0.0689849853515625,-0.2133636474609375,0.048797607421875
1768421551471682000,6.20068212890625,0.0843963623046875,-0.15057373046875,0.0636444091796875
1768421551481682200,6.21068212890625,0.0421142578125,-0.1144866943359375,0.0888519287109375
1768421551491682000,6.22068212890625,0.003814697265625,-0.088897705078125,0.1094512939453125
1768421551501682000,6.230681884765625,0.0219268798828125,-0.083953857421875,0.10736083984375
1768421551511682000,6.24068212890625,0.161651611328125,-0.069915771484375,0.1000518798828125
1768421551521682000,6.250681884765625,0.281768798828125,-0.0417327880859375,0.082061767578125
1768421551531682000,6.26068212890625,0.3363037109375,-0.053985595703125,0.0482025146484375
1768421551541682000,6.270681884765625,0.4551239013671875,-0.102325439453125,0.006622314453125
1768421551551683000,6.28068310546875,0.6358795166015625,-0.2332611083984375,-0.035003662109375
1768421551561683000,6.290682861328125,0.8227996826171875,-0.6616668701171875,-0.0448455810546875
1768421551571683000,6.30068310546875,0.7035369873046875,-1.50640869140625,0.0097198486328125
1768421551581683200,6.31068310546875,0.1491851806640625,-1.8804473876953125,0.033935546875
1768421551591683000,6.32068310546875,0.3209686279296875,-1.3011932373046875,-0.185333251953125
1768421551601683200,6.33068310546875,0.6480560302734375,-0.7857666015625,-0.619598388671875
1768421551611683000,6.34068310546875,0.4981842041015625,-0.68511962890625,-0.5325469970703125
1768421551621684000,6.35068408203125,0.2972259521484375,-0.886383056640625,-0.2602081298828125
1768421551631684000,6.36068408203125,0.0762939453125,-1.1077423095703125,-0.307952880859375
1768421551641684000,6.37068408203125,0.1130218505859375,-1.18206787109375,-0.3784637451171875
1768421551651684000,6.38068408203125,0.3332366943359375,-1.3451690673828125,-0.37872314453125
1768421551661684000,6.39068408203125,0.56610107421875,-1.610992431640625,-0.415191650390625
1768421551671684000,6.40068408203125,0.6106719970703125,-1.761688232421875,-0.4443359375
1768421551681684000,6.41068408203125,0.555419921875,-1.818206787109375,-0.432342529296875
1768421551691684900,6.420684814453125,0.51654052734375,-1.9402313232421875,-0.341644287109375
1768421551701685000,6.43068505859375,0.4454345703125,-1.9382171630859375,-0.181732177734375
1768421551711684900,6.440684814453125,0.4380340576171875,-1.8008270263671875,-0.0285491943359375
1768421551721685200,6.450685302734375,0.4598541259765625,-1.651947021484375,0.0623626708984375
1768421551731685000,6.46068505859375,0.4212188720703125,-1.4898529052734375,0.0724334716796875
1768421551741685200,6.470685302734375,0.3613739013671875,-1.3170623779296875,0.030792236328125
1768421551751685000,6.48068505859375,0.34326171875,-1.1680145263671875,0.001129150390625
1768421551761685200,6.490685302734375,0.3520355224609375,-1.0504150390625,-0.0064849853515625
1768421551771686100,6.50068603515625,0.339691162109375,-0.9622650146484375,0.0078887939453125
1768421551781686000,6.51068603515625,0.2877197265625,-0.9006805419921875,0.045074462890625
1768421551791686100,6.52068603515625,0.2610015869140625,-0.8381805419921875,0.096038818359375
1768421551801686000,6.53068603515625,0.263763427734375,-0.7875823974609375,0.132354736328125
1768421551811686100,6.54068603515625,0.261077880859375,-0.7347412109375,0.15130615234375
1768421551821686000,6.55068603515625,0.231048583984375,-0.6574249267578125,0.1183013916015625
1768421551831686100,6.56068603515625,0.1695556640625,-0.5706634521484375,-0.005828857421875
1768421551841687000,6.57068701171875,0.068389892578125,-0.4698486328125,-0.200714111328125
1768421551851687000,6.58068701171875,-0.02294921875,-0.321075439453125,-0.3604583740234375
1768421551861687000,6.59068701171875,-0.0818634033203125,-0.144866943359375,-0.4191131591796875
1768421551871687200,6.600687255859375,-0.1605987548828125,0.0401763916015625,-0.37890625
1768421551881687000,6.61068701171875,-0.2433624267578125,0.2205810546875,-0.2827301025390625
1768421551891687200,6.620687255859375,-0.2678985595703125,0.3717041015625,-0.14007568359375
1768421551901687000,6.63068701171875,-0.1866302490234375,0.4641571044921875,-0.0024566650390625
1768421551911687200,6.640687255859375,0.0286712646484375,0.4305267333984375,0.065399169921875
1768421551921688000,6.65068798828125,0.286285400390625,0.254608154296875,0.07403564453125
1768421551931688200,6.660688232421875,0.4532928466796875,-0.02386474609375,-0.0363922119140625
1768421551941688000,6.67068798828125,0.5287017822265625,-0.3308563232421875,-0.254547119140625
1768421551951688000,6.68068798828125,0.5601959228515625,-0.5753326416015625,-0.4886932373046875
1768421551961688000,6.69068798828125,0.515777587890625,-0.7419586181640625,-0.668975830078125
1768421551971688000,6.70068798828125,0.473907470703125,-0.81475830078125,-0.7001190185546875
1768421551981688000,6.71068798828125,0.5164642333984375,-0.6832122802734375,-0.4807586669921875
1768421551991689000,6.72068896484375,0.5854644775390625,-0.4837646484375,-0.1724853515625
1768421552001688800,6.730688720703125,0.562713623046875,-0.58538818359375,-0.0564117431640625
1768421552011689000,6.74068896484375,0.5171661376953125,-0.8426361083984375,-0.0049896240234375
1768421552021688800,6.750688720703125,0.548095703125,-1.100433349609375,-0.075653076171875
1768421552031689200,6.760689208984375,0.59600830078125,-1.26593017578125,-0.2512664794921875
1768421552041689000,6.770689208984375,0.6326446533203125,-1.3459014892578125,-0.4749298095703125
1768421552051689200,6.780689208984375,0.5783538818359375,-1.344268798828125,-0.640838623046875
1768421552061690000,6.790690185546875,0.4705963134765625,-1.3277587890625,-0.6933441162109375
1768421552071690000,6.80068994140625,0.3979034423828125,-1.334442138671875,-0.6620635986328125
1768421552081690000,6.810690185546875,0.36688232421875,-1.2646331787109375,-0.5214996337890625
1768421552091690000,6.82068994140625,0.388916015625,-1.1287384033203125,-0.358062744140625
1768421552101690000,6.830690185546875,0.357269287109375,-1.049041748046875,-0.2670135498046875
1768421552111690000,6.84068994140625,0.345489501953125,-1.0117950439453125,-0.183837890625
1768421552121690000,6.850690185546875,0.409942626953125,-0.9917449951171875,-0.1348114013671875
1768421552131690000,6.86068994140625,0.421539306640625,-0.986907958984375,-0.1302947998046875
1768421552141691000,6.87069091796875,0.403472900390625,-0.9508819580078125,-0.1431732177734375
1768421552151691000,6.88069091796875,0.313934326171875,-0.87152099609375,-0.197906494140625
1768421552161691000,6.89069091796875,0.249267578125,-0.7570037841796875,-0.2250213623046875
1768421552171691000,6.90069091796875,0.3104400634765625,-0.67974853515625,-0.203216552734375
1768421552181691100,6.910691162109375,0.50067138671875,-0.651947021484375,-0.156341552734375
1768421552191691300,6.920691162109375,0.537200927734375,-0.63409423828125,-0.1251678466796875
1768421552201691100,6.930691162109375,0.3594818115234375,-0.603759765625,-0.07373046875
1768421552211692000,6.940692138671875,0.231170654296875,-0.5797576904296875,-0.0900726318359375
1768421552221692200,6.950692138671875,0.15545654296875,-0.569549560546875,-0.211456298828125
1768421552231692000,6.960692138671875,0.0766448974609375,-0.541717529296875,-0.2563323974609375
1768421552241692200,6.970692138671875,0.090667724609375,-0.504791259765625,-0.2545013427734375
1768421552251692000,6.980692138671875,0.2542877197265625,-0.50408935546875,-0.1820526123046875
1768421552261692200,6.990692138671875,0.4456329345703125,-0.5550537109375,-0.111907958984375
1768421552271692000,7.000692138671875,0.4994354248046875,-0.591644287109375,-0.08441162109375
1768421552281692000,7.01069189453125,0.4162445068359375,-0.5665130615234375,-0.1031951904296875
1768421552291693000,7.020693115234375,0.209320068359375,-0.4560546875,-0.058685302734375
1768421552301693000,7.03069287109375,-0.0714111328125,-0.269561767578125,-0.0462646484375
1768421552311693000,7.040693115234375,-0.22161865234375,-0.1299285888671875,-0.084686279296875
1768421552321693000,7.05069287109375,-0.0394439697265625,-0.1175384521484375,-0.133087158203125
1768421552331693000,7.060693115234375,0.104522705078125,-0.2133331298828125,-0.1688232421875
1768421552341693200,7.070693115234375,0.2412261962890625,-0.2899932861328125,-0.2089691162109375
1768421552351693000,7.080693115234375,0.6019744873046875,-0.292816162109375,-0.2763214111328125
1768421552361693200,7.090693115234375,0.7548828125,-0.14178466796875,-0.2269134521484375
1768421552371694000,7.100694091796875,0.718475341796875,0.1373443603515625,-0.1938934326171875
1768421552381694000,7.11069384765625,0.6978759765625,0.37158203125,-0.2194671630859375
1768421552391694000,7.120694091796875,0.6102142333984375,0.5175933837890625,-0.138885498046875
1768421552401694000,7.13069384765625,0.42218017578125,0.48004150390625,-0.2446441650390625
1768421552411694000,7.140694091796875,0.3983612060546875,0.281005859375,-0.662872314453125
1768421552421694000,7.15069384765625,0.98260498046875,0.140045166015625,-0.955474853515625
1768421552431694000,7.160694091796875,1.296966552734375,0.0866851806640625,-1.309173583984375
1768421552441695700,7.17069580078125,1.194122314453125,0.08740234375,-1.7682342529296875
1768421552451695900,7.18069580078125,1.18511962890625,0.1295928955078125,-2.000030517578125
1768421552461696000,7.190696044921875,1.2215728759765625,0.17999267578125,-1.9850921630859375
1768421552471696000,7.20069580078125,1.4136962890625,0.31768798828125,-1.740325927734375
1768421552481696000,7.210696044921875,1.8820648193359375,0.4361114501953125,-1.286163330078125
1768421552491695900,7.22069580078125,2.2460784912109375,0.5926361083984375,-0.8697509765625
1768421552501695700,7.23069580078125,2.38494873046875,0.5374755859375,-0.6435089111328125
1768421552511696000,7.24069580078125,2.303192138671875,0.4706878662109375,-0.3627777099609375
1768421552521696800,7.25069677734375,1.830780029296875,0.5970611572265625,0.0048675537109375
1768421552531697000,7.26069677734375,1.1924285888671875,0.8134918212890625,-0.086395263671875
1768421552541696800,7.27069677734375,0.3856353759765625,1.2366180419921875,-0.627838134765625
1768421552551697000,7.28069677734375,-0.0838470458984375,1.4391021728515625,-1.4135589599609375
1768421552561696800,7.29069677734375,0.3826446533203125,1.4931488037109375,-1.89495849609375
1768421552571696600,7.300696533203125,0.861175537109375,1.4158172607421875,-2.17083740234375
1768421552581696800,7.31069677734375,0.7075042724609375,0.7151031494140625,-2.71551513671875
1768421552591697700,7.32069775390625,0.7192230224609375,-0.2150726318359375,-2.9046630859375
1768421552601698000,7.330697998046875,0.9534149169921875,-0.68670654296875,-2.9041595458984375
1768421552611698000,7.340697998046875,1.2257080078125,-0.4727325439453125,-2.313690185546875
1768421552621697800,7.35069775390625,1.045745849609375,0.310272216796875,-1.4541168212890625
1768421552631698000,7.360697998046875,0.0469207763671875,1.156524658203125,-0.952667236328125
1768421552641697800,7.37069775390625,-0.554229736328125,1.5797271728515625,-0.9180755615234375
1768421552651698000,7.380697998046875,0.1348724365234375,1.6431427001953125,-0.7822265625
1768421552661697800,7.39069775390625,0.48297119140625,1.339691162109375,-0.6652374267578125
1768421552671698700,7.40069873046875,0.404022216796875,0.8532562255859375,-0.5487518310546875
1768421552681698800,7.41069873046875,0.430999755859375,0.505401611328125,-0.4102325439453125
1768421552691698700,7.42069873046875,0.354339599609375,0.2751617431640625,-0.36114501953125
1768421552701698800,7.43069873046875,0.35595703125,0.0976715087890625,-0.4299774169921875
1768421552711698700,7.44069873046875,0.366424560546875,0.0576019287109375,-0.4959564208984375
1768421552721698800,7.45069873046875,0.282196044921875,0.0634918212890625,-0.6496429443359375
1768421552731698700,7.46069873046875,0.169586181640625,0.1115875244140625,-0.839385986328125
1768421552741698800,7.47069873046875,0.0911712646484375,0.222869873046875,-0.90240478515625
1768421552751700000,7.480699951171875,0.0321807861328125,0.3498992919921875,-0.85821533203125
1768421552761699800,7.490699951171875,0.014678955078125,0.3877105712890625,-0.8140106201171875
1768421552771700000,7.500699951171875,0.0451812744140625,0.437744140625,-0.6610260009765625
1768421552781699800,7.510699951171875,0.1165008544921875,0.4052276611328125,-0.5727996826171875
1768421552791700000,7.520699951171875,0.3061981201171875,0.3431243896484375,-0.57464599609375
1768421552801699800,7.530699951171875,0.5009918212890625,0.362091064453125,-0.6978302001953125
1768421552811700000,7.540699951171875,0.668609619140625,0.52557373046875,-0.7552337646484375
1768421552821699800,7.550699951171875,0.7188873291015625,0.65301513671875,-0.831787109375
1768421552831700700,7.56070068359375,0.757904052734375,0.7089080810546875,-0.8736114501953125
1768421552841700900,7.570700927734375,0.8388519287109375,0.661041259765625,-0.878875732421875
1768421552851700700,7.58070068359375,0.8873443603515625,0.535003662109375,-0.8309173583984375
1768421552861700900,7.590700927734375,0.9043426513671875,0.5228118896484375,-0.661163330078125
1768421552871700700,7.60070068359375,0.878387451171875,0.6856842041015625,-0.5687103271484375
1768421552881700900,7.610700927734375,0.9329071044921875,0.7940216064453125,-0.6698760986328125
1768421552891700700,7.62070068359375,0.9157867431640625,0.722869873046875,-0.8176727294921875
1768421552901700600,7.63070068359375,0.8879241943359375,0.6511993408203125,-0.793792724609375
1768421552911702000,7.640701904296875,0.887420654296875,0.598724365234375,-0.749053955078125
1768421552921702000,7.650701904296875,0.8574676513671875,0.6021881103515625,-0.7091522216796875
1768421552931702000,7.660701904296875,0.8091583251953125,0.6463775634765625,-0.68609619140625
1768421552941702000,7.670701904296875,0.7950286865234375,0.6570281982421875,-0.6542205810546875
1768421552951701800,7.68070166015625,0.78729248046875,0.6364593505859375,-0.6072998046875
1768421552961702000,7.690701904296875,0.76416015625,0.6131744384765625,-0.5573883056640625
1768421552971701800,7.70070166015625,0.7240142822265625,0.603179931640625,-0.5157318115234375
1768421552981703000,7.710702880859375,0.6988677978515625,0.603851318359375,-0.4956207275390625
1768421552991702800,7.720702880859375,0.6879119873046875,0.59222412109375,-0.47454833984375
1768421553001703000,7.730702880859375,0.68548583984375,0.5782928466796875,-0.4637451171875
1768421553011702800,7.740702880859375,0.692047119140625,0.567535400390625,-0.461822509765625
1768421553021702700,7.75070263671875,0.6770782470703125,0.5534515380859375,-0.4769744873046875
1768421553031702800,7.760702880859375,0.6913299560546875,0.5375823974609375,-0.47216796875
1768421553041702700,7.77070263671875,0.742279052734375,0.5057220458984375,-0.4625244140625
1768421553051702800,7.780702880859375,0.7350921630859375,0.503204345703125,-0.4753265380859375
1768421553061704000,7.790703857421875,0.7451934814453125,0.5005035400390625,-0.47747802734375
1768421553071703800,7.800703857421875,0.717681884765625,0.50311279296875,-0.491790771484375
1768421553081704000,7.810703857421875,0.718963623046875,0.501953125,-0.4943695068359375
1768421553091703800,7.820703857421875,0.7209320068359375,0.499237060546875,-0.5001678466796875
1768421553101704000,7.830703857421875,0.6713409423828125,0.4973907470703125,-0.5252227783203125
1768421553111703800,7.840703857421875,0.7563934326171875,0.47491455078125,-0.483612060546875
1768421553121704000,7.850703857421875,0.7664031982421875,0.4380340576171875,-0.48974609375
1768421553131703800,7.860703857421875,0.737396240234375,0.421295166015625,-0.50579833984375
1768421553141704700,7.87070458984375,0.778900146484375,0.3773040771484375,-0.49017333984375
1768421553151704800,7.880704833984375,0.8150482177734375,0.325531005859375,-0.4808349609375
1768421553161704700,7.89070458984375,0.8294219970703125,0.3070068359375,-0.4710845947265625
1768421553171704800,7.900704833984375,0.8399505615234375,0.30810546875,-0.464447021484375
1768421553181704700,7.91070458984375,0.821441650390625,0.3076324462890625,-0.460540771484375
1768421553191704800,7.920704833984375,0.8107452392578125,0.301788330078125,-0.4501495361328125
1768421553201704700,7.93070458984375,0.8111114501953125,0.29119873046875,-0.438140869140625
1768421553211704800,7.940704833984375,0.7975006103515625,0.2893524169921875,-0.436614990234375
1768421553221706000,7.9507060546875,0.852264404296875,0.286102294921875,-0.4214324951171875
1768421553231705900,7.960705810546875,0.87615966796875,0.272308349609375,-0.41485595703125
1768421553241706000,7.9707060546875,0.8634796142578125,0.2812042236328125,-0.41827392578125
1768421553251705900,7.980705810546875,0.875213623046875,0.2844085693359375,-0.4059906005859375
1768421553261706000,7.9907060546875,0.874786376953125,0.277496337890625,-0.3956451416015625
1768421553271705900,8.000705810546876,0.8724822998046875,0.2745819091796875,-0.384490966796875
1768421553281706000,8.0107060546875,0.871368408203125,0.27423095703125,-0.3778076171875
1768421553291705900,8.020705810546875,0.8791046142578125,0.2794342041015625,-0.3707427978515625
1768421553301706800,8.030706787109375,0.8868865966796875,0.2778778076171875,-0.3653411865234375
1768421553311707000,8.040706787109375,0.8928680419921875,0.2711639404296875,-0.358551025390625
1768421553321706800,8.050706787109375,0.905181884765625,0.2720947265625,-0.3537750244140625
1768421553331707000,8.060706787109375,0.9189910888671875,0.265594482421875,-0.3521881103515625
1768421553341706800,8.070706787109375,0.932098388671875,0.261962890625,-0.352325439453125
1768421553351706600,8.08070654296875,0.9419403076171875,0.257598876953125,-0.3475341796875
1768421553361706800,8.090706787109376,0.950897216796875,0.2617340087890625,-0.3447418212890625
1768421553371706600,8.10070654296875,0.95574951171875,0.2616119384765625,-0.343719482421875
1768421553381708000,8.1107080078125,0.9569854736328125,0.2617645263671875,-0.340850830078125
1768421553391708000,8.1207080078125,0.9551849365234375,0.266326904296875,-0.336151123046875
1768421553401707800,8.130707763671875,0.953887939453125,0.269927978515625,-0.335601806640625
1768421553411708000,8.1407080078125,0.9535980224609375,0.2730560302734375,-0.33282470703125
1768421553421707800,8.150707763671875,0.9499969482421875,0.2760467529296875,-0.33282470703125
1768421553431708000,8.1607080078125,0.9483489990234375,0.277801513671875,-0.330810546875
1768421553441707000,8.17070703125,0.943359375,0.2767333984375,-0.32769775390625
1768421553451707100,8.18070703125,0.931671142578125,0.27667236328125,-0.3254852294921875
1768421553461708000,8.1907080078125,0.9228668212890625,0.274627685546875,-0.3210906982421875
1768421553471708200,8.200708251953126,0.917236328125,0.27392578125,-0.318756103515625
1768421553481708000,8.2107080078125,0.913909912109375,0.272613525390625,-0.3187103271484375
1768421553491708200,8.220708251953125,0.90899658203125,0.2745513916015625,-0.3155517578125
1768421553501708000,8.2307080078125,0.900390625,0.27423095703125,-0.3132476806640625
1768421553511708000,8.2407080078125,0.8958282470703125,0.276275634765625,-0.3089752197265625
1768421553521708300,8.250708251953125,0.89031982421875,0.274688720703125,-0.30816650390625
1768421553531708200,8.260708251953124,0.889068603515625,0.275146484375,-0.3076934814453125
1768421553541709300,8.270709228515624,0.890960693359375,0.27886962890625,-0.306488037109375
1768421553551709200,8.280709228515626,0.8921356201171875,0.27850341796875,-0.3075408935546875
1768421553561709000,8.290708984375,0.893707275390625,0.2788848876953125,-0.3070526123046875
1768421553571709200,8.300709228515625,0.8959197998046875,0.2784576416015625,-0.3069610595703125
1768421553581709000,8.310708984375,0.9019012451171875,0.279541015625,-0.3077545166015625
1768421553591709200,8.320709228515625,0.903228759765625,0.27978515625,-0.30816650390625
1768421553601709000,8.330708984375,0.90521240234375,0.278289794921875,-0.3086090087890625
1768421553611709200,8.340709228515625,0.908599853515625,0.277984619140625,-0.3091278076171875
1768421553621710000,8.3507099609375,0.9125518798828125,0.27667236328125,-0.3092803955078125
1768421553631710000,8.3607099609375,0.916748046875,0.275482177734375,-0.3093719482421875
1768421553641710000,8.3707099609375,0.918365478515625,0.2741851806640625,-0.30816650390625
1768421553651710000,8.3807099609375,0.9195404052734375,0.273956298828125,-0.30816650390625
1768421553661710000,8.3907099609375,0.922119140625,0.2723388671875,-0.3077850341796875
1768421553671710200,8.400710205078125,0.9298553466796875,0.2730255126953125,-0.3055877685546875
1768421553681710300,8.41071044921875,0.9382781982421875,0.274383544921875,-0.308258056640625
1768421553691710200,8.420710205078125,0.9356231689453125,0.2734832763671875,-0.3072509765625
1768421553701711000,8.430711181640625,0.9305572509765625,0.2694549560546875,-0.3042144775390625
1768421553711711200,8.440711181640625,0.927093505859375,0.267486572265625,-0.303497314453125
1768421553721711000,8.450711181640624,0.9302978515625,0.2704010009765625,-0.2970428466796875
1768421553731711200,8.460711181640624,0.9225921630859375,0.2634429931640625,-0.309051513671875
1768421553741711000,8.470711181640626,0.91619873046875,0.26318359375,-0.298248291015625
1768421553751711200,8.480711181640626,0.9153594970703125,0.262664794921875,-0.2987213134765625
1768421553761711000,8.490711181640625,0.9126434326171875,0.2649383544921875,-0.29901123046875
1768421553771711200,8.500711181640625,0.90789794921875,0.264556884765625,-0.2964324951171875
1768421553781712100,8.510712158203125,0.9055023193359375,0.2618408203125,-0.295867919921875
1768421553791712000,8.5207119140625,0.9084625244140625,0.2639312744140625,-0.2957000732421875
1768421553801712000,8.530712158203125,0.908599853515625,0.2642059326171875,-0.2948455810546875
1768421553811712000,8.5407119140625,0.910369873046875,0.2660675048828125,-0.2951812744140625
1768421553821712100,8.550712158203124,0.9125518798828125,0.2678375244140625,-0.294677734375
1768421553831712300,8.560712158203126,0.913787841796875,0.2686614990234375,-0.2949676513671875
1768421553841712000,8.570712158203126,0.9157257080078125,0.2688446044921875,-0.2947540283203125
1768421553851712300,8.580712158203125,0.9178009033203125,0.2703094482421875,-0.2955169677734375
1768421553861713200,8.590713134765625,0.9193572998046875,0.270355224609375,-0.295074462890625
1768421553871713300,8.60071337890625,0.91973876953125,0.27008056640625,-0.2953948974609375
1768421553881713200,8.610713134765625,0.9227294921875,0.27093505859375,-0.2941741943359375
1768421553891713000,8.620713134765625,0.924102783203125,0.271514892578125,-0.29547119140625
1768421553901713200,8.630713134765625,0.925811767578125,0.2705078125,-0.2948150634765625
1768421553911713000,8.640713134765624,0.9232177734375,0.2717132568359375,-0.2945556640625
1768421553921713200,8.650713134765626,0.92242431640625,0.270294189453125,-0.2931060791015625
1768421553931713000,8.660713134765626,0.923248291015625,0.2689056396484375,-0.293182373046875
1768421553941713200,8.670713134765625,0.923797607421875,0.2682952880859375,-0.2924041748046875
1768421553951714000,8.680714111328125,0.9229278564453125,0.269317626953125,-0.2926025390625
1768421553961714000,8.6907138671875,0.9216461181640625,0.2681427001953125,-0.2927398681640625
1768421553971714300,8.70071435546875,0.9191131591796875,0.2662811279296875,-0.2896881103515625
1768421553981714200,8.710714111328125,0.9192047119140625,0.26580810546875,-0.2896575927734375
1768421553991714300,8.72071435546875,0.9196624755859375,0.265350341796875,-0.2882537841796875
1768421554001714200,8.730714111328124,0.918670654296875,0.2656707763671875,-0.2884979248046875
1768421554011714300,8.74071435546875,0.9187469482421875,0.26373291015625,-0.288177490234375
1768421554021714200,8.750714111328126,0.917144775390625,0.2643280029296875,-0.2892303466796875
1768421554031715000,8.760715087890626,0.9151458740234375,0.263916015625,-0.28729248046875
1768421554041715200,8.770715087890625,0.9177398681640625,0.26409912109375,-0.28887939453125
1768421554051715000,8.780715087890625,0.920166015625,0.2644195556640625,-0.2884063720703125
1768421554061715200,8.790715087890625,0.9219970703125,0.264373779296875,-0.287689208984375
1768421554071715000,8.800715087890625,0.9232635498046875,0.265380859375,-0.289031982421875
1768421554081715200,8.810715087890625,0.92486572265625,0.2650299072265625,-0.2891845703125
1768421554091715000,8.820715087890624,0.9253387451171875,0.2659149169921875,-0.288299560546875
1768421554101715200,8.830715087890624,0.9247589111328125,0.2657623291015625,-0.289215087890625
1768421554111716000,8.840716064453124,0.923614501953125,0.26385498046875,-0.2885284423828125
1768421554121716000,8.850716064453126,0.9230194091796875,0.2645721435546875,-0.287811279296875
1768421554131716400,8.86071630859375,0.922576904296875,0.2650604248046875,-0.2884063720703125
1768421554141716200,8.87071630859375,0.92340087890625,0.2645416259765625,-0.2880859375
1768421554151716400,8.88071630859375,0.9236907958984375,0.2664031982421875,-0.2862548828125
1768421554161716200,8.89071630859375,0.9219818115234375,0.2657318115234375,-0.2876739501953125
1768421554171716000,8.900716064453125,0.92254638671875,0.26531982421875,-0.28857421875
1768421554181716200,8.91071630859375,0.9227142333984375,0.2657470703125,-0.287109375
1768421554191716000,8.920716064453124,0.9207305908203125,0.2635650634765625,-0.2871856689453125
1768421554201717200,8.93071728515625,0.9204254150390625,0.264617919921875,-0.28717041015625
1768421554211717000,8.940717041015626,0.9209747314453125,0.26458740234375,-0.2863922119140625
1768421554221717000,8.950717041015626,0.92071533203125,0.26422119140625,-0.28582763671875
1768421554231717000,8.960717041015625,0.922698974609375,0.2652587890625,-0.2850799560546875
1768421554241717000,8.970717041015625,0.9227447509765625,0.264373779296875,-0.28582763671875
1768421554251717000,8.980717041015625,0.921722412109375,0.2655792236328125,-0.2845611572265625
1768421554261717000,8.990717041015625,0.9205474853515625,0.2630462646484375,-0.28607177734375
1768421554271717000,9.000717041015625,0.9196929931640625,0.261962890625,-0.2837677001953125
1768421554281718300,9.01071826171875,0.9193267822265625,0.2610321044921875,-0.2857208251953125
1768421554291718100,9.02071826171875,0.9212799072265625,0.2614288330078125,-0.28448486328125
1768421554301718300,9.03071826171875,0.9228973388671875,0.2630462646484375,-0.2833404541015625
1768421554311718100,9.04071826171875,0.92352294921875,0.263031005859375,-0.2840576171875
1768421554321718300,9.05071826171875,0.9243316650390625,0.2627410888671875,-0.2845611572265625
1768421554331718100,9.06071826171875,0.925445556640625,0.2637939453125,-0.2852783203125
1768421554341718300,9.07071826171875,0.9257965087890625,0.263427734375,-0.284637451171875
1768421554351718100,9.08071826171875,0.9277496337890625,0.263580322265625,-0.284454345703125
1768421554361719000,9.090718994140625,0.9260711669921875,0.262542724609375,-0.2846527099609375
1768421554371719200,9.10071923828125,0.9260406494140625,0.2615509033203125,-0.2837371826171875
1768421554381719000,9.110718994140624,0.9256439208984375,0.2618560791015625,-0.2835235595703125
1768421554391719200,9.12071923828125,0.925567626953125,0.26226806640625,-0.2831878662109375
1768421554401719000,9.130718994140626,0.92401123046875,0.262908935546875,-0.2829132080078125
1768421554411719200,9.14071923828125,0.9235382080078125,0.2630462646484375,-0.2819366455078125
1768421554421719000,9.150718994140625,0.9232635498046875,0.260498046875,-0.2815399169921875
1768421554431719200,9.16071923828125,0.922637939453125,0.2611236572265625,-0.2809295654296875
1768421554441719600,9.170719482421875,0.9209442138671875,0.260498046875,-0.2821197509765625
1768421554451720700,9.180720703125,0.9201507568359375,0.2607574462890625,-0.2818603515625
1768421554461720800,9.190720947265625,0.9220733642578125,0.26055908203125,-0.2817230224609375
1768421554471720700,9.200720703125,0.9241180419921875,0.262298583984375,-0.2817230224609375
1768421554481720600,9.210720458984374,0.9239501953125,0.2616729736328125,-0.282745361328125
1768421554491720700,9.220720703125,0.922637939453125,0.26116943359375,-0.283294677734375
1768421554501720600,9.230720458984376,0.92431640625,0.2617645263671875,-0.2825469970703125
1768421554511720700,9.240720703125,0.925933837890625,0.2618255615234375,-0.2835235595703125
1768421554521720600,9.250720458984375,0.9261016845703125,0.2605743408203125,-0.2846221923828125
1768421554531721500,9.260721435546875,0.92608642578125,0.2622833251953125,-0.28369140625
1768421554541721600,9.2707216796875,0.92694091796875,0.26129150390625,-0.2833099365234375
1768421554551721500,9.280721435546875,0.923614501953125,0.261322021484375,-0.283111572265625
1768421554561721600,9.2907216796875,0.9239349365234375,0.2619171142578125,-0.283111572265625
1768421554571721500,9.300721435546874,0.9229278564453125,0.261688232421875,-0.2830657958984375
1768421554581721600,9.3107216796875,0.9232025146484375,0.26123046875,-0.28228759765625
1768421554591721500,9.320721435546876,0.9241943359375,0.2620697021484375,-0.282440185546875
1768421554601721600,9.3307216796875,0.9242706298828125,0.2616424560546875,-0.28350830078125
1768421554611722800,9.34072265625,0.9227447509765625,0.2621002197265625,-0.281036376953125
1768421554621722600,9.35072265625,0.91937255859375,0.262176513671875,-0.281097412109375
1768421554631722800,9.36072265625,0.922119140625,0.2607879638671875,-0.281524658203125
1768421554641722600,9.37072265625,0.9269866943359375,0.2634429931640625,-0.2825775146484375
1768421554651722800,9.38072265625,0.9296722412109375,0.264984130859375,-0.2842559814453125
1768421554661722600,9.39072265625,0.9270782470703125,0.2647857666015625,-0.2829742431640625
1768421554671722800,9.40072265625,0.9268798828125,0.261993408203125,-0.2823944091796875
1768421554681722600,9.41072265625,0.9261322021484375,0.2624359130859375,-0.2821502685546875
1768421554691722800,9.42072265625,0.9242401123046875,0.2615203857421875,-0.28204345703125
1768421554701723600,9.4307236328125,0.9208221435546875,0.261444091796875,-0.282684326171875
1768421554711723500,9.4407236328125,0.9183807373046875,0.26031494140625,-0.281707763671875
1768421554721723600,9.4507236328125,0.9241943359375,0.26153564453125,-0.282318115234375
1768421554731723500,9.4607236328125,0.9264373779296875,0.262298583984375,-0.2830963134765625
1768421554741723600,9.4707236328125,0.924530029296875,0.2653961181640625,-0.2821197509765625
1768421554751723500,9.4807236328125,0.9268035888671875,0.2631988525390625,-0.28173828125
1768421554761723600,9.4907236328125,0.9264068603515625,0.2646331787109375,-0.2832183837890625
1768421554771723800,9.500723876953124,0.926361083984375,0.2636871337890625,-0.2834930419921875
1768421554781724700,9.510724609375,0.92626953125,0.2642822265625,-0.28466796875
1768421554791724800,9.520724853515626,0.9276885986328125,0.2650146484375,-0.2826995849609375
1768421554801724700,9.530724609375,0.9277191162109375,0.265380859375,-0.2835540771484375
1768421554811724500,9.540724609375,0.927459716796875,0.2642364501953125,-0.2840423583984375
1768421554821724700,9.550724609375,0.925811767578125,0.2654266357421875,-0.2860260009765625
1768421554831724500,9.560724609375,0.924407958984375,0.2645111083984375,-0.28619384765625
1768421554841724700,9.570724609375,0.92401123046875,0.263671875,-0.285797119140625
1768421554851724500,9.580724609375,0.9231414794921875,0.263031005859375,-0.2855072021484375
1768421554861725700,9.5907255859375,0.9229888916015625,0.2639007568359375,-0.286590576171875
1768421554871725600,9.6007255859375,0.922119140625,0.2629852294921875,-0.2865753173828125
1768421554881725400,9.610725341796876,0.92242431640625,0.2631072998046875,-0.28607177734375
1768421554891725600,9.6207255859375,0.9213409423828125,0.262115478515625,-0.2872467041015625
1768421554901725400,9.630725341796875,0.920257568359375,0.26318359375,-0.28717041015625
1768421554911725600,9.6407255859375,0.9207916259765625,0.26275634765625,-0.2872772216796875
1768421554921725700,9.6507255859375,0.9202117919921875,0.2627716064453125,-0.2877960205078125
1768421554931725800,9.660725830078125,0.921539306640625,0.26336669921875,-0.28729248046875
1768421554941725700,9.6707255859375,0.9212493896484375,0.263031005859375,-0.2868804931640625
1768421554951726600,9.6807265625,0.923492431640625,0.2651214599609375,-0.288818359375
1768421554961726700,9.690726806640624,0.921539306640625,0.2631072998046875,-0.2885589599609375
1768421554971726600,9.7007265625,0.920928955078125,0.262115478515625,-0.2871551513671875
1768421554981726700,9.710726806640626,0.91864013671875,0.26263427734375,-0.287445068359375
1768421554991726600,9.7207265625,0.920745849609375,0.263763427734375,-0.2873077392578125
1768421555001726700,9.730726806640625,0.9218292236328125,0.2631378173828125,-0.288909912109375
1768421555011726600,9.7407265625,0.9223785400390625,0.2635498046875,-0.2895355224609375
1768421555021726700,9.750726806640625,0.9223480224609375,0.263427734375,-0.2900848388671875
1768421555031727600,9.7607275390625,0.92083740234375,0.26446533203125,-0.288116455078125
1768421555041727500,9.7707275390625,0.9213714599609375,0.2647247314453125,-0.288818359375
1768421555051727600,9.7807275390625,0.92156982421875,0.264617919921875,-0.2899017333984375
1768421555061727500,9.7907275390625,0.9220428466796875,0.2659149169921875,-0.288299560546875
1768421555071727900,9.800727783203126,0.9234161376953125,0.26593017578125,-0.28839111328125
1768421555081727700,9.810727783203125,0.9225616455078125,0.2657470703125,-0.2891998291015625
1768421555091727600,9.8207275390625,0.920501708984375,0.265625,-0.2883148193359375
1768421555101727700,9.830727783203125,0.921600341796875,0.265350341796875,-0.28948974609375
1768421555111728600,9.840728759765625,0.92205810546875,0.2664947509765625,-0.2898406982421875
1768421555121728800,9.850728759765625,0.922027587890625,0.266998291015625,-0.2881317138671875
1768421555131728600,9.860728759765625,0.9214019775390625,0.2659759521484375,-0.288299560546875
1768421555141728500,9.870728515625,0.9205780029296875,0.2654266357421875,-0.28765869140625
1768421555151728600,9.880728759765624,0.921417236328125,0.2663421630859375,-0.2899322509765625
1768421555161728500,9.890728515625,0.92010498046875,0.2639923095703125,-0.2886505126953125
1768421555171728600,9.900728759765625,0.9190673828125,0.2653045654296875,-0.289825439453125
1768421555181728500,9.910728515625,0.920379638671875,0.263916015625,-0.289031982421875
1768421555191728600,9.920728759765625,0.9197845458984375,0.26507568359375,-0.288726806640625
1768421555201729500,9.9307294921875,0.91943359375,0.26556396484375,-0.2891693115234375
1768421555211729400,9.9407294921875,0.920379638671875,0.2663116455078125,-0.28997802734375
1768421555221729800,9.950729736328125,0.9205780029296875,0.264617919921875,-0.2896575927734375
1768421555231729700,9.960729736328124,0.921173095703125,0.2646331787109375,-0.2908172607421875
1768421555241729800,9.970729736328124,0.91998291015625,0.2652435302734375,-0.2907562255859375
1768421555251729700,9.980729736328126,0.9209136962890625,0.2656097412109375,-0.2899017333984375
1768421555261729800,9.990729736328126,0.9208221435546875,0.2650299072265625,-0.2914581298828125
1768421555271729700,10.000729736328125,0.9213714599609375,0.266326904296875,-0.2920074462890625
1768421555281730600,10.01073046875,0.92193603515625,0.26544189453125,-0.290069580078125
1768421555291730700,10.020730712890625,0.923065185546875,0.2652435302734375,-0.2918853759765625
1768421555301730600,10.03073046875,0.921966552734375,0.2665863037109375,-0.2917022705078125
1768421555311730700,10.040730712890625,0.9207000732421875,0.2674560546875,-0.29058837890625
1768421555321730600,10.05073046875,0.9180450439453125,0.2660980224609375,-0.292236328125
1768421555331730700,10.060730712890624,0.918243408203125,0.26593017578125,-0.293243408203125
1768421555341730600,10.07073046875,0.9194793701171875,0.2664642333984375,-0.290618896484375
1768421555351730700,10.080730712890626,0.920074462890625,0.266632080078125,-0.2922515869140625
1768421555361730600,10.09073046875,0.919403076171875,0.26690673828125,-0.2921905517578125
1768421555371731700,10.100731689453125,0.919525146484375,0.26788330078125,-0.2932586669921875
1768421555381731800,10.11073193359375,0.9215545654296875,0.26678466796875,-0.2939605712890625
1768421555391731700,10.120731689453125,0.9204559326171875,0.2676849365234375,-0.293975830078125
1768421555401731800,10.13073193359375,0.916839599609375,0.267181396484375,-0.2931976318359375
1768421555411731700,10.140731689453125,0.9140472412109375,0.2672271728515625,-0.2925872802734375
1768421555421731600,10.150731689453124,0.91815185546875,0.2677001953125,-0.2912139892578125
1768421555431731700,10.160731689453126,0.924285888671875,0.2695159912109375,-0.293731689453125
1768421555441732000,10.170732177734376,0.9294891357421875,0.2703399658203125,-0.295440673828125
1768421555451733200,10.180733154296876,0.9246978759765625,0.2708740234375,-0.295623779296875
1768421555461733400,10.1907333984375,0.9212646484375,0.2687835693359375,-0.2935638427734375
1768421555471733200,10.200733154296875,0.920013427734375,0.2674560546875,-0.2929229736328125
1768421555481733400,10.2107333984375,0.91705322265625,0.2661285400390625,-0.2943115234375
1768421555491733200,10.220733154296875,0.9137420654296875,0.2645111083984375,-0.2912750244140625
1768421555501733400,10.2307333984375,0.910064697265625,0.2638397216796875,-0.2899169921875
1768421555511733200,10.240733154296874,0.915374755859375,0.2656707763671875,-0.291534423828125
1768421555521733400,10.2507333984375,0.9219970703125,0.26727294921875,-0.292877197265625
1768421555531733200,10.260733154296876,0.921142578125,0.2691802978515625,-0.29437255859375
1768421555541734100,10.270734130859376,0.9226531982421875,0.2691192626953125,-0.29248046875
1768421555551734300,10.280734375,0.9228973388671875,0.2697296142578125,-0.2945098876953125
1768421555561734100,10.290734130859375,0.9229888916015625,0.26995849609375,-0.2932586669921875
1768421555571734300,10.300734375,0.922760009765625,0.2690887451171875,-0.2932586669921875
1768421555581734100,10.310734130859375,0.9220733642578125,0.2705230712890625,-0.2940216064453125
1768421555591734300,10.320734375,0.921722412109375,0.2691650390625,-0.2938385009765625
1768421555601734100,10.330734130859375,0.9219207763671875,0.269378662109375,-0.2944488525390625
1768421555611734300,10.340734375,0.9214324951171875,0.26837158203125,-0.29327392578125
1768421555621735400,10.3507353515625,0.922027587890625,0.269378662109375,-0.293304443359375
1768421555631735300,10.3607353515625,0.9205780029296875,0.268646240234375,-0.29449462890625
1768421555641735400,10.3707353515625,0.921905517578125,0.2671966552734375,-0.2930755615234375
1768421555651735300,10.3807353515625,0.9210662841796875,0.2658538818359375,-0.2926788330078125
1768421555661735400,10.3907353515625,0.919769287109375,0.266082763671875,-0.2929840087890625
1768421555671735300,10.4007353515625,0.9181671142578125,0.2652587890625,-0.2916259765625
1768421555681735200,10.410735107421875,0.916748046875,0.265869140625,-0.2910919189453125
1768421555691735300,10.4207353515625,0.9166412353515625,0.264617919921875,-0.290924072265625
1768421555701735200,10.430735107421874,0.9170684814453125,0.2635498046875,-0.291107177734375
1768421555711736300,10.440736328125,0.9172210693359375,0.2647552490234375,-0.2902984619140625
1768421555721736200,10.450736083984374,0.9174957275390625,0.2651214599609375,-0.290618896484375
1768421555731736000,10.460736083984376,0.9215240478515625,0.26568603515625,-0.29150390625
1768421555741736200,10.470736083984375,0.920623779296875,0.2667388916015625,-0.2917327880859375
1768421555751736000,10.480736083984375,0.91900634765625,0.26666259765625,-0.2910614013671875
1768421555761736200,10.490736083984375,0.919586181640625,0.265167236328125,-0.29034423828125
1768421555771736300,10.500736328125,0.92340087890625,0.2667083740234375,-0.2906036376953125
1768421555781736400,10.510736328125,0.9237060546875,0.2656707763671875,-0.291290283203125
1768421555791737300,10.5207373046875,0.9235382080078125,0.2667694091796875,-0.2915496826171875
1768421555801737200,10.5307373046875,0.922607421875,0.2672271728515625,-0.290557861328125
1768421555811737300,10.5407373046875,0.9219970703125,0.26702880859375,-0.2900848388671875
1768421555821737200,10.5507373046875,0.9237213134765625,0.266510009765625,-0.288787841796875
1768421555831737300,10.5607373046875,0.922698974609375,0.2669677734375,-0.2887420654296875
1768421555841737200,10.5707373046875,0.9241790771484375,0.2660980224609375,-0.289703369140625
1768421555851737300,10.5807373046875,0.9222869873046875,0.2672271728515625,-0.2876739501953125
1768421555861737200,10.5907373046875,0.921600341796875,0.267242431640625,-0.2879486083984375
1768421555871738000,10.600738037109375,0.919189453125,0.2657928466796875,-0.287353515625
1768421555881738200,10.61073828125,0.91925048828125,0.2662200927734375,-0.2866668701171875
1768421555891738000,10.620738037109374,0.920074462890625,0.264678955078125,-0.28814697265625
1768421555901738200,10.63073828125,0.920501708984375,0.2650909423828125,-0.28643798828125
1768421555911738000,10.640738037109376,0.9228515625,0.266876220703125,-0.2868804931640625
1768421555921738200,10.65073828125,0.9208526611328125,0.2666778564453125,-0.2880096435546875
1768421555931738400,10.66073828125,0.9205474853515625,0.26531982421875,-0.2871246337890625
1768421555941738200,10.67073828125,0.920928955078125,0.265533447265625,-0.2881927490234375
1768421555951738400,10.68073828125,0.922698974609375,0.2660369873046875,-0.2877349853515625
1768421555961739300,10.6907392578125,0.9239044189453125,0.2664794921875,-0.2880859375
1768421555971739400,10.700739501953125,0.923126220703125,0.2656097412109375,-0.287139892578125
1768421555981739300,10.7107392578125,0.923187255859375,0.265472412109375,-0.2892303466796875
1768421555991739400,10.720739501953124,0.922210693359375,0.2657012939453125,-0.2895660400390625
1768421556001739300,10.7307392578125,0.92083740234375,0.2646484375,-0.2873382568359375
1768421556011739100,10.7407392578125,0.9200897216796875,0.2648162841796875,-0.2889251708984375
1768421556021739300,10.7507392578125,0.9207763671875,0.2652435302734375,-0.2879638671875
1768421556031739100,10.7607392578125,0.92108154296875,0.265777587890625,-0.2882080078125
1768421556041740300,10.770740234375,0.9243927001953125,0.2657623291015625,-0.288421630859375
1768421556051740200,10.780740234375,0.9231719970703125,0.26593017578125,-0.2884368896484375
1768421556061740000,10.790739990234375,0.920989990234375,0.265716552734375,-0.289276123046875
1768421556071740200,10.800740234375,0.9204864501953125,0.2653350830078125,-0.2879638671875
1768421556081740300,10.810740234375,0.9189300537109375,0.264495849609375,-0.28753662109375
1768421556091740400,10.820740478515624,0.9204864501953125,0.2641143798828125,-0.2877197265625
1768421556101740300,10.830740234375,0.922210693359375,0.264556884765625,-0.2882232666015625
1768421556111740400,10.840740478515626,0.9216461181640625,0.2651824951171875,-0.2878265380859375
1768421556121741300,10.8507412109375,0.921875,0.265350341796875,-0.288970947265625
1768421556131741200,10.8607412109375,0.92193603515625,0.2654571533203125,-0.2871246337890625
1768421556141741300,10.8707412109375,0.9195556640625,0.2642974853515625,-0.2868194580078125
1768421556151741200,10.8807412109375,0.9198150634765625,0.264129638671875,-0.2879638671875
1768421556161741300,10.8907412109375,0.9196624755859375,0.2645416259765625,-0.28753662109375
1768421556171741200,10.9007412109375,0.9281768798828125,0.26776123046875,-0.289031982421875
1768421556181741300,10.9107412109375,0.9320526123046875,0.267578125,-0.289276123046875
1768421556191741200,10.9207412109375,0.925567626953125,0.266815185546875,-0.2877655029296875
1768421556201741300,10.9307412109375,0.9221649169921875,0.2662200927734375,-0.2882537841796875
1768421556211742200,10.9407421875,0.920989990234375,0.2655487060546875,-0.2868499755859375
1768421556221742000,10.9507421875,0.921905517578125,0.2629852294921875,-0.2870330810546875
1768421556231742500,10.960742431640625,0.919464111328125,0.263702392578125,-0.286407470703125
1768421556241742300,10.970742431640625,0.917083740234375,0.2619171142578125,-0.2855224609375
1768421556251742500,10.980742431640625,0.9166412353515625,0.262481689453125,-0.2869415283203125
1768421556261742300,10.990742431640625,0.923004150390625,0.2639617919921875,-0.2868194580078125
1768421556271742500,11.000742431640624,0.9266204833984375,0.2657928466796875,-0.288055419921875
1768421556281742300,11.010742431640624,0.9251708984375,0.2651214599609375,-0.286590576171875
1768421556291743200,11.0207431640625,0.9254608154296875,0.2648773193359375,-0.2872161865234375
1768421556301743400,11.030743408203126,0.925933837890625,0.264556884765625,-0.2869720458984375
1768421556311743200,11.0407431640625,0.9268646240234375,0.2657928466796875,-0.28826904296875
1768421556321743400,11.050743408203125,0.9236297607421875,0.266632080078125,-0.286773681640625
1768421556331743200,11.0607431640625,0.92205810546875,0.2658843994140625,-0.2862548828125
1768421556341743000,11.0707431640625,0.9237823486328125,0.264801025390625,-0.2871551513671875
1768421556351743200,11.0807431640625,0.9214324951171875,0.265106201171875,-0.2874755859375
1768421556361743000,11.0907431640625,0.9227447509765625,0.26483154296875,-0.2879486083984375
1768421556371744300,11.100744140625,0.9213714599609375,0.2653656005859375,-0.2875518798828125
1768421556381744000,11.110744140625,0.9216461181640625,0.26214599609375,-0.28741455078125
1768421556391744300,11.120744140625,0.9236602783203125,0.261993408203125,-0.2867889404296875
1768421556401744400,11.130744384765626,0.9238128662109375,0.26397705078125,-0.2867431640625
1768421556411744300,11.140744140625,0.922515869140625,0.26300048828125,-0.28668212890625
1768421556421744400,11.150744384765625,0.92010498046875,0.2623443603515625,-0.2861175537109375
1768421556431744300,11.160744140625,0.919281005859375,0.2636566162109375,-0.28497314453125
1768421556441744000,11.170743896484375,0.9196319580078125,0.2623443603515625,-0.28558349609375
1768421556451744800,11.180744873046875,0.92144775390625,0.2623138427734375,-0.2863006591796875
1768421556461745000,11.190744873046874,0.9231109619140625,0.2647857666015625,-0.286346435546875
1768421556471744800,11.200744873046874,0.923431396484375,0.2628173828125,-0.286773681640625
1768421556481745000,11.210744873046876,0.925018310546875,0.2640228271484375,-0.2863616943359375
1768421556491745000,11.2207451171875,0.9239044189453125,0.263153076171875,-0.2859649658203125
1768421556501745000,11.230744873046875,0.9224395751953125,0.2639617919921875,-0.28692626953125
1768421556511745000,11.2407451171875,0.922882080078125,0.26361083984375,-0.2879486083984375
1768421556521745000,11.250744873046875,0.92376708984375,0.263763427734375,-0.287628173828125
1768421556531745800,11.260745849609375,0.923065185546875,0.2649688720703125,-0.286102294921875
1768421556541746000,11.270745849609375,0.9228668212890625,0.2635498046875,-0.286102294921875
1768421556551745800,11.280745849609374,0.9242706298828125,0.2625579833984375,-0.2854461669921875
1768421556561746000,11.290745849609374,0.9236602783203125,0.2632904052734375,-0.285919189453125
1768421556571745800,11.300745849609376,0.9228057861328125,0.2631683349609375,-0.285003662109375
1768421556581746000,11.310745849609376,0.9257049560546875,0.2632293701171875,-0.2875213623046875
1768421556591745800,11.320745849609375,0.9263458251953125,0.2621307373046875,-0.286224365234375
1768421556601746000,11.330745849609375,0.925506591796875,0.2622528076171875,-0.2857818603515625
1768421556611745800,11.340745849609375,0.9237518310546875,0.2630767822265625,-0.285186767578125
1768421556621746700,11.35074658203125,0.923614501953125,0.2636871337890625,-0.2856597900390625
1768421556631747000,11.3607470703125,0.9222869873046875,0.2616729736328125,-0.285125732421875
1768421556641747000,11.370746826171874,0.9224395751953125,0.2621612548828125,-0.285247802734375
1768421556651747000,11.3807470703125,0.9215545654296875,0.26275634765625,-0.2857666015625
1768421556661747000,11.390746826171876,0.9222869873046875,0.2621612548828125,-0.28485107421875
1768421556671747000,11.4007470703125,0.9234161376953125,0.261749267578125,-0.2847442626953125
1768421556681747000,11.410746826171875,0.924560546875,0.262908935546875,-0.2850799560546875
1768421556691747000,11.4207470703125,0.925445556640625,0.262542724609375,-0.2842254638671875
1768421556701748000,11.430748046875,0.923919677734375,0.261932373046875,-0.2842864990234375
1768421556711747800,11.440747802734375,0.9241790771484375,0.262908935546875,-0.2841644287109375
1768421556721748000,11.450748046875,0.9229736328125,0.261199951171875,-0.2857818603515625
1768421556731747800,11.460747802734375,0.923583984375,0.2611083984375,-0.2852783203125
1768421556741748000,11.470748046875,0.9231414794921875,0.26153564453125,-0.2844696044921875
1768421556751747800,11.480747802734374,0.9247589111328125,0.2598419189453125,-0.2850341796875
1768421556761747700,11.490747802734376,0.924530029296875,0.2612762451171875,-0.2844085693359375
1768421556771747800,11.500747802734375,0.92315673828125,0.26153564453125,-0.2846221923828125
1768421556781748700,11.510748779296875,0.92291259765625,0.2625732421875,-0.2856292724609375
1768421556791749000,11.5207490234375,0.92425537109375,0.2621917724609375,-0.285980224609375
1768421556801749000,11.5307490234375,0.925262451171875,0.261016845703125,-0.2849578857421875
1768421556811748900,11.540748779296875,0.9244842529296875,0.26092529296875,-0.2851715087890625
1768421556821749000,11.5507490234375,0.9249725341796875,0.26092529296875,-0.283935546875
1768421556831748900,11.560748779296874,0.9230804443359375,0.26055908203125,-0.284149169921875
1768421556841749000,11.5707490234375,0.92279052734375,0.2617645263671875,-0.2847137451171875
1768421556851748900,11.580748779296876,0.9236297607421875,0.2614593505859375,-0.2855377197265625
1768421556861749800,11.590749755859376,0.924163818359375,0.2607574462890625,-0.28631591796875
1768421556871750000,11.60075,0.9240264892578125,0.2603302001953125,-0.2843475341796875
1768421556881749800,11.610749755859375,0.92401123046875,0.260894775390625,-0.283721923828125
1768421556891750000,11.62075,0.9228668212890625,0.2615203857421875,-0.2839508056640625
1768421556901749800,11.630749755859375,0.921722412109375,0.259796142578125,-0.28338623046875
1768421556911750000,11.64075,0.92047119140625,0.2583770751953125,-0.2835540771484375
1768421556921749800,11.650749755859374,0.92315673828125,0.2597808837890625,-0.2846221923828125
1768421556931750000,11.66075,0.928375244140625,0.2614288330078125,-0.284271240234375
1768421556941751000,11.6707509765625,0.9314727783203125,0.2621917724609375,-0.2857208251953125
1768421556951751000,11.6807509765625,0.927886962890625,0.26275634765625,-0.2859344482421875
1768421556961751000,11.6907509765625,0.9261474609375,0.261627197265625,-0.2839202880859375
1768421556971751000,11.7007509765625,0.9263763427734375,0.261077880859375,-0.2841033935546875
1768421556981751000,11.7107509765625,0.924224853515625,0.2595672607421875,-0.284454345703125
1768421556991751000,11.7207509765625,0.9212493896484375,0.2565765380859375,-0.283599853515625
1768421557001751000,11.7307509765625,0.9172515869140625,0.2570037841796875,-0.2836456298828125
1768421557011751000,11.7407509765625,0.9175567626953125,0.2562408447265625,-0.2830352783203125
1768421557021751800,11.750751708984374,0.9250335693359375,0.2581634521484375,-0.2841796875
1768421557031752000,11.760751953125,0.92657470703125,0.2604217529296875,-0.283935546875
1768421557041751800,11.770751708984376,0.9267120361328125,0.259765625,-0.284881591796875
1768421557051752000,11.780751953125,0.925018310546875,0.2605743408203125,-0.2839813232421875
1768421557061751800,11.790751708984375,0.925506591796875,0.2601470947265625,-0.2848358154296875
1768421557071752000,11.800751953125,0.9264678955078125,0.26116943359375,-0.2842559814453125
1768421557081751800,11.810751708984375,0.9246978759765625,0.260772705078125,-0.2851715087890625
1768421557091752000,11.820751953125,0.923919677734375,0.2592315673828125,-0.2863006591796875
1768421557101753000,11.830753173828125,0.924468994140625,0.2591400146484375,-0.283111572265625
1768421557111753000,11.8407529296875,0.9254302978515625,0.2597808837890625,-0.2847442626953125
1768421557121753000,11.850753173828124,0.9259796142578125,0.2585296630859375,-0.2855377197265625
1768421557131753000,11.8607529296875,0.9259185791015625,0.2593994140625,-0.2854461669921875
1768421557141752800,11.8707529296875,0.92486572265625,0.2590789794921875,-0.285675048828125
1768421557151753000,11.8807529296875,0.9268646240234375,0.258087158203125,-0.28485107421875
1768421557161752800,11.8907529296875,0.92718505859375,0.257781982421875,-0.284576416015625
1768421557171753000,11.9007529296875,0.925628662109375,0.258270263671875,-0.28277587890625
1768421557181753900,11.91075390625,0.9268951416015625,0.2581329345703125,-0.2832183837890625
1768421557191754000,11.92075390625,0.9251556396484375,0.256378173828125,-0.2839202880859375
1768421557201753900,11.93075390625,0.923553466796875,0.25714111328125,-0.283538818359375
1768421557211753700,11.940753662109374,0.920318603515625,0.25689697265625,-0.283447265625
1768421557221753900,11.95075390625,0.921234130859375,0.2572479248046875,-0.283721923828125
1768421557231753700,11.960753662109376,0.923248291015625,0.2570648193359375,-0.285308837890625
1768421557241753900,11.97075390625,0.9255218505859375,0.256378173828125,-0.284820556640625
1768421557251753700,11.980753662109375,0.9305572509765625,0.256927490234375,-0.285736083984375
1768421557261755000,11.9907548828125,0.93170166015625,0.258056640625,-0.2871856689453125
1768421557271755000,12.000755126953125,0.9304351806640625,0.258575439453125,-0.2875518798828125
1768421557281755000,12.0107548828125,0.9265289306640625,0.258270263671875,-0.2869873046875
1768421557291755000,12.020755126953125,0.92388916015625,0.25738525390625,-0.28765869140625
1768421557301755000,12.0307548828125,0.9238433837890625,0.2585906982421875,-0.2877044677734375
1768421557311755000,12.040755126953124,0.92327880859375,0.25897216796875,-0.28955078125
1768421557321755000,12.0507548828125,0.9243011474609375,0.2579193115234375,-0.2904205322265625
1768421557331755000,12.060755126953126,0.924896240234375,0.257232666015625,-0.289947509765625
1768421557341756000,12.070755859375,0.924652099609375,0.2583160400390625,-0.2902679443359375
1768421557351755800,12.080755859375,0.9255828857421875,0.2583465576171875,-0.291473388671875
1768421557361756000,12.090755859375,0.926422119140625,0.2569122314453125,-0.2911834716796875
1768421557371755800,12.100755859375,0.9250335693359375,0.258026123046875,-0.29217529296875
1768421557381756000,12.110755859375,0.92510986328125,0.2580108642578125,-0.292755126953125
1768421557391755800,12.120755859375,0.9241790771484375,0.25836181640625,-0.2935943603515625
1768421557401756000,12.130755859375,0.924468994140625,0.2590484619140625,-0.2957916259765625
1768421557411755800,12.140755859375,0.9243621826171875,0.258697509765625,-0.2950439453125
1768421557421756000,12.150755859375,0.9232177734375,0.2578125,-0.2974853515625
1768421557431757000,12.160757080078126,0.9204559326171875,0.2555084228515625,-0.298828125
1768421557441756000,12.170755859375,0.919952392578125,0.2572174072265625,-0.298095703125
1768421557451756000,12.180756103515625,0.918914794921875,0.2564544677734375,-0.2984619140625
1768421557461756000,12.190755859375,0.917877197265625,0.256683349609375,-0.2994842529296875
1768421557471756000,12.200756103515625,0.9175262451171875,0.2568359375,-0.301849365234375
1768421557481756000,12.210755859375,0.9154052734375,0.2567901611328125,-0.3030853271484375
1768421557491756000,12.220756103515624,0.916961669921875,0.256134033203125,-0.3040618896484375
1768421557501756000,12.230755859375,0.9182586669921875,0.256561279296875,-0.3049468994140625
1768421557511757000,12.240757080078126,0.91888427734375,0.2585296630859375,-0.3060760498046875
1768421557521757200,12.250757080078126,0.91900634765625,0.2574310302734375,-0.3074951171875
1768421557531757000,12.260757080078125,0.9169921875,0.257568359375,-0.30718994140625
1768421557541757200,12.270757080078125,0.913726806640625,0.256866455078125,-0.307525634765625
1768421557551757000,12.280757080078125,0.9159088134765625,0.2560577392578125,-0.3089447021484375
1768421557561757200,12.290757080078125,0.917236328125,0.2574310302734375,-0.3116302490234375
1768421557571757000,12.300757080078125,0.919189453125,0.2582244873046875,-0.3150177001953125
1768421557581757200,12.310757080078124,0.9204254150390625,0.2586669921875,-0.315093994140625
1768421557591758000,12.320758056640624,0.9206695556640625,0.2583465576171875,-0.3150787353515625
1768421557601758000,12.330758056640626,0.919769287109375,0.258026123046875,-0.315673828125
1768421557611758000,12.340758056640626,0.9192657470703125,0.259552001953125,-0.3165740966796875
1768421557621758000,12.350758056640625,0.9195556640625,0.2584381103515625,-0.319427490234375
1768421557631758000,12.360758056640625,0.919921875,0.25762939453125,-0.3212890625
1768421557641758000,12.370758056640625,0.9205474853515625,0.2584228515625,-0.3211212158203125
1768421557651758000,12.380758056640625,0.9209442138671875,0.2587890625,-0.321258544921875
1768421557661758000,12.390758056640625,0.9197540283203125,0.2594757080078125,-0.3242034912109375
1768421557671759000,12.400759033203125,0.916717529296875,0.2583465576171875,-0.3248138427734375
1768421557681759200,12.41075927734375,0.9113006591796875,0.256103515625,-0.3250885009765625
1768421557691759000,12.420759033203124,0.907684326171875,0.2573699951171875,-0.3274078369140625
1768421557701759000,12.430759033203126,0.913177490234375,0.25836181640625,-0.3318634033203125
1768421557711759000,12.440759033203125,0.92108154296875,0.261260986328125,-0.3345489501953125
1768421557721759000,12.450759033203125,0.92279052734375,0.260833740234375,-0.338775634765625
1768421557731759000,12.460759033203125,0.916748046875,0.2608184814453125,-0.3412933349609375
1768421557741759000,12.470759033203125,0.9099273681640625,0.2590179443359375,-0.34088134765625
1768421557751760100,12.480760009765625,0.9099578857421875,0.2569732666015625,-0.3440704345703125
1768421557761760000,12.490760009765625,0.9087066650390625,0.2549285888671875,-0.34759521484375
1768421557771759900,12.500759765625,0.9064483642578125,0.2538604736328125,-0.349365234375
1768421557781760000,12.510760009765624,0.906494140625,0.2531585693359375,-0.3511810302734375
1768421557791760000,12.520759765625,0.913665771484375,0.2560577392578125,-0.3568572998046875
1768421557801760000,12.530760009765626,0.91754150390625,0.25848388671875,-0.363067626953125
1768421557811759900,12.540759765625,0.91534423828125,0.25469970703125,-0.366119384765625
1768421557821760000,12.550760009765625,0.9091339111328125,0.2540740966796875,-0.3684539794921875
1768421557831761200,12.56076123046875,0.90765380859375,0.2553558349609375,-0.37164306640625
1768421557841761000,12.570760986328125,0.9073638916015625,0.25384521484375,-0.3747406005859375
1768421557851761200,12.58076123046875,0.9091949462890625,0.255340576171875,-0.38201904296875
1768421557861761000,12.590760986328124,0.9084930419921875,0.255096435546875,-0.3834686279296875
1768421557871761200,12.60076123046875,0.905487060546875,0.2542266845703125,-0.3903045654296875
1768421557881761000,12.610760986328126,0.906036376953125,0.2523193359375,-0.3945465087890625
1768421557891761200,12.62076123046875,0.90478515625,0.25201416015625,-0.401336669921875
1768421557901761000,12.630760986328125,0.90228271484375,0.2533111572265625,-0.4071044921875
1768421557911761200,12.64076123046875,0.9011688232421875,0.2510833740234375,-0.4088134765625
1768421557921762000,12.650761962890625,0.903656005859375,0.2472991943359375,-0.4112091064453125
1768421557931762000,12.660761962890625,0.9033966064453125,0.246124267578125,-0.4160919189453125
1768421557941762000,12.670761962890625,0.9046783447265625,0.2469940185546875,-0.4239654541015625
1768421557951762000,12.680761962890625,0.904266357421875,0.245513916015625,-0.43402099609375
1768421557961762000,12.690761962890624,0.9068450927734375,0.242523193359375,-0.441131591796875
1768421557971762000,12.700761962890626,0.9049835205078125,0.245086669921875,-0.44830322265625
1768421557981762000,12.710761962890626,0.9024658203125,0.240875244140625,-0.4536285400390625
1768421557991762200,12.72076220703125,0.896759033203125,0.232757568359375,-0.45501708984375
1768421558001763000,12.73076318359375,0.8929290771484375,0.232757568359375,-0.4587860107421875
1768421558011763200,12.74076318359375,0.8923492431640625,0.2294158935546875,-0.470916748046875
1768421558021763000,12.75076318359375,0.8931732177734375,0.226959228515625,-0.4747467041015625
1768421558031763200,12.76076318359375,0.891754150390625,0.2236328125,-0.4759674072265625
1768421558041763000,12.77076318359375,0.8866119384765625,0.218017578125,-0.4850006103515625
1768421558051763000,12.780762939453124,0.8791351318359375,0.215179443359375,-0.4852752685546875
1768421558061763000,12.79076318359375,0.859527587890625,0.2250823974609375,-0.4939117431640625
1768421558071763000,12.800762939453126,0.8536224365234375,0.2276763916015625,-0.509307861328125
1768421558081764000,12.81076416015625,0.85980224609375,0.22344970703125,-0.515899658203125
1768421558091764000,12.820763916015625,0.8626861572265625,0.2169189453125,-0.5170135498046875
1768421558101763800,12.830763916015625,0.861053466796875,0.2060546875,-0.5249481201171875
1768421558111764000,12.840763916015625,0.843414306640625,0.2094268798828125,-0.5344390869140625
1768421558121763800,12.850763916015625,0.8470306396484375,0.1978912353515625,-0.5269927978515625
1768421558131764200,12.86076416015625,0.842803955078125,0.18609619140625,-0.51800537109375
1768421558141764000,12.87076416015625,0.831298828125,0.1801300048828125,-0.5278778076171875
1768421558151764200,12.88076416015625,0.8086090087890625,0.185333251953125,-0.5361785888671875
1768421558161764000,12.89076416015625,0.8061370849609375,0.1870880126953125,-0.5424652099609375
1768421558171765000,12.900764892578126,0.8097076416015625,0.1878662109375,-0.5534515380859375
1768421558181765000,12.91076513671875,0.8459930419921875,0.1849365234375,-0.566162109375
1768421558191765000,12.920764892578125,0.864654541015625,0.1719970703125,-0.5655364990234375
1768421558201765000,12.93076513671875,0.845428466796875,0.166656494140625,-0.56683349609375
1768421558211765000,12.940764892578125,0.8300323486328125,0.15777587890625,-0.5762786865234375
1768421558221765000,12.95076513671875,0.81512451171875,0.167266845703125,-0.598419189453125
1768421558231765000,12.960764892578124,0.8370361328125,0.1737823486328125,-0.608306884765625
1768421558241765000,12.97076513671875,0.8342742919921875,0.1717376708984375,-0.6301727294921875
1768421558251766000,12.98076611328125,0.8513336181640625,0.167999267578125,-0.634490966796875
