time,seconds_elapsed,z,y,x
1768421545332851000,0.061850830078125,-1.0965886378847063,0.32684535149037836,-0.012650807258486748
1768421545342850800,0.071850830078125,-1.0887865858316421,0.20376082361340522,-0.0873665871553123
1768421545352851000,0.081850830078125,-1.1149042659718542,0.2001502319008112,-0.08511208622679114
1768421545362850800,0.091850830078125,-1.1462826431192457,-0.10485036752820015,-0.3011981384061277
1768421545372851000,0.101850830078125,-1.1744028221882878,-0.1083902320921421,-0.30184257378950713
1768421545382850800,0.111850830078125,-1.205561053778976,-0.13490063787698744,-0.1843275166079402
1768421545392851000,0.121850830078125,-1.3107494210898876,-0.12005495092272758,-0.006548983252048492
1768421545402850800,0.131850830078125,-1.4554257491804659,-0.047179099804162974,0.14886545034348964
1768421545412851000,0.141850830078125,-1.6245421065226195,-0.0005336684852838516,0.23797800438329575
1768421545422850800,0.151850830078125,-1.6522937445402144,-0.0038350481182336804,0.23357962329387663
1768421545432850700,0.1618505859375,-1.7779590826906262,-0.05659574744701385,0.34420945100635286
1768421545442850600,0.1718505859375,-1.6564705918334424,-0.18325988737642765,0.3432547806300223
1768421545452850700,0.1818505859375,-1.4083984789371489,-0.3320429201334715,0.2351172081246972
1768421545462851800,0.191851806640625,-1.2833425048567353,-0.4521481399387121,0.027121377290040254
1768421545472851700,0.201851806640625,-1.3199207156695425,-0.45774902868568895,0.024941695163398978
1768421545482851800,0.211851806640625,-1.326892892769724,-0.5787731169015169,-0.3524754673093557
1768421545492851700,0.221851806640625,-1.4255065578654407,-0.4204781594336033,-0.5113423794463277
1768421545502851800,0.231851806640625,-1.6654479712761938,-0.15329904887676238,-0.6593557430051267
1768421545512851700,0.241851806640625,-1.8559072686374187,0.1330903735846281,-0.9512966621138155
1768421545522851600,0.2518515625,-1.8796039321757851,0.12952537457942961,-0.9553142271921038
1768421545532851700,0.261851806640625,-1.6434522664368152,0.509047838768363,-1.0346543058887123
1768421545542851600,0.2718515625,-1.6736662029147147,0.5057008664280176,-1.0484440540492534
1768421545552851700,0.281851806640625,-1.5587679041028022,0.534727054426074,-0.9353945979744195
1768421545562851600,0.2918515625,-1.6108851909615098,0.47143619325459,-0.8173249756500125
1768421545572851700,0.301851806640625,-1.7233904571570455,0.42913259053230285,-0.7764100508071482
1768421545582851600,0.3118515625,-1.9251053080260752,0.43428164385855195,-0.7889104898095131
1768421545592851700,0.321851806640625,-2.1944825131490826,0.5029167886674404,-0.872112212370336
1768421545602851600,0.3318515625,-2.3966122284293174,0.596520370516181,-0.9654618194580078
1768421545612852500,0.3418525390625,-2.5056886892199515,0.6570370907992125,-1.058844159771502
1768421545622852600,0.3518525390625,-2.330881719020754,0.7116074698984622,-1.157190698363632
1768421545632852700,0.361852783203125,-2.124956995371729,0.7653209399074316,-1.2929551134631037
1768421545642852900,0.371852783203125,-1.7948447510398924,0.886724382829666,-1.5842757087163626
1768421545652852700,0.381852783203125,-0.996442940916121,0.9848720378488302,-2.076229350951314
1768421545662852900,0.391852783203125,0.0550797899261117,0.9707458973407744,-2.624085351541638
1768421545672852700,0.401852783203125,0.7070198498472571,0.7782640081107616,-3.003793985952437
1768421545682852900,0.411852783203125,0.7783949410140514,0.3753302731961012,-3.1981670957565305
1768421545692852700,0.421852783203125,0.39929976232647896,-0.26702012060284613,-3.022016748124361
1768421545702852600,0.4318525390625,-0.26876988687962294,-0.97782270385921,-2.398001052439213
1768421545712852700,0.441852783203125,-0.8136230523921549,-1.3698346472650766,-1.6186372663930058
1768421545722852600,0.4518525390625,-0.8830220211803913,-1.236821430569887,-0.9572685761302709
1768421545732852700,0.461852783203125,-0.6398024628818034,-0.4758072479456663,-0.32320114976912734
1768421545742852600,0.4718525390625,0.07664718635082245,1.6664268993109463,1.541489144782722
1768421545752853500,0.481853515625,-0.003032499563694,2.0205074637293814,2.1226123319417236
1768421545762853600,0.491853515625,-0.2644832956016063,1.794085310974717,2.4286111486278474
1768421545772853500,0.501853515625,-0.27872575596570964,1.7962369360506534,2.368504032059014
1768421545782853600,0.511853515625,-0.67006871406883,-0.09649638068079948,0.9333014250874518
1768421545792853500,0.521853515625,-0.6343531114347278,-1.1877601702809333,-0.19690335893407462
1768421545802853600,0.531853515625,-0.251906430362165,-2.385885667231679,-1.0616126746367662
1768421545812853500,0.541853515625,-0.07320815181285142,-3.774451902973652,-1.5117254362903534
1768421545822853600,0.551853515625,-0.10413023656010627,-3.7802164578497406,-1.525046397895366
1768421545832853800,0.561853759765625,0.10385068896636367,-6.151338271191716,-1.3646107751369476
1768421545842854000,0.57185400390625,-0.018936317268759013,-6.506643408969044,-0.8343385812278836
1768421545852853800,0.581853759765625,-0.016690876429527997,-6.5048407434612505,-0.8558551242481917
1768421545862854000,0.59185400390625,-0.4000827293977141,-6.033523208150267,0.007630385280586779
1768421545872854800,0.601854736328125,-0.706992085057497,-5.091756152534485,0.6822133984360843
1768421545882854700,0.611854736328125,-0.8331776476897299,-3.3300644601643086,1.7289473606318235
1768421545892854800,0.621854736328125,-0.7398902921833097,-2.964835309743881,2.1724387313842772
1768421545902854700,0.631854736328125,-0.646175066653639,-2.8590958844214676,2.295302748378366
1768421545912854800,0.641854736328125,-0.47315790248066186,-2.9893887362420557,1.754255551020056
1768421545922854700,0.651854736328125,-0.5101973010644316,-3.094522596886754,0.6134907945394515
1768421545932854500,0.6618544921875,-1.1532532127842305,-3.1950112620741127,-0.8924112693596631
1768421545942854700,0.671854736328125,-2.009816266106069,-3.3185178147554395,-2.4492275279380378
1768421545952854500,0.6818544921875,-2.484394264517724,-3.3218443288296458,-3.680540278089046
1768421545962854700,0.691854736328125,-2.2598773608624936,-3.0745687731385227,-4.383520204895735
1768421545972854500,0.7018544921875,-1.933667969188094,-2.30656487775743,-4.3399213016659015
1768421545982855700,0.711855712890625,-1.82561734431386,-1.0711445461571216,-3.7465591029196976
1768421545992855800,0.721855712890625,-2.094991042305529,0.4058931692421436,-2.681923792526126
1768421546002855700,0.731855712890625,-2.0596765678182245,0.4104237984091043,-2.62511674041599
1768421546012855800,0.741855712890625,-2.681619256621599,1.8451199171632526,-1.36057333631441
1768421546022855700,0.751855712890625,-3.3086335496008394,3.270021202611923,0.03442461297549307
1768421546032855800,0.761855712890625,-3.6119337748527527,4.5249715795904395,1.3233892685629427
1768421546042855700,0.771855712890625,-3.7137761927366255,5.684312295594811,2.2015303858339785
1768421546052855800,0.781855712890625,-3.1505168713092804,6.483412170985341,2.489044428411126
1768421546062855700,0.791855712890625,-1.9556116515792905,6.772964441391825,2.2059530245818197
1768421546072855800,0.801855712890625,-0.8593675893485545,6.539853604653477,1.6039470622614025
1768421546082855700,0.811855712890625,-0.6591089286372065,6.0004866154670715,1.2514046671956778
1768421546092856600,0.821856689453125,-1.0297077893972397,5.61469340044558,1.089078700646013
1768421546102856700,0.831856689453125,-1.5735601073041556,5.505834966319799,0.9984507736071944
1768421546112856600,0.841856689453125,-2.4977976437091827,5.492680301192403,0.6895363617353141
1768421546122856700,0.851856689453125,-2.962983544397354,5.775115433070063,0.623232728613913
1768421546132856600,0.861856689453125,-2.355231439640373,6.402438353607058,1.0775652268543838
1768421546142856700,0.871856689453125,-1.811881079906225,6.7089388362050055,1.1483417676061392
1768421546152856600,0.881856689453125,-1.2039585870184004,6.85456895788908,0.7024608713686465
1768421546162856700,0.891856689453125,1.3088637534737586,7.071645190149545,0.011399638153612612
1768421546172856600,0.901856689453125,6.116979489994049,7.298541390156745,-0.3231697317175567
1768421546182856700,0.911856689453125,12.36170857706666,6.870360985782742,-0.7313545190282166
1768421546192857900,0.92185791015625,18.415710509622095,2.255680493694544,-2.7128166511788963
1768421546202857700,0.931857666015625,-5.116469738030434,-16.20511068214774,-8.09777979723513
1768421546212857600,0.941857666015625,-5.418807840251922,-22.459547508764267,-4.679970125861465
1768421546222857700,0.951857666015625,-0.6077822076342999,-17.472745768654345,3.0298963954582807
1768421546232857600,0.961857666015625,3.837158242255449,-9.32821883329153,7.403020001763105
1768421546242857700,0.971857666015625,7.464466111850738,-4.764236847305297,5.958362460964918
1768421546252857600,0.981857666015625,8.034959476184845,-1.9265987614542244,4.018161290615796
1768421546262857700,0.991857666015625,5.052888369479775,-0.5301859038650989,2.7184242619276047
1768421546272857600,1.001857666015625,5.127145445823669,-0.5289993244290352,2.8055390662789343
1768421546282857700,1.011857666015625,-1.2848377118505536,-0.49271279003918167,-0.35273557955026624
1768421546292858600,1.021858642578125,0.36170813668742774,-0.6297387495070695,-0.6174059221565723
1768421546302858500,1.0318583984375,0.32787600971236824,-0.6379407606631518,-0.5981294131480157
1768421546312858600,1.041858642578125,0.953130891803652,-2.9485061062335967,-2.5560534333229064
1768421546322858500,1.0518583984375,-0.5886019986070692,-4.58765453799665,-3.4296213974595067
1768421546332858600,1.061858642578125,-1.3917711692631243,-5.10715187458694,-4.374568836677074
1768421546342858800,1.071858642578125,-1.8297557592928408,-4.2941544067472215,-5.111659707400203
1768421546352859000,1.08185888671875,-1.820817396686226,-4.295162707006931,-5.094893866038322
1768421546362858800,1.091858642578125,-2.0391807461477813,-0.9590753332912921,-3.1444097866058347
1768421546372859000,1.10185888671875,-1.6065762417212128,0.18597849868535996,-1.6006987279899418
1768421546382859800,1.11185986328125,-0.9403893375217914,1.013930959072709,-0.6112364397414028
1768421546392859600,1.121859619140625,-0.6299963775299489,1.630032228371501,0.2831048478327691
1768421546402859800,1.13185986328125,-0.4088927894495427,2.2083546788960695,1.079461708125472
1768421546412859600,1.141859619140625,-0.42447190524488687,2.6860920181214807,1.6621579898200929
1768421546422859000,1.15185888671875,-0.9843060745291411,2.861786438679695,1.7190448291681706
1768421546432859000,1.16185888671875,-1.9360816062010824,2.7896634517550467,1.2733033414013684
1768421546442859300,1.171859375,-2.736353886371851,2.349118655848503,0.44597836526259776
1768421546452859100,1.181859130859375,-2.7185364901304245,2.350498712030053,0.45629108496233817
1768421546462859300,1.191859375,-2.850592844492197,1.8210136499106884,-0.36167525733113287
1768421546472860200,1.201860107421875,-2.280688824353367,1.552408305943012,-0.8340876021414995
1768421546482860000,1.211860107421875,-1.565769307297468,1.4090133959650992,-1.0526095031656324
1768421546492860200,1.221860107421875,-1.218443039444834,1.2857400675177573,-1.190143119894713
1768421546502860000,1.231860107421875,-1.170549653891474,1.2821914351254702,-1.249090691164881
1768421546512860200,1.241860107421875,-1.2136240948557853,1.5363859764248131,-1.108821511992067
1768421546522860000,1.251860107421875,-1.3150525251112877,1.964610219940543,-0.877116012006998
1768421546532860200,1.261860107421875,-1.1631845319509506,2.5040537814944983,-0.7307244044311344
1768421546542860000,1.271860107421875,-0.7696399721503258,3.0863585796535014,-0.5636947902351618
1768421546552861000,1.28186083984375,-0.3938591787077486,3.596792319822311,-0.511013585883379
1768421546562861000,1.291861083984375,-0.20673136385679244,4.03197412739098,-0.3767401399940252
1768421546572861000,1.30186083984375,-0.238774853849411,4.265013067936897,-0.18979528049454092
1768421546582861000,1.311861083984375,-0.36358094482198355,4.341142952415347,0.011383563801646231
1768421546592861200,1.321861083984375,-0.5907260050237179,4.084154981005192,0.18086816993430255
1768421546602861000,1.331861083984375,-0.8071826440811157,3.619821897754073,0.3848154560305178
1768421546612861200,1.341861083984375,-0.7838578825950622,3.3540812955677506,0.6400817182146012
1768421546622861000,1.351861083984375,-0.784381468077749,3.3770880771458147,0.8612601250968873
1768421546632861200,1.361861083984375,-0.8542636172730476,3.619955753266811,0.9886343860570341
1768421546642862000,1.371862060546875,-0.8501414958417415,4.067332441020012,1.0911253309775144
1768421546652862000,1.381862060546875,-0.5344086361266672,4.781332943534851,1.381542328454554
1768421546662862000,1.391862060546875,0.9071347181737422,5.3236535218298435,1.7692542365789412
1768421546672862000,1.401862060546875,2.6954607349693775,5.0689317417860025,1.8092494162283836
1768421546682862000,1.411862060546875,7.545337053376436,0.7202543022125959,2.3725603217124935
1768421546692862000,1.421862060546875,6.6800435811102385,-3.1543337992489335,2.52231804472059
1768421546702862000,1.431862060546875,4.127298541682959,-7.16973614654541,2.299582909915596
1768421546712862000,1.441862060546875,0.4613968106035143,-10.325132606589793,1.2055040628947318
1768421546722862800,1.45186279296875,0.5114215821623802,-10.3250075189054,1.2484275510810314
1768421546732863000,1.461863037109375,-4.155250378447771,-7.5808198701679705,-3.2918618630200625
1768421546742862800,1.47186279296875,-1.427887607783079,-3.615679975643754,-4.111148786392808
1768421546752863200,1.48186328125,-0.31221082306876774,-1.6486305458575485,-4.239273062002659
1768421546762863000,1.491863037109375,-0.5042343010067939,-1.2554320230156182,-3.212228938856721
1768421546772863200,1.50186328125,0.21665530343465506,-1.5181313578099012,-1.168162466493994
1768421546782863000,1.511863037109375,2.1884430868543685,-2.5347078629553317,0.4134852318063378
1768421546792863200,1.52186328125,3.80351199324131,-3.937525911411643,1.458403157556057
1768421546802864000,1.531864013671875,3.959235638916492,-5.4940621109396215,1.9218872227624058
1768421546812864000,1.541864013671875,2.650178993219137,-6.724694039219617,1.7099173737302422
1768421546822864100,1.551864013671875,0.5246493125259876,-7.107942830455303,1.3492039471685886
1768421546832864000,1.561864013671875,-0.8174234675884247,-6.403275388953089,0.978912691053003
1768421546842864000,1.571864013671875,-0.9119522014580667,-4.815926702532172,0.5932141685776412
1768421546852864000,1.581864013671875,-0.9244155233204364,-4.817807693973183,0.5936370701648295
1768421546862864100,1.591864013671875,-0.5687257701396942,-1.1551929486751555,0.2957936490140855
1768421546872864000,1.601864013671875,-0.5964882218122481,-1.1567390090733767,0.2765226929634809
1768421546882865000,1.611864990234375,-1.1903238832890988,1.26708505140841,0.9334383493401109
1768421546892865000,1.621864990234375,-1.339258891737461,1.9673615644752978,1.2255860430672765
1768421546902865200,1.631865234375,-1.465444162108749,2.3515648799568414,1.4993230508349835
1768421546912865300,1.641865234375,-1.508331994459778,2.3453747931450604,1.492003667732328
1768421546922865200,1.651865234375,-1.5159588360764085,2.5517262177735565,1.696100153040886
1768421546932865000,1.661864990234375,-1.6073836125813423,2.7558190498203037,1.8472898085482417
1768421546942865200,1.671865234375,-1.8981847140051424,3.16006620542109,2.127358649685979
1768421546952866000,1.681865966796875,-2.207786085227877,3.81048709295094,2.35371723568514
1768421546962866200,1.6918662109375,-2.391023030120134,4.4944934392184015,2.5093308451145884
1768421546972866000,1.701865966796875,-2.4716508105397224,5.116868966481089,2.5706165039435027
1768421546982866200,1.7118662109375,-2.4822329948306083,5.583990803667903,2.3964777883946895
1768421546992866000,1.721865966796875,-2.2288484547398983,5.917035009798407,2.0786898958459497
1768421547002866000,1.731865966796875,-1.9660346997857092,6.014990357115864,1.6153000847943126
1768421547012866000,1.741865966796875,-2.0432405429325997,5.956710017582774,1.1034417186498642
1768421547022867000,1.751866943359375,-2.1358291025198994,6.047880819326639,0.7765389378838241
1768421547032867000,1.7618671875,-2.016722099971771,6.260318285870552,0.7341431268334389
1768421547042867000,1.771866943359375,-1.7252644343353807,6.712013421344757,1.018065866920352
1768421547052867000,1.7818671875,-1.3202026013508439,7.226985389465093,1.3402720143027602
1768421547062867200,1.7918671875,-0.728781015278399,7.540587813022732,1.26195163404271
1768421547072867000,1.8018671875,0.6914822351060808,7.687003532126545,0.6577399783715605
1768421547082867200,1.8118671875,4.532843335878849,7.3921385422647,-0.48550695031359786
1768421547092868000,1.8218681640625,9.477872803664207,6.955646236619353,-1.9587008497662841
1768421547102868000,1.831867919921875,14.371702830088138,4.560217080494761,-3.4084628740966316
1768421547112868000,1.8418681640625,12.60954702733755,-2.3560621913760897,-5.880659043559431
1768421547122868000,1.851867919921875,-2.9717326680421827,-13.002304820674658,-7.699111318549513
1768421547132868000,1.8618681640625,-5.237095182317495,-21.76580887303352,-4.977203890681267
1768421547142868000,1.871867919921875,1.2064672088384627,-12.963278632187842,-0.008392857553064823
1768421547152868000,1.8818681640625,7.7098484011411665,-5.505193161284923,-0.08703691680952906
1768421547162868000,1.891867919921875,9.224054694461822,-2.0079162777036426,-2.9234087821170687
1768421547172868900,1.901868896484375,4.9459518433272835,-0.3126613433152437,-3.2841964429587125
1768421547182869000,1.911868896484375,-1.2041060326650739,-0.48335167197585105,-2.2266228876449166
1768421547192868900,1.921868896484375,-2.3207890718124804,-1.6397838070571422,0.005583937612175941
1768421547202869000,1.931868896484375,2.0355739538274706,-2.979301057469845,2.220825599543005
1768421547212869000,1.941869140625,4.705632390384376,-4.160845421975851,3.173122670871019
1768421547222869200,1.951869140625,4.580081764654815,-4.1848727787733075,3.15145035276711
1768421547232869000,1.961869140625,2.1326821827962994,-4.8112972891658545,-0.28085750729739667
1768421547242870000,1.9718701171875,0.47186377101689575,-4.333837013316154,-3.2320939152777193
1768421547252870100,1.9818701171875,-0.29649580593407154,-3.352126654368639,-5.3996185711354014
1768421547262870000,1.9918701171875,-0.619776742941141,-1.9551719449877738,-5.889751866075396
1768421547272870100,2.0018701171875,-0.9915613063544034,-0.31517361839711666,-5.007171743443608
1768421547282870000,2.0118701171875,-1.3886091981008648,0.9757961664676665,-3.5046249082565306
1768421547292870100,2.0218701171875,-1.5297612975880504,1.6944897952347993,-2.007986420330405
1768421547302870000,2.0318701171875,-1.5617764382690191,1.6841560327470302,-2.000701816280186
1768421547312871000,2.041870849609375,-1.0665832295909523,2.2982214123040436,0.2912643350213766
1768421547322871000,2.05187109375,-0.8790008028402924,2.6821926725953817,0.6966055694691836
1768421547332871000,2.061870849609375,-0.9477081361025571,3.0867046166121956,0.6372691450119018
1768421547342871000,2.07187109375,-1.4677180983901024,3.3570307930231094,0.1648890950359404
1768421547352871000,2.081870849609375,-1.4601891641899942,3.353721230083704,0.19207140873298048
1768421547362871300,2.091871337890625,-1.6860674193263052,3.5786546055853363,-0.672007427046448
1768421547372871200,2.10187109375,-1.675879202789068,3.573793137028813,-0.6347897492863237
1768421547382872000,2.1118720703125,-1.6286700001075862,3.372389690196514,-0.5415102848254144
1768421547392872200,2.1218720703125,-1.6162302052512765,3.368519570764899,-0.5074138078257441
1768421547402872000,2.1318720703125,-1.463053905971348,3.101848409730196,-0.3545315230563283
1768421547412872200,2.1418720703125,-1.1719941536113618,2.7818647607028484,-0.26891806317865846
1768421547422872000,2.1518720703125,-0.8252312187299132,2.4050521399945017,-0.27015403471440075
1768421547432872000,2.161871826171875,-0.7000704691007733,1.9981196908324956,-0.3123933400288224
1768421547442871800,2.171871826171875,-0.7582932332277298,1.543131943553686,-0.3635775838211179
1768421547452872700,2.181872802734375,-0.8998758330866694,1.1300322039335966,-0.5073924727767706
1768421547462872800,2.191872802734375,-1.0815528351858257,0.9087439069360495,-0.7170844400048255
1768421547472872700,2.201872802734375,-1.2093792968928814,0.9184171596884727,-1.053613711772114
1768421547482872800,2.211872802734375,-1.2720035108491778,0.9900386268317699,-1.4651421104222535
1768421547492872700,2.221872802734375,-1.3226163844943046,1.0247697484731673,-1.7459125239580868
1768421547502872800,2.231872802734375,-1.5331962404727935,0.9337228653699159,-1.7345689999058842
1768421547512874000,2.2418740234375,-1.964820940081775,0.7615484356313943,-1.4980543460734188
1768421547522873900,2.251873779296875,-2.399205167531967,0.5583545982509851,-1.1296513879224657
1768421547532874000,2.2618740234375,-2.88270296998024,0.5271276853382587,-0.7394026547968388
1768421547542873900,2.271873779296875,-3.4119863720476626,0.9152858759254217,-0.4312365770742297
1768421547552873700,2.281873779296875,-3.9275194811820984,1.703186896431446,-0.23812939555272458
1768421547562873900,2.291873779296875,-4.257394409626722,2.6887217821031806,0.11965163081884383
1768421547572873700,2.301873779296875,-4.013937243179977,3.7795162006258964,0.675452014542371
1768421547582875000,2.311875,-2.857012063884735,4.97484768294394,1.1539175219118594
1768421547592874800,2.321874755859375,0.0702618692278862,5.961549858829379,1.3973404938280582
1768421547602875000,2.331875,4.838877954530716,3.6557103727370497,0.9996037430346012
1768421547612874800,2.341874755859375,5.526238287401199,-0.2557669051826,0.6038740942798555
1768421547622874600,2.35187451171875,4.015369614070654,-5.0248850947886705,1.3402204302459955
1768421547632874800,2.361874755859375,1.4408409051194786,-8.502377665969728,1.885000676652789
1768421547642874600,2.37187451171875,-2.0856208641529084,-8.78600872963369,1.4364005845844745
1768421547652875800,2.381875732421875,-4.191859276659787,-5.344874004513025,1.3087610237516463
1768421547662876000,2.3918759765625,-4.127214662791788,-1.2439584428429602,1.9500360434040427
1768421547672875800,2.401875732421875,-2.6297768411815166,1.3152145838052034,2.290912258334458
1768421547682876000,2.4118759765625,-0.08182868064194918,1.6523381682038307,2.2692153903111816
1768421547692875800,2.421875732421875,1.0331880327284335,-0.2637701788961887,2.57521026147455
1768421547702876000,2.4318759765625,1.416556797081977,-3.589066109484434,2.8312478002920747
1768421547712876800,2.441876708984375,1.804418635071069,-6.816532949483395,2.637562672752142
1768421547722876700,2.451876708984375,1.4652151756584644,-9.627609776145219,2.1953590037226673
1768421547732876800,2.461876708984375,0.5174070863127708,-11.78126314303875,1.4058845964200795
1768421547742876700,2.471876708984375,-0.5844219364434481,-12.458413047540187,0.4082746575511992
1768421547752876800,2.481876708984375,-1.2054922263264656,-11.32157408620119,-0.7266052786745131
1768421547762876700,2.491876708984375,-1.0388844908043742,-9.000866701322794,-1.0448299552053213
1768421547772876800,2.501876708984375,-0.5320727405250072,-6.590639204517006,-0.39008769734501836
1768421547782878000,2.5118779296875,-0.2814963897228241,-3.8850592265933748,0.9484820430845021
1768421547792877800,2.5218779296875,-0.4144239739611745,-1.3544541227817535,2.2126165741242465
1768421547802878000,2.5318779296875,-0.7454571325302124,0.5001864869207143,2.842813442662358
1768421547812877800,2.5418779296875,-0.9193673000201582,1.8003478785008191,2.7780057471871373
1768421547822878000,2.5518779296875,-0.8473848906099796,2.616312379452586,2.279921931634098
1768421547832877800,2.5618779296875,-0.8153906465865671,3.034407443141937,1.6977395908109842
1768421547842878000,2.5718779296875,-0.8085048325955867,3.0336738681703803,1.7117743997737764
1768421547852878800,2.58187890625,-0.9095056850887835,3.089913641786575,1.1573792066730557
1768421547862878700,2.591878662109375,-1.0268027156054973,3.013883126029372,0.6087780868038535
1768421547872878800,2.60187890625,-1.2482824435219169,3.000091332042217,0.19737112257629633
1768421547882878700,2.611878662109375,-1.540325069439411,3.1457664619117973,0.057006374074518674
1768421547892878800,2.62187890625,-1.6849813776552676,3.5665474036842584,0.25956176742091774
1768421547902878700,2.631878662109375,-2.2543651733122765,5.08788486405909,1.1245737923972308
1768421547912879600,2.641879638671875,-2.1954022583425044,5.098153744617104,1.1281501895792783
1768421547922879700,2.651879638671875,-2.134597953289747,5.993260171344876,1.3149433656483889
1768421547932880000,2.6618798828125,-1.8814369928218424,6.726029087215662,1.4861412054397165
1768421547942880000,2.6718798828125,-1.7183201681554316,7.294681207597256,1.832635114121437
1768421547952879900,2.6818798828125,-1.7693441068194806,7.751189296311139,2.178168945599347
1768421547962880000,2.6918798828125,-1.8011070263050495,8.1420397947222,2.3298463846236466
1768421547972880000,2.7018798828125,-1.5258933701135218,8.426577451837062,2.364321777938306
1768421547982880800,2.711880859375,-1.0006570514798163,8.631309166309237,2.3184933620907366
1768421547992881000,2.721880859375,-0.342361558117345,8.823198350343107,2.20182191612646
1768421548002880800,2.731880859375,0.89496511856094,8.998825550884009,2.1708855105929077
1768421548012881000,2.741880859375,2.991454436600208,9.066668084010482,1.6972170282416044
1768421548022880800,2.751880859375,5.4752445977449415,8.53079770476818,0.4451918910600245
1768421548032881000,2.761880859375,7.49765994092226,6.435439290454983,-1.3209820612907408
1768421548042881800,2.7718818359375,6.020057577377558,1.9172247839093208,-3.965480086264014
1768421548052881700,2.781881591796875,0.14532017895206809,-5.568685097986459,-6.715739163869619
1768421548062881800,2.7918818359375,-5.154243880629539,-15.382079311549663,-6.8854866587221615
1768421548072881700,2.801881591796875,-1.1882581829309462,-11.047928994500637,0.16987024444937704
1768421548082881800,2.8118818359375,0.8261550555765629,-8.846613712722062,4.130850096684694
1768421548092882000,2.8218818359375,3.632983284883201,-8.411209786835313,5.694001914960146
1768421548102881800,2.8318818359375,4.079739502650499,-7.71422413200736,5.718306919655204
1768421548112883000,2.841883056640625,0.7713983601249754,-6.1478475064665075,4.902634971909225
1768421548122882800,2.8518828125,-3.167476189416647,-4.694886247703432,3.3884330625027417
1768421548132883000,2.861883056640625,-5.952163021802902,-4.269592796942591,1.597221699529141
1768421548142882800,2.8718828125,-6.313557708626985,-5.947161852514744,-0.47799832824915645
1768421548152882700,2.881882568359375,-4.629152961815893,-9.392351990506052,-3.9845790467485784
1768421548162882800,2.8918828125,-2.3777837554492054,-12.189102770173548,-6.737060768839717
1768421548172883700,2.9018837890625,-1.787290390137583,-12.811340350270271,-7.104266187769174
1768421548182883800,2.9118837890625,-1.812098668179661,-12.81501582391262,-7.106396185535192
1768421548192883700,2.9218837890625,-2.8931624046742916,-7.854234075722098,-5.259785153031349
1768421548202883800,2.9318837890625,-2.8281320063591,-4.688450661697983,-5.124470673656464
1768421548212883700,2.9418837890625,-2.453773793065548,-1.0015320807486772,-1.7649422185987234
1768421548222883600,2.951883544921875,-1.5119010851182042,1.854554684984684,0.08468290102928877
1768421548232883700,2.9618837890625,-0.7103801200605928,3.474863976243138,0.6318633404456079
1768421548242884900,2.971884765625,-0.8601673614241182,4.273333737036586,1.5251974968038498
1768421548252885000,2.981885009765625,-1.572314929548651,4.5118934868305915,2.3404677318811413
1768421548262884900,2.991884765625,-1.9836159491837024,4.303043231123685,2.273416056871414
1768421548272884700,3.001884765625,-1.6419805864490569,4.2867315632700915,1.7072729967013
1768421548282884900,3.011884765625,-1.1323052634321153,4.821949031561613,1.3686910301879047
1768421548292884700,3.021884765625,-0.9292949659250677,5.740426981526613,1.4794059058353304
1768421548302886000,3.031885986328125,-0.9508150160767137,5.739647813847661,1.4593166191391647
1768421548312885800,3.0418857421875,-0.9370891269326209,6.75493953987956,1.9981763894557951
1768421548322885600,3.0518857421875,-0.7350465054139494,7.740075197100639,2.5642437540411946
1768421548332885800,3.0618857421875,-0.40519612688869233,8.476253044632077,2.901326421907544
1768421548342885600,3.0718857421875,-0.07166209141463041,9.170768509954213,2.8493790847882625
1768421548352885800,3.0818857421875,0.05932663371562957,9.309429377147556,2.1609486384682355
1768421548362885600,3.0918857421875,-0.2719735052265227,9.301909503036736,1.2664357937194406
1768421548372886800,3.10188671875,-0.6732745243728161,9.401359472826122,0.7615116107523441
1768421548382887000,3.111886962890625,-0.13989961520805955,9.285630568408966,0.27588629475608467
1768421548392886800,3.12188671875,1.495033683077991,8.948222906371951,-0.38297479659989475
1768421548402887000,3.131886962890625,2.6459993694469333,8.053960529252887,-0.818437320806086
1768421548412886800,3.14188671875,1.9059611932255327,5.466237699946761,-0.08950447596684098
1768421548422887000,3.151886962890625,0.04768646480441093,-0.19203063833117484,1.5868237857639789
1768421548432888300,3.161888427734375,-0.5913080426953733,-6.5641071714222425,2.9112083489745855
1768421548442888200,3.17188818359375,1.162469369418919,-8.72716315743327,3.544121636864543
1768421548452888300,3.181888427734375,3.899418006813526,-6.78207655313015,0.8720344709590077
1768421548462888200,3.19188818359375,5.678118117129802,-6.412070105305314,-0.30206761471703647
1768421548472888300,3.201888427734375,3.2666648779213427,-7.992908386918902,0.3406910676218569
1768421548482888200,3.21188818359375,-0.5127158597566187,-7.424137608593702,-1.1574985952690242
1768421548492889300,3.221889404296875,-0.2937270718730986,-7.723790417253971,-2.018851659346372
1768421548502889500,3.231889404296875,1.0308199884228408,-9.072011198604107,-3.0809359700828787
1768421548512889300,3.241889404296875,1.110000492643565,-10.01851346604824,-4.366117819195986
1768421548522889500,3.251889404296875,0.11854235440269112,-10.087335073339938,-4.763776828578115
1768421548532889300,3.261889404296875,-2.070851018913835,-9.4713214823246,-2.672874809151888
1768421548542889500,3.271889404296875,-1.4812603015303611,-8.721684433761238,-0.5978356908984482
1768421548552889300,3.281889404296875,-0.050141310610622165,-7.281238373178243,1.4420033730275927
1768421548562890200,3.29189013671875,0.5456735419847071,-5.810927335685491,2.9079066770806907
1768421548572890400,3.301890380859375,0.13878537035584448,-4.3334266789495945,3.7386663038432597
1768421548582890200,3.31189013671875,-0.558049916215986,-2.88842777736783,3.902353475743532
1768421548592890400,3.321890380859375,-1.122979655073583,-1.4881448003470896,3.7819302760303017
1768421548602890200,3.33189013671875,-1.2201005973935126,-0.38718671520650383,3.2047710240662095
1768421548612890400,3.341890380859375,-1.2165151401221752,0.7208633740216494,2.8038901300281283
1768421548622891300,3.351891357421875,-1.6100293047845362,1.7747201007694005,2.6061677097961304
1768421548632891400,3.361891357421875,-2.0860906736217437,3.0449703382104634,2.436881256584078
1768421548642891500,3.3718916015625,-2.5827637455940247,4.389554808884859,2.0127315690308807
1768421548652891400,3.381891357421875,-2.847989383995533,5.750498878207803,1.3944050248980522
1768421548662891300,3.391891357421875,-3.3793118906751274,7.393665313440561,1.1613508867830038
1768421548672891400,3.401891357421875,-3.792466867613792,8.949204318624734,1.384486126821488
1768421548682891300,3.411891357421875,-3.747254099446535,8.950493189391493,1.419566792552918
1768421548692892400,3.421892333984375,-2.05929735924229,10.191053806489705,2.3602280788838863
1768421548702892300,3.431892333984375,-0.7819348055779933,10.210620092225074,2.9332112142071125
1768421548712892400,3.441892333984375,-0.18116437640190122,10.168314735937118,2.9714158571779725
1768421548722892300,3.451892333984375,0.050716626280546184,10.24160442855358,2.2744972762368616
1768421548732892200,3.46189208984375,0.23420871497765183,10.40110174754858,1.3508138665832579
1768421548742892300,3.471892333984375,0.4489655643798411,10.643149923980236,0.470881335850805
1768421548752893200,3.48189306640625,0.6138823511403053,10.83359884607792,-0.27667276895865794
1768421548762893300,3.491893310546875,1.1096573782943189,10.315040251642465,-0.7896946259245275
1768421548772893200,3.50189306640625,3.023135523021221,8.939871842133998,-0.9624602995544671
1768421548782893300,3.511893310546875,3.0571815850079056,8.938965248683095,-0.9387517994478345
1768421548792893400,3.5218935546875,5.997156009739637,8.160823990169167,-0.9110691350132226
1768421548802893300,3.531893310546875,10.558317093086242,6.839109522950649,0.38618265273049474
1768421548812893400,3.5418935546875,10.995772106283903,2.2084715832740067,-0.3835983353257179
1768421548822894300,3.551894287109375,1.6582416931591928,-4.645671258157491,-2.4927029509186744
1768421548832894200,3.561894287109375,-6.557393352997303,-11.988601240617037,-4.60954955894053
1768421548842894300,3.571894287109375,-6.093182434821128,-15.637018533736466,-4.714724336117506
1768421548852894200,3.581894287109375,0.8371906827233732,-12.43606560665369,0.420215709105134
1768421548862894300,3.591894287109375,3.1236931617915626,-10.152466009420156,4.061821276383101
1768421548872894200,3.601894287109375,3.3125884247064588,-10.861938805377482,3.2676199866890907
1768421548882895000,3.61189501953125,4.31180053807497,-11.564452283716202,1.8191610077813267
1768421548892895200,3.621895263671875,3.6511645460009574,-11.342827302110194,1.1224551928080617
1768421548902895000,3.63189501953125,1.0919184541165827,-9.55412719130516,0.2380032849550247
1768421548912895200,3.641895263671875,-0.9801404792822896,-7.907838824659586,0.04245864715352654
1768421548922895000,3.65189501953125,-2.518468675816059,-7.980409555351733,-0.7120838552385568
1768421548932895500,3.6618955078125,-2.547603584885597,-9.655910572478174,-2.6080703285470603
1768421548942895400,3.671895263671875,-1.4368286007381974,-11.40046466756463,-4.664925409203767
1768421548952896300,3.681896240234375,-1.2663890319682658,-11.768241164380312,-6.57513476139307
1768421548962896400,3.691896484375,-1.7551567376434802,-10.025846877676248,-6.908961057811975
1768421548972896300,3.701896240234375,-2.077973418139666,-7.012379931232333,-6.134839556333422
1768421548982896400,3.711896484375,-1.9860849696457386,-3.718077689322829,-4.328327309983968
1768421548992896300,3.721896240234375,-1.9187234980344772,-0.6163233876168728,-1.933918875209242
1768421549002896400,3.731896484375,-2.412840748044103,3.3488036474257705,1.0389160549864171
1768421549012896300,3.741896240234375,-2.3708907810650763,4.855904492655396,2.376878331042081
1768421549022897200,3.751897216796875,-2.028930278029293,6.006350539064407,3.375744261321425
1768421549032897300,3.761897216796875,-1.69851656653285,6.618229806753993,3.757424195805192
1768421549042897200,3.771897216796875,-1.556042716922611,6.969413480687141,3.5154189817324277
1768421549052897300,3.781897216796875,-1.5569325053691863,7.569670699644088,2.8783932900875806
1768421549062897200,3.791897216796875,-1.3433799171902239,8.436292790165544,2.5761194852739573
1768421549072897300,3.801897216796875,-0.8825006276547909,9.325446445968746,2.8137562750041485
1768421549082898400,3.8118984375,-0.28687282206416126,10.056371779799461,3.467882739053666
1768421549092898300,3.821898193359375,0.05825856609269976,10.455703106307983,4.0198318541765214
1768421549102898400,3.8318984375,-0.026028759747743605,10.414527046310901,4.042627331091463
1768421549112898300,3.841898193359375,0.04232172290086746,10.08257706515789,3.235615367402136
1768421549122898400,3.8518984375,-0.09736249599084258,9.652422730362415,1.7078861601635813
1768421549132898300,3.861898193359375,-0.3237562994338572,9.458830834063887,0.5817483333200216
1768421549142898400,3.8718984375,-0.6824924345731734,9.2856966193825,0.1547257206790149
1768421549152899300,3.8818994140625,-1.434257873467356,8.810163512203097,0.13272782388255
1768421549162899200,3.891899169921875,-1.8334791637301444,7.996184632110595,0.5766856431029737
1768421549172899300,3.9018994140625,-0.19048399341106415,7.266029698130488,1.2629992433995008
1768421549182899200,3.911899169921875,-0.13488894743919372,7.272428459256887,1.2659776746883988
1768421549192899300,3.9218994140625,6.316020883870125,6.750289083725214,1.017728305529058
1768421549202899200,3.931899169921875,16.44006626996994,1.5337386767864227,0.6645683630868792
1768421549212900400,3.941900390625,21.091032127404212,-14.394688568878173,1.7829023843117058
1768421549222900500,3.951900390625,5.716786578220129,-20.62146698871851,0.509740643338114
1768421549232900400,3.961900390625,-4.379495187163353,-11.413310120612381,-1.506321531420201
1768421549242900500,3.971900390625,-2.8048504994928836,-6.288432035198808,-1.8644030020430682
1768421549252900400,3.981900390625,-2.7261925578415394,-6.298289412346482,-1.7851076392710208
1768421549262900500,3.991900390625,-1.4154947208084165,-5.847113916832209,-2.3849103924587367
1768421549272900400,4.001900390625,-0.012686536158993839,-5.216092726299166,-2.387163432082534
1768421549282901200,4.0119013671875,1.5622972472727297,-4.143859215861559,-0.37497035384252664
1768421549292901400,4.0219013671875,0.7726364505525678,-3.595266717690229,2.461931380558014
1768421549302901200,4.0319013671875,-0.23118775972127914,-3.722997610068321,3.646189095675945
1768421549312901400,4.0419013671875,0.18933496950641274,-4.976867790594697,2.1019043288253245
1768421549322901200,4.0519013671875,1.5593825288698075,-7.557030998301506,0.30301176369935273
1768421549332901000,4.061901123046875,2.643134335404634,-10.368560244905948,-0.1735416264384985
1768421549342901200,4.0719013671875,2.075739959999174,-12.33432840270996,-0.030344869381189344
1768421549352902400,4.08190234375,0.5402162994921207,-12.701216426253318,0.8366592061951756
1768421549362902500,4.091902587890625,-0.9067758217334747,-11.652591170418262,1.472233822248876
1768421549372902400,4.10190234375,-1.6503681833051145,-9.621989598175883,1.5706478731192648
1768421549382902300,4.11190234375,-1.6208767158828674,-7.055845563471317,1.2557890197597443
1768421549392902400,4.12190234375,-1.4097054698824882,-4.1417216193109745,0.8181899219162762
1768421549402902300,4.13190234375,-1.2826993846476078,-1.652221848347783,0.5917278755426406
1768421549412903400,4.1419033203125,-1.232195378204435,0.22687924887239933,1.3355433783456683
1768421549422903300,4.1519033203125,-1.0645160679280756,1.3617892879754303,2.4362385747663677
1768421549432903700,4.161903564453125,-0.9591815701447427,2.109254253196716,3.349706149223447
1768421549442903800,4.17190380859375,-0.8561666013501584,2.9163468809068203,4.169427956882119
1768421549452903700,4.181903564453125,-0.8487970954954623,3.731440444242954,4.792544073379039
1768421549462903800,4.19190380859375,-0.9078359983108937,5.726473274976015,3.093779669564962
1768421549472903700,4.201903564453125,-0.7957692696630955,6.897284064021706,1.9672620496235786
1768421549482904600,4.211904541015625,-0.6405063733674585,7.783927198308706,0.9113459061279893
1768421549492904700,4.22190478515625,-0.3429437419194728,8.530718209791184,-0.005603811356425285
1768421549502904600,4.231904541015625,0.08539733290895819,9.285690774163603,-0.4320993313834071
1768421549512904700,4.24190478515625,0.5124199455499648,10.038476057624816,-0.3379840006202459
1768421549522904600,4.251904541015625,1.0047299269419163,10.741700314581394,0.3880748962178826
1768421549532904700,4.26190478515625,1.3095768701791763,11.262300059455633,1.4530685185298322
1768421549542904600,4.271904541015625,1.203933890968561,11.438586016166209,2.592556240811944
1768421549552905700,4.28190576171875,0.9115092799961566,11.262642589282988,3.5747348017930984
1768421549562905900,4.29190576171875,0.4466144712090492,10.65642090896368,3.9664705586060878
1768421549572905700,4.30190576171875,0.7025122362297028,9.493388937225937,3.208520439727604
1768421549582905900,4.31190576171875,3.398905941200256,8.69417098841369,1.2929068904072045
1768421549592905700,4.32190576171875,6.849983968186378,8.624594763362408,-0.5603939951241016
1768421549602905900,4.33190576171875,11.547701055401562,7.0821607389450065,-1.304351829007268
1768421549612906800,4.34190673828125,11.7003781729877,1.4180541960328816,-3.812670866730809
1768421549622906600,4.35190673828125,2.3157436249911783,-6.197089384019375,-4.978723647594451
1768421549632906800,4.36190673828125,-9.657518592196702,-13.39544372228384,-5.0971431062698365
1768421549642906600,4.37190673828125,-9.6518908154428,-15.452392618703842,-2.400092325630039
1768421549652906800,4.38190673828125,-3.7983974267065523,-13.341913207626343,3.1703841858178374
1768421549662906600,4.39190673828125,-0.0213408941924572,-12.124445296823978,5.89088233141005
1768421549672906800,4.40190673828125,3.296185571438074,-12.005648237007856,4.319460697439313
1768421549682907600,4.41190771484375,3.233464034587145,-12.009112113726138,4.310649614474177
1768421549692907500,4.421907470703125,2.2750819442570207,-10.356479346489905,0.5640256296247244
1768421549702907600,4.43190771484375,-0.8057868058085441,-8.789594771426916,1.8900148515529929
1768421549712907800,4.44190771484375,-0.7987550805408508,-8.796475763112307,1.9299071553498506
1768421549722908000,4.451907958984375,-2.1566341362699863,-8.570165838560461,2.3420197836287318
1768421549732907800,4.46190771484375,-2.21471369253397,-9.631046764856576,0.37429245458096266
1768421549742907600,4.47190771484375,-1.8558054156981407,-11.079243001174927,-2.2948136496871707
1768421549752908800,4.48190869140625,-1.4202011449337004,-11.0500847112298,-4.078923802353441
1768421549762908700,4.49190869140625,-1.5445743974469601,-9.260982449364661,-5.523429075199365
1768421549772908800,4.50190869140625,-2.244560549265146,-6.412471671843528,-6.039245092928409
1768421549782908700,4.51190869140625,-2.714937004333734,-3.6032483640938997,-5.639336258792877
1768421549792908500,4.521908447265625,-2.7919407490372654,-1.1453332334399222,-3.2415488491043445
1768421549802908700,4.53190869140625,-2.4616554862260815,0.6221271054595708,-0.947223567456007
1768421549812908500,4.541908447265625,-1.454275117840618,1.5348708956867456,0.2645484697923064
1768421549822909700,4.55190966796875,-0.1669536263503134,2.3965169513612983,1.4487369190663097
1768421549832909600,4.56190966796875,0.9248068607255816,3.36081498773694,2.4305475235179066
1768421549842909700,4.57190966796875,1.301376174197346,4.349494601175189,2.8652096911266445
1768421549852909600,4.58190966796875,0.8668355871416628,5.241960158005356,2.5133377426683903
1768421549862909700,4.59190966796875,0.1929261258661747,6.16134645498693,1.718468636715412
1768421549872909800,4.601909912109375,-0.44292949908599255,7.266258830711245,1.2594197774775326
1768421549882909700,4.61190966796875,-0.87223978427276,8.104466143131255,0.9567232172071933
1768421549892910600,4.62191064453125,-0.9007819881461561,8.716136151984333,0.7386650612372905
1768421549902910700,4.63191064453125,-0.7542167775690555,9.260435336875915,0.7176623860232532
1768421549912910600,4.64191064453125,-0.5927531269371509,9.615182840770482,0.4161997514620423
1768421549922910700,4.65191064453125,-0.5198034799300134,9.899939693593979,-0.12713862557336686
1768421549932910600,4.66191064453125,-0.5483642423734069,10.203313568603992,-0.6029080987919122
1768421549942910700,4.67191064453125,-0.24125541861876845,10.49054762519598,-0.8311019373942166
1768421549952910600,4.68191064453125,-0.43460020828843116,10.289198538899422,-0.5477040248990058
1768421549962911500,4.691911376953125,-0.8740168769478798,9.907561859035491,-0.08752027987968176
1768421549972911600,4.70191162109375,-0.8601274678051472,9.912557183104752,-0.1452196777196601
1768421549982911500,4.711911376953125,3.222262257093191,9.661675711876153,0.2398881123209372
1768421549992911600,4.72191162109375,8.71701702647209,9.486154309797286,-0.2967212487204
1768421550002911500,4.731911376953125,12.703206138765811,6.624502895674109,-0.2729592283282429
1768421550012911900,4.741911865234375,13.019653430360554,-3.216467307078838,1.5830810921043157
1768421550022911700,4.751911865234375,3.7037422899782655,-17.066305486923454,4.5201808381825686
1768421550032912600,4.76191259765625,-2.5444974355638026,-15.899180108392237,6.5517907106846565
1768421550042912800,4.771912841796875,2.7820938932836055,-9.446199900549649,2.9105025387927888
1768421550052912600,4.78191259765625,2.1211060190320015,-7.871111560764908,-3.982867274394631
1768421550062912800,4.791912841796875,-1.1452009853623806,-6.1410384109735485,-6.359570687261224
1768421550072912600,4.80191259765625,-1.5260205036245285,-4.813768063193559,-7.191267594873905
1768421550082912800,4.811912841796875,-1.8515467353403567,-5.06045091368854,-8.862441396450995
1768421550092912600,4.82191259765625,-2.8743185879945754,-5.735072761017084,-9.852422740137577
1768421550102913500,4.83191357421875,-3.3301439551413057,-6.82926032910943,-9.616112815096974
1768421550112913700,4.84191357421875,-2.94475113761425,-9.12716902220249,-7.57981332347393
1768421550122913500,4.85191357421875,-1.5929953140057622,-11.269621780645847,-4.905377840876579
1768421550132913700,4.86191357421875,0.6077763624154031,-11.426432637035846,-2.011540897941589
1768421550142913500,4.87191357421875,1.3920529088139533,-10.56583638267517,1.2176831609882413
1768421550152913700,4.88191357421875,0.3085081691585481,-9.394952528393269,3.84573551646471
1768421550162913800,4.891913818359375,-1.2177625098347664,-7.1825436056703325,6.464509317594766
1768421550172914700,4.901914794921875,-1.1888589253030717,-7.172078910279273,6.373804379796981
1768421550182914800,4.911914794921875,-2.0303578266143796,-4.570001976928115,7.738314617168903
1768421550192914700,4.921914794921875,-1.6814276306964455,-2.0837761130690575,6.798714968720078
1768421550202914800,4.931914794921875,-0.8794926780104637,-0.07737433158159256,4.7927378423854705
1768421550212914700,4.941914794921875,-0.350622094527632,1.9134604629397391,2.9854639640137552
1768421550222914800,4.951914794921875,-0.34359847950115796,3.433163015589118,1.4859274165585636
1768421550232914700,4.961914794921875,-0.8084159852683543,4.322589643114805,0.3270112095765769
1768421550242915600,4.97191552734375,-1.3667453029476104,5.078692672821879,-0.4012536728732288
1768421550252915700,4.981915771484375,-1.6505637058772147,5.850632154086232,-1.1486452805973588
1768421550262915600,4.99191552734375,-1.3643993243433534,6.578711450836062,-1.9605897322528063
1768421550272915700,5.001915771484375,-0.7665501894414425,7.212282325851917,-2.7183435979068276
1768421550282915600,5.01191552734375,0.027863939285650847,7.744886981296538,-3.368268226352334
1768421550292915500,5.02191552734375,0.5630137491684407,8.201407929491996,-3.743944828768074
1768421550302915600,5.03191552734375,0.5449382134474814,8.820227225577831,-3.856491596017778
1768421550312916700,5.041916748046875,0.24090134448409078,9.643034139770268,-3.5770629524797197
1768421550322916900,5.051916748046875,0.2456067456960678,10.502338600754737,-2.6970646630346775
1768421550332916700,5.061916748046875,0.9739549225151538,11.409507221198082,-1.1829360380601137
1768421550342916600,5.07191650390625,1.928647510677576,12.100550041973591,0.3594018325064331
1768421550352916700,5.081916748046875,2.257210625871271,12.363463311779498,1.3274506727829576
1768421550362916600,5.09191650390625,1.9886486826539038,12.09892740920782,1.1838308680079876
1768421550372916700,5.101916748046875,2.9912393325448035,11.35094631115794,-1.099761495767161
1768421550382917600,5.111917724609375,6.698524994218349,10.332200645279883,-4.675831710882485
1768421550392917800,5.121917724609375,11.212498794454335,7.214703415518999,-4.628415002930164
1768421550402917600,5.131917724609375,2.2800655778884886,-1.4763094011247158,-3.325650150853395
1768421550412917500,5.14191748046875,-12.549375174969434,-13.172494214075803,-4.147072624950111
1768421550422917600,5.151917724609375,-5.934483572727442,-19.06498573424816,-1.7585627466946838
1768421550432918000,5.16191796875,-6.069544369602203,-19.070687160760162,-2.0709606167681516
1768421550442918100,5.171918212890625,8.841481610530614,-20.399914487826823,4.566552128735184
1768421550452919000,5.1819189453125,8.893366111546754,-17.53100155826807,-2.354660069493204
1768421550462919000,5.1919189453125,3.939038069540262,-10.181003537118434,-9.394514721497893
1768421550472919000,5.2019189453125,-3.7047313010156153,-4.4579269188433885,-9.390660968679189
1768421550482919000,5.2119189453125,-6.105755500668287,-1.839720103946328,-6.278903743875026
1768421550492919000,5.2219189453125,-3.906207813084125,-2.061348008161783,-3.467874848008156
1768421550502919000,5.2319189453125,-2.7394226262927055,-4.974639008629322,-2.765621481910348
1768421550512919000,5.2419189453125,-1.6227075845718384,-8.711851606532932,-3.1736259442180392
1768421550522920200,5.251920166015625,-0.004323123896121979,-12.348884166806936,-3.268622733990848
1768421550532920000,5.261920166015625,1.2164682322405278,-14.710596931290626,-4.2019183138594025
1768421550542920200,5.271920166015625,2.1174794990979136,-14.198805931293963,-4.892102764239907
1768421550552920000,5.281920166015625,1.5975439172208308,-10.872466044610738,-4.9489533632308245
1768421550562920200,5.291920166015625,-0.18108473529443145,-6.264883986350894,-4.315654583154618
1768421550572920000,5.301920166015625,-2.0530768772922454,-2.1332564755529164,-3.491953058210015
1768421550582920200,5.311920166015625,-3.275173178547621,1.294416710448265,-3.034105537585914
1768421550592920000,5.321920166015625,-3.7797967711329457,3.814705587428808,-2.719411519399285
1768421550602921000,5.3319208984375,-3.7004619531333445,5.583052061513066,-2.392439326658845
1768421550612921000,5.341921142578125,-3.1182337273418903,7.140334110972285,-1.8359094596169887
1768421550622921000,5.3519208984375,-1.9361995334923265,8.420644554656743,-1.326987877576798
1768421550632921000,5.361921142578125,-0.770212949732691,9.13500395361185,-0.6577764379244297
1768421550642921000,5.3719208984375,-0.5753345207549632,8.939733894968033,0.18673402976039796
1768421550652921000,5.381921142578125,-0.6129147482171654,8.932291762268543,0.13791688955877907
1768421550662921000,5.3919208984375,-1.4962369213879108,8.5061823189497,1.007313879020512
1768421550672921900,5.401921875,-2.449509267488867,8.441812430369854,1.431722363640368
1768421550682922200,5.411922119140625,-2.3889877249002454,8.696469913005828,1.0209288551360367
1768421550692922000,5.421922119140625,-1.4871134114727378,9.037266632959247,-0.26597662116559223
1768421550702922000,5.431921875,-0.7612510601200163,9.304092107772826,-1.7258948411934076
1768421550712922000,5.441922119140625,-0.9778536835193633,9.7003599550575,-2.523052496474981
1768421550722922000,5.451921875,-1.6149065554320812,10.002513932883739,-2.5891023009657856
1768421550732922000,5.461922119140625,-2.237916727336496,9.96107133090496,-2.1679680157110095
1768421550742923000,5.471923095703125,-2.7805133460938927,9.650701897919177,-1.578264923994243
1768421550752923100,5.481923095703125,-2.2452714740134776,9.360106255939602,-1.3738495819948613
1768421550762923000,5.491923095703125,1.904253074133396,9.355174060234427,-1.7425439243078231
1768421550772923000,5.5019228515625,8.107865722441673,8.816429002338648,-2.893753940826654
1768421550782923000,5.511923095703125,12.719806560432911,5.648852859678864,-4.378393655662238
1768421550792923000,5.5219228515625,13.37470488563776,-0.9493366140872239,-3.8529076000511644
1768421550802923000,5.531923095703125,2.5005446043297646,-9.808179109263419,-0.7022668831665069
1768421550812924000,5.541923828125,-8.675352306175231,-13.583161758112906,2.0587949626781046
1768421550822923800,5.551923828125,-6.236619430375099,-9.920444721484184,1.517201821874827
1768421550832924200,5.561924072265625,1.132725242409855,-7.159408813798427,-2.7847061216086146
1768421550842924000,5.571924072265625,2.462824530005455,-5.973456569722295,-4.434197960470617
1768421550852924200,5.581924072265625,0.03336684755086899,-5.628872732445597,-4.064866050906479
1768421550862924000,5.591924072265625,-2.6312463292121886,-4.278028032332658,-1.4462358960308133
1768421550872924200,5.601924072265625,1.0802804771624506,-4.661624614092707,-1.2890280031472443
1768421550882925000,5.611925048828125,3.8513317290365694,-6.675425273659825,-1.5985115932092069
1768421550892925000,5.621925048828125,3.057209934319556,-9.724137136486172,-1.385461693855375
1768421550902925000,5.631925048828125,0.8855798889696598,-12.283500717270373,-1.0379149151198566
1768421550912925000,5.641925048828125,-1.3801181408703327,-13.609391593390702,-1.0683728894867002
1768421550922925000,5.651925048828125,-2.1696073073506352,-12.818180425423384,-0.7764965600468218
1768421550932925000,5.661925048828125,-1.4391948914781212,-10.08024482281804,0.11522230660188942
1768421550942925000,5.671925048828125,-1.4642625511087477,-10.084489620780944,0.08551398155856878
1768421550952925000,5.681925048828125,-0.5312510488785803,-4.054405739429593,1.542475525471568
1768421550962925800,5.69192578125,-0.8399722762659192,-1.7229226935148239,1.4304853691913186
1768421550972926000,5.701926025390625,-0.8476455873727798,-1.72442199216187,1.424386175533384
1768421550982926000,5.711926025390625,-1.8648384708508847,1.9763620325326918,0.09150598851498216
1768421550992926200,5.72192626953125,-1.8076294138111173,2.969253710708022,-0.5315658139161765
1768421551002926000,5.731926025390625,-1.4018651316456496,3.7758226068049665,-0.42851168215498325
1768421551012926200,5.74192626953125,-1.0163130319036542,4.450656051057577,0.421274497443065
1768421551022926000,5.751926025390625,-1.0373067200936377,4.444516817650198,0.4549260071542114
1768421551032927000,5.761927001953125,-1.245366117683798,5.257273462471366,2.230563880355656
1768421551042927000,5.771927001953125,-1.5406392499551176,5.087275207728148,2.5824334907263515
1768421551052927000,5.781927001953125,-1.6129875700682401,5.1133513137489555,2.6335367782369254
1768421551062927000,5.791927001953125,-1.7593065507993102,5.431120209336281,1.7984778468452394
1768421551072927000,5.801927001953125,-1.7108113999605177,5.435732671567798,1.8838859934091567
1768421551082927000,5.811927001953125,-3.0023896721124648,6.346116746926307,0.6488381483830511
1768421551092927000,5.821927001953125,-2.7583333707287907,7.048396416509151,0.45171325565278525
1768421551102928000,5.831927978515625,-2.687365106797218,7.051936281073093,0.556672271187231
1768421551112928000,5.841927978515625,-2.0244952181912956,7.828297085911035,0.5703942878738045
1768421551122927900,5.851927978515625,-0.7587434612132609,8.674958922943473,0.7698159132391214
1768421551132928300,5.86192822265625,0.43694282589182254,9.40326735227406,1.3122978195756674
1768421551142928100,5.87192822265625,0.973340151617676,9.803864753195644,2.0608860897384584
1768421551152928000,5.881927978515625,0.9501157817661762,9.701360072010756,2.6580346751555797
1768421551162928000,5.89192822265625,1.2594168548680842,9.344757880160213,2.548054835784435
1768421551172928000,5.901927978515625,3.3783681800842285,9.125658617639541,0.9697432961694895
1768421551182929200,5.91192919921875,8.01906048078537,9.019341684690117,-0.31808526806011794
1768421551192929000,5.921928955078125,12.23524259005785,6.427980791142582,-0.025749796675890682
1768421551202929000,5.931928955078125,2.34434530396685,-0.6640168666839599,-2.578776721784472
1768421551212929000,5.941928955078125,-6.882035641485452,-6.717821230840682,-4.193226181098819
1768421551222929000,5.951928955078125,-6.942651730489731,-10.850835227560996,-5.047257085594534
1768421551232929000,5.961928955078125,-1.1961213175214827,-11.005918237245082,-2.372977378080785
1768421551242929000,5.971928955078125,2.2067221092581746,-8.648391234013438,3.1176886606797574
1768421551252930000,5.981929931640625,1.6112052166961133,-9.850224937832355,5.432366410005092
1768421551262930000,5.991929931640625,2.0556793148756025,-11.601771668285132,5.24756747649312
1768421551272929800,6.0019296875,1.8493829814352094,-12.58211190792322,2.892673159852624
1768421551282930000,6.011929931640625,1.6147019727706908,-12.476226936650276,1.3213209378562867
1768421551292930000,6.021929931640625,0.09346621920466422,-11.065734700304269,2.3424973380126057
1768421551302930200,6.03193017578125,-1.428795954799652,-9.497647763714193,3.5072467811927197
1768421551312930000,6.041929931640625,-1.7814027934037149,-8.397509178262949,3.1335435246765613
1768421551322931000,6.051930908203125,-1.827316987838596,-7.836953855097294,2.2144107640646395
1768421551332931000,6.06193115234375,-0.5210204545043409,-6.758953451696038,-1.7534607473805546
1768421551342931000,6.071930908203125,-0.7958885121285915,-4.16250546414256,-3.89569927855134
1768421551352931000,6.08193115234375,-1.968555158174038,-1.3002309496849775,-4.344370097768307
1768421551362931000,6.091930908203125,-2.99601955255866,1.0059422984063624,-3.40656434699893
1768421551372931000,6.10193115234375,-3.020183687478304,0.9951660528481006,-3.3722111187592145
1768421551382931000,6.111930908203125,-2.6881483661293983,3.7923376882761715,-1.653991780629754
1768421551392931000,6.12193115234375,-2.1619078388892112,4.356521138811111,-0.7410720493137836
1768421551402932000,6.131931884765625,-1.8582313276708124,4.574664708042144,-0.06408990259468555
1768421551412931800,6.141931884765625,-1.708123476050794,4.850454410555958,0.48306028781384225
1768421551422932000,6.151931884765625,-1.7753014077886937,4.842294484975934,0.45095966080650685
1768421551432931000,6.16193115234375,-1.8146257024392485,5.835736782771349,1.6411618174120783
1768421551442931200,6.17193115234375,-1.7012546131946145,6.63367696673274,2.0044747589476404
1768421551452931000,6.18193115234375,-1.734890194684267,6.633451341283321,1.96208888476938
1768421551462931200,6.19193115234375,-1.3593069696404039,7.950302586379647,2.211807449698448
1768421551472932000,6.20193212890625,-1.3725804388418792,7.955618812966346,2.1610803020238873
1768421551482932000,6.211931884765625,-2.17034497397542,8.567173671007156,2.5573311981737614
1768421551492932000,6.22193212890625,-1.9942336431793868,8.622875099962949,2.487841482362151
1768421551502932000,6.231931884765625,-0.6168503341004252,8.768049879094958,2.377185497295111
1768421551512932000,6.24193212890625,0.578180850096792,9.052828359228371,2.170382091115415
1768421551522932000,6.251931884765625,0.6037330783739686,9.062178371375799,2.14599218461588
1768421551532932000,6.26193212890625,2.325097436530888,8.475100951987505,1.3898670892074703
1768421551542933000,6.27193310546875,4.091107284361124,7.189904489827156,0.9792600431859493
1768421551552932900,6.281932861328125,5.8735810679972165,2.97419935041666,0.9032681058734655
1768421551562933000,6.29193310546875,4.641507416476309,-5.332087003654241,1.4899812219940125
1768421551572932900,6.301932861328125,4.632115318752825,-5.346869562244415,1.5723026545889676
1768421551582933000,6.31193310546875,-0.7741117107369005,-9.023012482157348,1.9041897996388375
1768421551592932900,6.321932861328125,0.9482939731664956,-3.34817061021924,-0.16091843783929943
1768421551602933200,6.331933349609375,4.183886105823516,1.7019979789078235,-4.358617818829417
1768421551612933000,6.34193310546875,2.7455799798786638,2.6863836945444346,-3.451933767032623
1768421551622934000,6.35193408203125,0.8246051957860588,0.7114993333488703,-0.7167556464418768
1768421551632934100,6.36193408203125,-1.3004058678604662,-1.4622025498390196,-1.1241682803362607
1768421551642934000,6.37193408203125,-0.951195978218317,-2.203795408156514,-1.7652230813667178
1768421551652934100,6.38193408203125,1.142741463381052,-3.8270793313115834,-1.7241189175620675
1768421551662934000,6.39193408203125,3.3418121811032293,-6.461822270467877,-2.04308666754514
1768421551672934100,6.40193408203125,3.6941082001924515,-7.967431415835023,-2.2956033387601376
1768421551682934000,6.41193408203125,3.0708114664316177,-8.547071378698945,-2.1559302257843314
1768421551692935000,6.421934814453125,2.618669756233692,-9.762379481118916,-1.2654615418598054
1768421551702935000,6.43193505859375,1.8602274699240922,-9.755115043073893,0.2854864822722971
1768421551712935000,6.441934814453125,1.726063037367165,-8.418896834206581,1.761635870529711
1768421551722935000,6.45193505859375,1.8707158384516833,-6.972201065579056,2.624781517112255
1768421551732935000,6.461934814453125,1.4121557856440543,-5.3993561208069325,2.694043269386887
1768421551742935000,6.47193505859375,0.7346364633083343,-3.7255724289923906,2.2552219362720844
1768421551752935200,6.48193505859375,0.4584425639078021,-2.288534131026268,1.935551590977609
1768421551762936000,6.49193603515625,0.4445253899753093,-1.162595918408036,1.8370257502958178
1768421551772936200,6.501936279296875,0.225466167204082,-0.327069807896018,1.9591519545346496
1768421551782936000,6.51193603515625,-0.3817483235448599,0.24580957479178905,2.310337674294412
1768421551792936200,6.521936279296875,-0.7142424945771694,1.3213748600006103,3.159147921532392
1768421551802936000,6.53193603515625,-0.8327399869248271,1.8051941494882107,3.3460020340085026
1768421551812936200,6.541936279296875,-1.2030620765700935,2.531637953990698,3.036017216426134
1768421551822936000,6.55193603515625,-1.25483171903491,2.504063133844733,3.071028908574581
1768421551832936000,6.56193603515625,-2.8773282912045715,4.319871031805873,0.0018405133001506326
1768421551842937000,6.57193701171875,-3.7836125300288197,5.758069605723023,-1.4911273232892155
1768421551852937000,6.58193701171875,-4.365880211047828,7.46705379025638,-1.9926855369545518
1768421551862937000,6.59193701171875,-5.146062912261486,9.263808612701297,-1.537760771909356
1768421551872937000,6.60193701171875,-5.167601374852657,9.244806390589476,-1.496273746266961
1768421551882936800,6.611936767578125,-6.264302387070655,12.472448587155341,0.8670810863353311
1768421551892937000,6.62193701171875,-5.543320939627289,13.346625623100996,2.2197340049140153
1768421551902937000,6.63193701171875,-3.537112634885311,12.973491398644446,2.878072095309198
1768421551912938200,6.641938232421875,-3.658427230480313,12.920890273791551,2.8728724808394905
1768421551922938000,6.651938232421875,-1.2541162642419337,11.136357804059982,2.969389027525484
1768421551932938000,6.66193798828125,1.0226181233972311,5.336767854946851,-0.21437983278334138
1768421551942938000,6.671938232421875,0.9653297175109385,5.291034862297773,-0.14900310524851082
1768421551952938000,6.68193798828125,0.8236261216208338,1.2301666488558054,-4.134925091038644
1768421551962938000,6.691938232421875,0.8209393667548894,1.2080904261261225,-4.063351262429356
1768421551972938000,6.70193798828125,0.382730904841423,0.4674409861385822,-4.325455553939938
1768421551982938000,6.711938232421875,1.4033335967630147,3.6720197025030847,0.8619114286124706
1768421551992939000,6.72193896484375,1.063264022040367,2.613915839704871,2.000840055707097
1768421552002939000,6.73193896484375,0.46860769183039663,0.012487141129374503,2.4988722872033713
1768421552012939000,6.74193896484375,0.6148030461817979,-2.6038515418082473,1.802194383150339
1768421552022939000,6.75193896484375,0.4717243625462055,-2.693946823275089,1.8187685013324022
1768421552032939000,6.76193896484375,0.8219833228498696,-4.407130797585845,0.1479571033269167
1768421552042939000,6.77193896484375,1.0807827275961637,-5.280051111468673,-1.9713179008856414
1768421552052939000,6.78193896484375,0.4563368238002062,-5.3490749633342025,-3.5270533054247495
1768421552062940200,6.791940185546875,-0.6919178500443697,-5.270284919735789,-3.98232834521234
1768421552072940000,6.80193994140625,-1.4965958178281784,-5.420026568391918,-3.6201547829702494
1768421552082940200,6.811940185546875,-1.893980686444044,-4.826683074346184,-2.176961469505727
1768421552092940000,6.82193994140625,-1.7731734558492898,-3.596579553854465,-0.49227644444853064
1768421552102940200,6.831940185546875,-2.181902140778303,-2.9309681114554405,0.5000616914972663
1768421552112940000,6.84193994140625,-2.3952964696556327,-2.693505509248376,1.4324430791303515
1768421552122940200,6.851940185546875,-1.852200815334916,-2.6289596795797348,2.042780085813999
1768421552132941000,6.861941162109375,-1.8131173437029122,-2.710336232540011,2.2224638682693243
1768421552142941000,6.87194091796875,-2.0478338620722294,-2.4786720874786377,2.2351810187622903
1768421552152941000,6.881941162109375,-2.978071223413944,-1.8230577229589222,1.8379852429777384
1768421552162941000,6.89194091796875,-3.674441961213946,-0.8370739244759082,1.7106828051447867
1768421552172941000,6.901941162109375,-3.1493595179677008,-0.23490941059291362,2.062786224271357
1768421552182941000,6.91194091796875,-1.3550427363246678,-0.12204817056655883,2.6609415025129914
1768421552192941000,6.921941162109375,-1.0559937387764453,-0.10241115768253803,3.105087245520949
1768421552202941000,6.93194091796875,-2.8509815515488386,0.034117958179116246,3.7548414858356116
1768421552212942000,6.941942138671875,-4.165049887928366,0.09280863207876681,3.74382266369313
1768421552222942200,6.951942138671875,-4.978137372139096,-0.00038169279396533964,2.6901301875963806
1768421552232942000,6.961942138671875,-5.843094159796833,0.05982932254076004,2.366687045764923
1768421552242942200,6.971942138671875,-5.816681953689455,0.18971359356045722,2.4823873086094856
1768421552252942000,6.981942138671875,-2.4591028791338205,-0.5465615768656135,3.957678472602367
1768421552262942000,6.99194189453125,-2.5909271783053875,-0.7910746821060777,4.008547659096122
1768421552272942000,7.001942138671875,-2.202434056675434,-1.3958461636170745,4.304710287553072
1768421552282942000,7.01194189453125,-5.1932472727626555,-0.32032676337659355,4.5651901927322145
1768421552292943000,7.021943115234375,-8.101701354593038,1.2341373060524463,4.679879232707619
1768421552302943000,7.03194287109375,-9.73410089661777,2.3024761471390724,4.289362496295571
1768421552312943000,7.041943115234375,-8.105244726288317,2.102884133642912,3.7936487708747384
1768421552322943000,7.05194287109375,-8.26018745071888,1.7835539800882338,3.750453772270679
1768421552332942800,7.06194287109375,-5.663583395820856,-0.2148693698659539,2.9297353547900915
1768421552342943000,7.07194287109375,-2.285667635679245,-0.5414068244509399,2.1565034956276414
1768421552352942800,7.08194287109375,-0.9403355615079403,0.6581243015140295,2.5038722874477504
1768421552362944000,7.091944091796875,-1.4326877015411852,3.140843618556857,2.6884070170655847
1768421552372944100,7.101944091796875,-1.5509715511381625,2.915725826399028,2.5487279127404094
1768421552382944000,7.111944091796875,-2.724619024914503,6.444314086306095,2.9339181934326883
1768421552392944000,7.121944091796875,-4.673084165740013,5.886456331661344,1.7369424510389566
1768421552402944000,7.131944091796875,-4.977012167501449,3.748979315803945,-2.4675103497341273
1768421552412944100,7.141944091796875,0.7444201906979083,2.1987179587617516,-5.316875405997037
1768421552422944000,7.151944091796875,0.8096762144625187,2.0582764917619527,-5.151454542171955
1768421552432945000,7.16194482421875,3.0585715780615805,1.4098472164407372,-12.756592861038445
1768421552442945800,7.17194580078125,3.2651001128226516,1.6703848431564867,-14.497730425679682
1768421552452945700,7.181945556640625,4.006229445281624,1.9917681298486887,-13.762248743718862
1768421552462945800,7.19194580078125,6.322957989656925,3.167913996312022,-10.797318741428851
1768421552472945700,7.201945556640625,6.786184572970867,3.0096754452064634,-10.279350514101981
1768421552482945800,7.21194580078125,15.421601174598932,5.576066440409422,-1.2843401375919579
1768421552492946000,7.22194580078125,17.275750201392174,4.92544272378385,1.3500848216563461
1768421552502945800,7.23194580078125,17.775198437166214,4.826245267450809,1.718354654946923
1768421552512947000,7.241947021484375,12.795679839801787,5.29933916478455,8.369695873185991
1768421552522946800,7.25194677734375,13.167697627449035,5.157342431166768,8.578646666657924
1768421552532947000,7.261947021484375,7.219160394927859,7.123326277548074,7.837150838974118
1768421552542946800,7.27194677734375,-0.4347138977959752,11.132954717618226,2.640919581964612
1768421552552946700,7.28194677734375,-4.822054830023646,13.01641751717925,-4.975770058485866
1768421552562946800,7.29194677734375,-0.005800210711359977,13.410690391254425,-9.609467385733128
1768421552572946700,7.30194677734375,4.993085350424051,12.438128968924284,-12.224361130559444
1768421552582946800,7.31194677734375,3.801385210345685,5.314964603939652,-17.495121266591546
1768421552592947700,7.32194775390625,4.169816371677816,-4.019622010818123,-19.30859107699394
1768421552602947600,7.331947509765625,6.627422582513094,-8.761328461885451,-19.279526310551166
1768421552612947700,7.34194775390625,9.290081702598929,-6.674974607282876,-13.493914617908
1768421552622947600,7.351947509765625,7.3509578060925005,1.0504055633805691,-5.107636443233489
1768421552632948000,7.361947998046875,-2.666490661072731,9.392720823818445,-0.254220844784379
1768421552642947800,7.37194775390625,-8.751403280198573,13.559707232767343,0.021146832925081252
1768421552652948000,7.381947998046875,-2.1865724706768987,14.167394893985986,1.2770265997081993
1768421552662947800,7.39194775390625,1.0127613307714463,11.158097342181206,2.329829433488846
1768421552672948700,7.40194873046875,0.006819032365083694,6.342730027097463,3.360783423554897
1768421552682948900,7.411948974609375,0.011204700103402137,2.877043629044294,4.58379318639338
1768421552692948700,7.42194873046875,-1.0013450337439775,0.5549702165096998,4.916474404430389
1768421552702948900,7.431948974609375,-1.229348318210244,-1.254671267776191,4.089740672183036
1768421552712948700,7.44194873046875,-1.3609423157572746,-1.7223840565934776,3.2845389727860685
1768421552722948900,7.451948974609375,-2.4199983647137877,-1.741126750986278,1.6087714136779308
1768421552732948700,7.46194873046875,-4.5272547220915555,-0.2500574414946139,-1.0491185923099517
1768421552742949600,7.47194970703125,-5.333702622157335,0.9270181070342659,-0.8014747878283262
1768421552752949800,7.48194970703125,-5.716571474164724,1.2281807357355952,-0.5530886405467986
1768421552762949600,7.49194970703125,-5.611756177949905,1.6490189606532453,0.7646031470268965
1768421552772949800,7.50194970703125,-5.790480175462365,1.569742010320723,0.5814075570583344
1768421552782950000,7.511949951171875,-3.389512674432993,0.5515986942499875,1.2490028667509554
1768421552792950000,7.521949951171875,-1.6231816318243741,0.6463675204858184,-0.1342974112868309
1768421552802950000,7.531949951171875,-0.10899170511662959,2.1730513103246687,-0.8602782744526862
1768421552812950000,7.541949951171875,0.26739947530925273,3.363950363153219,-1.7596113789647816
1768421552822951000,7.551950927734375,0.1590443145304918,3.322793592378497,-1.8965619351089
1768421552832950800,7.56195068359375,1.2272475465387105,3.3769562674596902,-2.4919810663849113
1768421552842951000,7.571950927734375,1.59265906778872,2.1378221760332585,-2.151436859887838
1768421552852950800,7.58195068359375,1.6523744085609913,2.037984960491955,-0.6054752458661794
1768421552862951000,7.591950927734375,1.2923884194910527,3.665087272891402,0.1852571986734867
1768421552872950800,7.60195068359375,1.1871113509833813,3.691934363284707,0.06343465355634689
1768421552882950700,7.61195068359375,1.4471172089099884,4.08229269426465,-2.5073580837368965
1768421552892950800,7.62195068359375,1.0701695636451243,3.4100577420726417,-2.4007781159371135
1768421552902951700,7.63195166015625,0.9705050743222237,2.930217585349083,-2.079430192819238
1768421552912951800,7.641951904296875,0.5956558626413345,3.001117460219562,-1.7882967907011509
1768421552922951700,7.65195166015625,0.5293827707886696,3.0355700571805238,-1.8703513890534638
1768421552932951800,7.661951904296875,-0.1341933663904667,3.602014730645716,-1.3956710993111132
1768421552942952000,7.671951904296875,-0.24865035117566583,3.422464803703129,-0.9843944834649562
1768421552952951800,7.681951904296875,-0.5037269360065459,3.2097353684753176,-0.5315606993496418
1768421552962952000,7.691951904296875,-0.9169652073144913,3.1211031452983615,-0.1495113470315933
1768421552972951800,7.701951904296875,-0.9285182824641466,3.1241157711178063,-0.1667132417231798
1768421552982953000,7.711952880859375,-1.1797761857897042,3.1271558694660664,0.020833821453154086
1768421552992952800,7.721952880859375,-1.2864409092634916,3.0035405957132575,0.2232552131563425
1768421553002952700,7.73195263671875,-1.3055389929652212,2.8528707262963056,0.3288289265230298
1768421553012952800,7.741952880859375,-1.2337076824635267,2.7305758874922987,0.35026275969594717
1768421553022952700,7.75195263671875,-1.3694149605482815,2.572936179062724,0.20849808126837013
1768421553032952800,7.761952880859375,-1.2181857036828994,2.39620627797693,0.2620382405370474
1768421553042952700,7.77195263671875,-0.7087924124777316,2.0651430165305733,0.36155952199697494
1768421553052952800,7.781952880859375,-0.772983437359333,2.024331405931711,0.23671178383976219
1768421553062953700,7.79195361328125,-0.6711269909501075,1.984871794463694,0.21244214271903036
1768421553072953600,7.80195361328125,-0.9411328493654727,1.9990099176704883,0.06488456010371446
1768421553082953700,7.81195361328125,-0.9320283364117145,1.977408034454286,0.027770634979009626
1768421553092953900,7.821953857421875,-0.918847367799282,1.941875825563073,-0.04452653946876525
1768421553102954000,7.8319541015625,-1.412301916116476,1.9130863689303397,-0.308498086155951
1768421553112953900,7.841953857421875,-0.5904693999141455,1.6847542909011244,0.07440729846954346
1768421553122954000,7.8519541015625,-0.5089104761242866,1.3189701369464397,-0.01601210038512945
1768421553132955000,7.861954833984375,-0.8131219710022211,1.1526093619227409,-0.20808160942196846
1768421553142954800,7.871954833984375,-0.4308849871575832,0.722529261407256,-0.09621171852052211
1768421553152955000,7.881954833984375,-0.10647943003475666,0.22159897038191556,-0.05221709397137165
1768421553162954800,7.891954833984375,-0.0003717559218406677,0.052232291540503496,-0.00974719477146864
1768421553172955000,7.901954833984375,0.06441080511212348,0.0798757930085063,-0.0022562544941902157
1768421553182954800,7.911954833984375,-0.1580354297488928,0.09479133032858371,-0.02544482237994671
1768421553192955000,7.921954833984375,-0.30224107158780095,-0.04595160383582115,0.128308692266047
1768421553202954800,7.931954833984375,-0.48007951843738556,-0.0433940283074975,0.07322539520859718
1768421553212955600,7.94195556640625,0.013247019585967064,-0.055876201000809665,0.15075579413473605
1768421553222955800,7.951955810546875,-0.032303017711639403,-0.03558715394884348,0.07460925078243016
1768421553232955600,7.96195556640625,0.0311310513228178,-0.06113455992043018,0.026890637274086474
1768421553242956000,7.9719560546875,0.10068038836717605,-0.007144903318583965,0.06867313873171806
1768421553252956000,7.981955810546875,0.052447395595908164,-0.05308335541188717,0.09191489810943602
1768421553262956000,7.9919560546875,-0.012579495587944984,-0.06072773268520832,0.12379939814805983
1768421553272956000,8.001955810546875,-0.05329319877028465,-0.040543022790551185,0.04747691370695829
1768421553282955800,8.011955810546874,-0.02736263870000839,0.026016192527115345,0.10692395893186331
1768421553292957000,8.02195703125,0.011636661779880523,0.02882306664139032,0.08580752114504575
1768421553302956800,8.031956787109374,0.03482990584075451,-0.02013999397009611,0.07990881849527358
1768421553312957000,8.04195703125,0.12237316473722457,0.00473784217685461,0.05706687209010124
1768421553322956800,8.051956787109376,0.09164835612773894,0.01921849521100521,-0.009054244071245193
1768421553332956700,8.061956787109375,0.3277110284090042,-0.06710749685019254,-0.05637246008515358
1768421553342956800,8.071956787109375,0.3995417543888092,-0.09867664732933044,-0.0652574850693345
1768421553352956700,8.081956787109375,0.4664133966565132,-0.04884440266788006,-0.08644523452669381
1768421553362956800,8.091956787109375,0.4965069216251373,-0.042785541020333766,-0.11801000109165906
1768421553372957700,8.101957763671875,0.482117161744833,-0.037657822743058206,-0.1533937414228916
1768421553382957800,8.111957763671874,0.46474049500823017,0.011564181065559386,-0.10964490832835436
1768421553392957700,8.121957763671874,0.4423614899396896,0.04790419920831918,-0.13053162901252507
1768421553402957800,8.131957763671876,0.4318950409829616,0.07769318827241659,-0.12560995470136405
1768421553412958000,8.1419580078125,0.3908078283131122,0.10452975727170705,-0.14414280573576688
1768421553422957800,8.151957763671875,0.38672377386987206,0.10097352609485387,-0.1588321330845356
1768421553432957200,8.161957275390625,0.36807226489186284,0.11408493660241364,-0.14970482377707958
1768421553442957000,8.17195703125,0.31780104429125783,0.09958733243346214,-0.12644903587400913
1768421553452957200,8.181957275390625,0.20284780042171477,0.09487608600258826,-0.10919745682179927
1768421553462958000,8.1919580078125,0.11719956149160861,0.07032792020142078,-0.06791852097213268
1768421553472958200,8.201958251953124,0.0635603257626295,0.058555941604077816,-0.044617140361666675
1768421553482958000,8.2119580078125,0.03295008344352245,0.040915363234281535,-0.04241466188132763
1768421553492958000,8.2219580078125,-0.013169278174638747,0.05550882899314165,-0.009231061942875384
1768421553502958000,8.2319580078125,-0.09576806640624999,0.04843319151848555,0.015195815566182136
1768421553512958000,8.2419580078125,-0.13919161306917666,0.06500058769881725,0.05792348891943693
1768421553522958000,8.2519580078125,-0.1926853028476238,0.04703063124418259,0.06530950751751662
1768421553532959200,8.261959228515625,-0.20531448279619216,0.05027735808044672,0.06784545573592185
1768421553542959000,8.271958984375,-0.18814707489609717,0.08675678469389676,0.07562251947820187
1768421553552959200,8.281959228515625,-0.17906068212091922,0.08446428984254598,0.05935206041783094
1768421553562959000,8.291958984375,-0.16705986320376395,0.09055383888930081,0.05624240396469831
1768421553572959200,8.301959228515624,-0.14969254881739616,0.0895849938571453,0.04728869765847921
1768421553582959000,8.311958984375,-0.09617430911958218,0.10420651666671037,0.027912673798203468
1768421553592959200,8.321959228515626,-0.08884966531991959,0.11100509076565504,0.010933481946587562
1768421553602959000,8.331958984375,-0.07554945424199104,0.10112754761278629,-0.00743921009004116
1768421553612959200,8.341959228515625,-0.048749125599861144,0.10309592507630586,-0.027292788334190844
1768421553622960000,8.351960205078125,-0.01637245813012123,0.095406247356534,-0.04333849872797727
1768421553632960000,8.3619599609375,0.018586627048254013,0.08907704433500767,-0.05816548098176717
1768421553642960100,8.371960205078125,0.028614100065827368,0.08155190952718258,-0.059413435216248034
1768421553652960000,8.3819599609375,0.03491056986153126,0.08399784137457608,-0.07115180380493402
1768421553662960000,8.391960205078124,0.13153612987995147,0.07887713735997677,-0.056142450721561904
1768421553672960000,8.4019599609375,0.12771569480895995,0.08255904074311256,-0.06458090098202228
1768421553682960100,8.411960205078126,0.18117314423024652,0.0906698664844036,-0.08722060281336307
1768421553692960000,8.4219599609375,0.1289899525284767,0.054524201869964595,-0.062170040448009965
1768421553702961200,8.431961181640625,0.09318623321950435,0.03775602242052555,-0.0585477582976222
1768421553712961300,8.441961181640625,0.12335749959945679,0.06808598649352789,0.002431318800151348
1768421553722961200,8.451961181640625,0.12218728677630424,0.06948153250515461,0.00005377601385116577
1768421553732961300,8.461961181640625,-0.01680208171904087,0.00013356325179338455,-0.012736731976270675
1768421553742961200,8.471961181640625,-0.025448329511284826,-0.0036006548404693603,-0.017462591454386712
1768421553752961300,8.481961181640624,-0.052667760348320006,0.020393384209275243,-0.020607611481845377
1768421553762961200,8.491961181640624,-0.1001332758784294,0.01818535277098417,0.0031657705545425413
1768421553772961000,8.5019609375,-0.10118541527986526,0.018781272837519646,0.00043751463443040845
1768421553782962200,8.511962158203126,-0.09667524437904357,0.01243891807347536,0.004255027095973491
1768421553792962000,8.521962158203126,-0.09625789574980735,0.01462181507050991,0.009300327786803245
1768421553802962200,8.531962158203125,-0.07978431533277035,0.03256985195428133,0.0029860300734639166
1768421553812962000,8.541962158203125,-0.05932078849673271,0.050074528984725475,0.005148761065304279
1768421553822962000,8.5519619140625,-0.06050269175767898,0.05071107332259416,0.0020350129589438437
1768421553832962000,8.561962158203125,-0.030842882031202314,0.06153378837108612,-0.0024365794971585274
1768421553842962000,8.5719619140625,-0.012271452552080155,0.07697393408715725,-0.014515139825642108
1768421553852962300,8.58196240234375,0.000976151555776596,0.0785991972014308,-0.015432254670560358
1768421553862963200,8.591963134765624,0.002521627432107925,0.07721241901814938,-0.02429097616970539
1768421553872963000,8.601963134765626,0.000353051221370697,0.0784399149864912,-0.030005554424226283
1768421553882963200,8.611963134765626,0.04108487458229065,0.09364391385912894,-0.03623305063694715
1768421553892963000,8.621963134765625,0.05579027628302574,0.08494827396720647,-0.035222412289679046
1768421553902963200,8.631963134765625,0.053774844807386396,0.08637129250764847,-0.04031652055829763
1768421553912963000,8.641963134765625,0.026487609431147575,0.09959434669613837,-0.04236702334731817
1768421553922963200,8.651963134765625,0.016976853764057158,0.08716331966817378,-0.032304186755418775
1768421553932963000,8.661963134765625,0.02342296116352081,0.07509031229764222,-0.03685381288379431
1768421553942964000,8.6719638671875,0.02724105814695358,0.07070347551554441,-0.03277443461567163
1768421553952964000,8.681964111328124,0.01718728164434433,0.08239975852817297,-0.03806903389245272
1768421553962964000,8.6919638671875,0.003280336844921112,0.07240268064886331,-0.04230974020212888
1768421553972964000,8.701964111328126,-0.022665420794487,0.05534370155930519,-0.01483311973363161
1768421553982964000,8.7119638671875,-0.02270107662975788,0.051769350203871724,-0.016555998003482817
1768421553992964000,8.721964111328125,-0.0189531222730875,0.0480886158645153,-0.004431260445713996
1768421554002964200,8.731964111328125,-0.02924479918479919,0.05187485640496015,-0.008055588422715663
1768421554012964400,8.74196435546875,-0.02905190696120262,0.033604455699026585,-0.0060255438998341555
1768421554022964200,8.751964111328125,-0.04530570714771747,0.04006342258006334,-0.017525135296583175
1768421554032965000,8.761965087890625,-0.06549217060804367,0.03651186757832765,0.00005114566534757614
1768421554042965200,8.77196533203125,-0.040703766310214995,0.03878010477125644,-0.017173837640881536
1768421554052965000,8.781965087890624,-0.01758592557311058,0.0422545028835535,-0.014396189621090889
1768421554062965200,8.79196533203125,-0.0002636193722486496,0.042050504744052884,-0.009182254365086556
1768421554072965000,8.801965087890625,0.011504559832811356,0.05229571216553449,-0.02411269699335098
1768421554082965200,8.81196533203125,0.02652443431019783,0.0494914683997631,-0.027257424759864805
1768421554092965000,8.821965087890625,0.030393969219923017,0.05891863743662834,-0.020375848552584647
1768421554102965000,8.831965087890625,0.023932664251327514,0.05819529159814119,-0.031152094110846518
1768421554112966100,8.841966064453125,0.011970423778891563,0.04001169239282608,-0.026327158172428606
1768421554122966000,8.851966064453125,0.005415010786056518,0.047560500337183474,-0.021149755534529684
1768421554132966100,8.861966064453124,0.008438157999515533,0.047775896653532976,-0.02569178287833929
1768421554142966000,8.871966064453124,0.01047346321940422,0.06673427962362766,-0.009711246675252914
1768421554152966100,8.881966064453126,-0.007070376777648925,0.060950727786123746,-0.02543605455160141
1768421554162966300,8.89196630859375,-0.002271452063322067,0.05780863036811351,-0.03583616027384996
1768421554172966100,8.901966064453125,-0.0030488661766052243,0.05903232694417238,-0.0372372592434287
1768421554182966300,8.91196630859375,-0.021284780091047287,0.042293958111107345,-0.02458411389738321
1768421554192967200,8.92196728515625,-0.02440729602575302,0.05232435373812914,-0.02512538116723299
1768421554202967000,8.931967041015625,-0.01910334439873695,0.0516726118311286,-0.018083645962178707
1768421554212967200,8.94196728515625,-0.0218681329369545,0.04797726444453001,-0.013357201962172984
1768421554222967000,8.951967041015624,-0.022700492107868193,0.049284839911758895,-0.014866145220398901
1768421554232967200,8.96196728515625,-0.002159223860502243,0.048243221904337406,-0.015105799195170402
1768421554242967000,8.971967041015626,-0.01221066227555275,0.059680853980779644,-0.0031216391518712043
1768421554252967200,8.98196728515625,-0.023956045126914977,0.034459611223638054,-0.01900719054788351
1768421554262967000,8.991967041015625,-0.03267535815536975,0.023910744680464266,0.0025537761360406876
1768421554272968000,9.001968017578125,-0.03365910849571228,0.024973405475914475,0.000327039997279644
1768421554282968000,9.011968017578125,-0.018075754916667935,0.018365677773952482,-0.007891630032658576
1768421554292968000,9.021968017578125,-0.0030155484288930893,0.03447977722883224,0.0009533552020788192
1768421554302968000,9.031968017578125,0.002336918514966965,0.03428425465673208,-0.008671966755390167
1768421554312968200,9.04196826171875,0.0011579378634691238,0.03564882100820541,-0.011268412989377976
1768421554322968300,9.05196826171875,0.00846270791888237,0.0331090733975172,-0.01797024871557951
1768421554332968200,9.06196826171875,0.022266776865720747,0.04018441861122846,-0.020239070430397986
1768421554342968300,9.07196826171875,0.04052022643685341,0.04310059831887483,-0.020084464390575884
1768421554352968200,9.08196826171875,0.023316578179597855,0.034411388167738914,-0.023099136036634445
1768421554362969000,9.091968994140625,0.022664251750707624,0.03588847498297691,-0.023877719193696974
1768421554372969200,9.10196923828125,0.021944120782613753,0.02741583019196987,-0.015127426505088805
1768421554382969000,9.111968994140625,0.017709844213724135,0.0314753347158432,-0.013177753742039203
1768421554392969200,9.12196923828125,0.016731354570388792,0.03648848670274019,-0.009750409641861916
1768421554402969000,9.131968994140625,0.0012976385951042175,0.043618776974081994,-0.006842413240671158
1768421554412969200,9.14196923828125,-0.0035059622943401335,0.0456333316668868,0.0028059973314404486
1768421554422969000,9.151968994140624,-0.006385317122936249,0.02115355492681265,0.006555997514724731
1768421554432969500,9.161969482421876,-0.012666589349508284,0.027558453533053397,0.012312369084358215
1768421554442971000,9.171970947265624,-0.029341829818487167,0.02137304289638996,0.00037672435790300367
1768421554452970800,9.181970703125,-0.037244565767049785,0.023849662142992018,0.00246259072124958
1768421554462970600,9.191970703125,-0.018470891714096067,0.02174859821051359,0.0034007483541965483
1768421554472970800,9.201970703125,0.0015454758763313293,0.038462417124211785,0.002971417026221752
1768421554482970600,9.211970703125,-0.000045592707395553586,0.03180938897579908,-0.00734685563147068
1768421554492970800,9.221970703125,-0.012852467310428618,0.026250585804879663,-0.01310030459165573
1768421554502970600,9.231970703125,0.003606500059366226,0.03156798143535852,-0.006248831261694431
1768421554512970800,9.241970703125,0.01945113492310047,0.031521219684183595,-0.016473288156092166
1768421554522971600,9.2519716796875,0.021158523362874982,0.01878887162208557,-0.02746726811826229
1768421554532971500,9.261971435546876,0.021139234140515325,0.03497019109427929,-0.01844371144622564
1768421554542971600,9.2719716796875,0.029651041898131367,0.02461860068887472,-0.014843933388590812
1768421554552971500,9.281971435546875,-0.002800444373488426,0.02406885785162449,-0.013123977728188038
1768421554562971600,9.2919716796875,0.0004728782087564468,0.02908230209946632,-0.013448387376964091
1768421554572971500,9.301971435546875,-0.009335983622074127,0.02610825472474098,-0.013451017725467682
1768421554582971600,9.3119716796875,0.0030780922710895537,0.029034371304512023,-0.008085691300034522
1768421554592971500,9.321971435546875,0.0037380174845457075,0.02444704351425171,-0.019213819035887716
1768421554602971600,9.3319716796875,-0.011247370201349258,0.028241759622097014,0.004317863199114799
1768421554612972800,9.341972900390624,-0.044475101542472834,0.02852729856520891,0.0027729718446731564
1768421554622972700,9.35197265625,-0.04451952520608902,0.027863573959469794,0.002017477302253246
1768421554632972800,9.361972900390626,0.030392800176143646,0.03910480668097734,-0.012787293119728564
1768421554642972700,9.37197265625,0.030409751310944557,0.038514147311449046,-0.013276245680451392
1768421554652972800,9.381972900390625,0.031232173609733578,0.05137479792833328,-0.01769698473215103
1768421554662972700,9.39197265625,0.029046061742305753,0.024008067575097082,-0.012787000858783721
1768421554672972800,9.401972900390625,0.028809330376982686,0.024093407770991324,-0.013486673560738563
1768421554682972700,9.41197265625,0.0028840310037136076,0.019169979894161224,-0.010432838948071002
1768421554692973600,9.4219736328125,-0.03044482262432575,0.018009996204078196,-0.016473288156092166
1768421554702973700,9.4319736328125,-0.05388590396642685,0.00613601853698492,-0.005989595803618431
1768421554712973600,9.4419736328125,0.003865443256497383,0.0171560097232461,-0.01042465564161539
1768421554722973700,9.4519736328125,0.004456394886970519,0.01694587410390377,-0.008678688757121562
1768421554732973600,9.4619736328125,0.008143558967113494,0.054853579954802986,-0.0053904608666896815
1768421554742973400,9.471973388671875,0.03098550537228584,0.03283347132652998,-0.0002951835542917251
1768421554752973600,9.4819736328125,0.027906244057416915,0.04600625663250685,-0.012974047863483428
1768421554762973400,9.491973388671875,0.028534020566940307,0.03561316517293453,-0.013171031740307808
1768421554772974800,9.501974853515625,0.029682021558284758,0.034710078853368756,-0.010248714552819728
1768421554782974700,9.511974609375,0.04390460817813873,0.04686930320262909,0.0006745382606983184
1768421554792974600,9.521974609375,0.045353637942671776,0.049687867754697794,-0.0046641924187541
1768421554802974700,9.531974609375,0.04394786279797554,0.03765899178683758,-0.006483516800403595
1768421554812974600,9.541974609375,0.02891980501413345,0.04846417117863893,-0.02304448323994875
1768421554822974700,9.551974609375,0.030017537122964857,0.047746378298103805,-0.020133271968364716
1768421554832974600,9.561974609375,0.017230536264181136,0.03812222538441419,-0.019192191725969313
1768421554842974700,9.571974609375,0.014319617253541946,0.0291159121081233,-0.012835808436572551
1768421554852974600,9.581974609375,0.006762918263673782,0.022053718636929988,-0.007550853770971298
1768421554862975500,9.5919755859375,0.00618657968044281,0.029897710135579108,-0.015822423031926155
1768421554872975600,9.6019755859375,-0.0014577975928783415,0.0200467627286911,-0.013611468984186649
1768421554882975500,9.6119755859375,0.0024327801048755642,0.020559388425946235,-0.006394084951281547
1768421554892975600,9.6219755859375,-0.007307108142971992,0.010321195267140865,-0.015529577565193175
1768421554902975500,9.6319755859375,-0.017054595175385476,0.020353344459831713,-0.012356208226084709
1768421554912975600,9.6419755859375,-0.010936989077925681,0.015620762979984283,-0.01106207676231861
1768421554922975500,9.6519755859375,-0.015789105284214018,0.015213643483817577,-0.013969196380674839
1768421554932975600,9.6619755859375,-0.0019639935493469237,0.020368542028963564,-0.007061316688358783
1768421554942976800,9.671976806640625,-0.0040939913153648375,0.016294716718792915,-0.0014396774142980575
1768421554952976600,9.6819765625,0.018514146333932877,0.036054771460592744,-0.019153028759360313
1768421554962976800,9.691976806640625,-0.00013034838140010832,0.015560557225346563,-0.01564911229163408
1768421554972976600,9.7019765625,-0.00566109450161457,0.0051817865520715715,-0.0010164835661649703
1768421554982976800,9.711976806640624,-0.027643209207057953,0.009301789091527462,-0.0032557869255542752
1768421554992976600,9.7219765625,-0.006631985360383987,0.019580314260721206,-0.001474164205789566
1768421555002976800,9.731976806640626,0.004406126004457473,0.012593524113297462,-0.016634908458590506
1768421555012976600,9.7419765625,0.01020809028148651,0.015688567519187926,-0.022299510091543195
1768421555022977500,9.7519775390625,0.010380524238944052,0.013555062621831893,-0.02702712313532829
1768421555032977700,9.761977783203125,-0.0037900399327278136,0.02248275770395994,-0.006797697316110134
1768421555042977500,9.7719775390625,0.0020475801795721052,0.024089900639653203,-0.012612813335657119
1768421555052977700,9.781977783203125,0.009203881675004959,0.03481938444674015,-0.0065527826443314546
1768421555062977500,9.7919775390625,0.02317161675095558,0.03414630749076605,-0.006595745003223419
1768421555072977700,9.801977783203125,0.023633389043807983,0.03351268576234579,-0.005697042597830295
1768421555082977500,9.8119775390625,-0.004316694155335426,0.02961830867230892,-0.0037552608802914615
1768421555092977400,9.821977294921876,0.00708674339056015,0.025982582518458364,-0.01412380242049694
1768421555102977800,9.831977783203126,0.012191957575082778,0.03609685703665018,-0.016606266885995865
1768421555112978700,9.841978759765626,0.012478373301029204,0.040078327888250345,0.0011526771664619444
1768421555122978600,9.851978515625,0.012974047863483428,0.039374271272122854,0.0020920038431882855
1768421555132978700,9.861978759765625,-0.0006026420682668685,0.02277764899730682,0.007690554502606391
1768421555142978600,9.871978515625,0.008130114963650703,0.030879414649307727,-0.013800561815500259
1768421555152978700,9.881978759765625,-0.004243628919124603,0.007077683301270008,-0.00034311434924602505
1768421555162978600,9.891978515625,-0.013920973324775696,0.019126725274324415,-0.011024082839488983
1768421555172978700,9.901978759765624,-0.01344751059412956,0.01851999155282974,-0.010068097288906574
1768421555182978600,9.911978515625,-0.005759878700971603,0.015061667792499064,0.0016828385204076767
1768421555192978700,9.921978759765626,-0.00866962866783142,0.01877805796712637,-0.0019385668471455573
1768421555202979600,9.9319794921875,0.0011339724659919738,0.02520341483950615,-0.009021803106367587
1768421555212979500,9.9419794921875,0.0036298809349536894,0.007715104421973228,-0.004928396312892437
1768421555222979600,9.9519794921875,0.004236030134558678,0.007035597725212573,-0.0036196518018841743
1768421555232979500,9.9619794921875,-0.0009738134682178497,0.01227729777097702,-0.013217793491482733
1768421555242979600,9.9719794921875,0.008859013760089874,0.014865268437564373,-0.003514145600795746
1768421555252979700,9.981979736328125,0.00855856950879097,0.008403086686134337,-0.017587094616889953
1768421555262979800,9.991979736328124,0.014603694891929626,0.02009293995797634,-0.021821663446724412
1768421555272979700,10.001979736328124,0.015282909327745437,0.019191607204079628,-0.020488076755404473
1768421555282980600,10.011980712890624,0.03264087136387825,0.007282265962660312,-0.018088906659185885
1768421555292980700,10.021980712890626,0.02253331884741783,0.01957096191048622,-0.014983634120225905
1768421555302980600,10.031980712890626,0.02323357607126236,0.01871083794981241,-0.01354863288104534
1768421555312980700,10.041980712890625,0.011569441762566565,0.02643324889540672,-0.0009679682493209838
1768421555322980600,10.051980712890625,-0.013565584015846252,0.011926292376220225,-0.015359481695294379
1768421555332980700,10.061980712890625,-0.010689151796698569,0.008863689935207366,-0.02358165885657072
1768421555342980600,10.071980712890625,0.002393032616376877,0.012667758393287657,0.0038870705664157865
1768421555352980700,10.081980712890624,0.009122633132338524,0.012922902198135851,-0.010568155765533447
1768421555362981600,10.091981689453124,0.0032698154509067535,0.0143652099609375,-0.008801730614900588
1768421555372981500,10.1019814453125,0.005108721315860748,0.02300648931711912,-0.018103227445483205
1768421555382981600,10.111981689453126,0.025631869384646414,0.011301146215200423,-0.023877426932752133
1768421555392981500,10.1219814453125,0.015370587611198425,0.019250936175882815,-0.023212241022288797
1768421555402981600,10.131981689453125,-0.01958791304528713,0.013435235634446143,-0.014787527026236057
1768421555412981800,10.141981689453125,-0.04640636186599731,0.012692308312654494,-0.008109072175621986
1768421555422981600,10.151981689453125,-0.005631283885240554,0.01614800172448158,0.005925882917642593
1768421555432982300,10.161982177734375,0.05482815325260162,0.033439328265190124,-0.01827390783727169
1768421555442982100,10.171982177734375,0.10583119525909424,0.04179389963448047,-0.03485854741334915
1768421555452983300,10.1819833984375,0.05864741927981376,0.047538580766320226,-0.03680909695923328
1768421555462983400,10.1919833984375,0.02471358549594879,0.027513737608492374,-0.01701075603365898
1768421555472983300,10.2019833984375,0.012215338450670242,0.014948855067789554,-0.011031389363110065
1768421555482983400,10.2119833984375,-0.016979191851615904,0.002270283019542694,-0.024858839185535907
1768421555492983300,10.2219833984375,-0.049424832904338835,-0.01359481011033058,0.004999123461544514
1768421555502983400,10.2319833984375,-0.0852455033481121,-0.02052168676406145,0.018766075268387795
1768421555512983300,10.2419833984375,0.03185585846602917,0.013246727325022219,-0.009907353769242762
1768421555522983400,10.2519833984375,0.03158288674354553,0.014154197558760642,-0.009939210212230681
1768421555532984300,10.261984375,0.03768997144699097,0.033194413593411444,-0.006228665256500244
1768421555542984200,10.271984130859375,0.039919337934255596,0.039679976220428945,-0.026193302659690377
1768421555552984300,10.281984375,0.040866263395547865,0.04204349048137664,-0.013662906910479068
1768421555562984200,10.291984130859374,0.038706455013155935,0.03360737830847502,-0.013309563428163527
1768421555572984300,10.301984375,0.03875380128622055,0.03385755367726087,-0.012932839070260525
1768421555582984200,10.311984130859376,0.02859831797480583,0.034871406894922255,-0.018317746978998184
1768421555592984300,10.321984375,0.030452421408891674,0.03726005559712648,-0.024319617742300032
1768421555602984200,10.331984130859375,0.025493337696790692,0.02780716759711504,-0.012951543770730494
1768421555612984000,10.341984130859375,0.031032267123460768,0.038272155249118804,-0.01364887838512659
1768421555622985500,10.3519853515625,0.030574001961946484,0.039028234313428396,-0.014403788405656814
1768421555632985300,10.3619853515625,0.028785949501395222,0.01836976942718029,-0.013347265090048313
1768421555642985200,10.371985107421875,0.01985854668021202,0.006047755731642246,-0.010884674368798732
1768421555652985300,10.3819853515625,0.006476502537727356,0.008948153348267079,-0.01537204891592264
1768421555662985200,10.391985107421876,-0.009891863939166069,0.0015554127484560011,-0.0034986557707190513
1768421555672985300,10.4019853515625,-0.010702595800161361,0.0025318565651774403,-0.00517009611427784
1768421555682985200,10.411985107421875,-0.026437925070524212,-0.0029196868389844894,0.000034486791491508485
1768421555692985300,10.4219853515625,-0.023205519020557404,-0.012350655268132687,-0.003834755857288837
1768421555702986200,10.431986328125,-0.02271802776455879,0.00037321722656488416,0.001722293747961521
1768421555712986000,10.441986083984375,-0.021036942809820176,0.004648702588677406,-0.0039998832911252976
1768421555722986200,10.451986328125,-0.022123569002747534,0.0053021980613470075,-0.00684884298145771
1768421555732986000,10.461986083984375,0.0075157824575901025,0.02172989351004362,-0.020547697988152504
1768421555742986200,10.471986328125,-0.009387421548366547,0.02169277637004852,-0.016620587672293186
1768421555752986000,10.481986083984374,-0.00464636450111866,0.007537117506563663,-0.01213087503761053
1768421555762986200,10.491986328125,-0.005537760382890701,0.007907412123680114,-0.014631459681689739
1768421555772986000,10.501986083984375,0.03107493722140789,0.023289982433617115,-0.01946691701412201
1768421555782986200,10.511986328125,0.03328384544253349,0.013383797708153724,-0.028452772024273872
1768421555792987400,10.5219873046875,0.030913024657964704,0.024506957007944582,-0.03299216901957989
1768421555802987300,10.5319873046875,0.021163199537992478,0.029243337880074976,-0.02502601244598627
1768421555812987400,10.5419873046875,0.014661562559008598,0.02746200742125511,-0.02188420728892088
1768421555822987300,10.5519873046875,0.03115852385163307,0.022584172251820564,-0.010291676911711692
1768421555832987400,10.5619873046875,0.02071194863915443,0.027466683596372603,-0.01082943705022335
1768421555842987300,10.5719873046875,0.03476970008611679,0.019472177711129187,-0.021229835033416748
1768421555852987400,10.5819873046875,0.015769231539964675,0.031117022797465324,-0.0022270283997058867
1768421555862987300,10.5919873046875,0.008600070562958717,0.031767887921631335,-0.005855155768990516
1768421555872988200,10.60198828125,-0.015413842231035231,0.017940438099205494,-0.0008516483932733535
1768421555882988300,10.61198828125,-0.015076573100686072,0.02237286758869886,0.005266834487020969
1768421555892988200,10.62198828125,-0.007221767947077751,0.007528641939163207,-0.009724106156826019
1768421555902988300,10.63198828125,-0.0032300679624080657,0.011841244441270828,0.006648059712350368
1768421555912988200,10.64198828125,0.019607202267646787,0.02960691049546003,0.0018824527457356453
1768421555922988300,10.65198828125,-0.00021159692406654356,0.028028116871416566,-0.009546411502361298
1768421555932988200,10.66198828125,-0.0034089316606521606,0.01494943958967924,-0.0013031915530562401
1768421555942988000,10.671988037109376,0.00028407763838768005,0.016990005506575107,-0.011982406477630138
1768421555952989400,10.681989501953124,0.01760813740491867,0.02196516357064247,-0.0075683894276618955
1768421555962989300,10.6919892578125,0.029381577306985852,0.02632394330203533,-0.011146540175378321
1768421555972989400,10.701989501953125,0.021740707165002822,0.0179445297524333,-0.0017599954098463056
1768421555982989300,10.7119892578125,0.022311785051226614,0.01671411117464304,-0.022242519207298753
1768421555992989200,10.7219892578125,-0.0005950432837009429,0.008318623273074626,-0.0035337270841002463
1768421556002989300,10.7319892578125,-0.00784311471581459,0.009852700972557067,-0.018931202702224252
1768421556012989200,10.7419892578125,-0.0009819967746734618,0.013894085317850111,-0.009231061942875384
1768421556022989300,10.7519892578125,0.00215630125105381,0.0188768421664834,-0.011391454847157001
1768421556032989200,10.7619892578125,0.03476970008611679,0.01859101096242666,-0.013156710954010485
1768421556042990000,10.771989990234376,0.0228396083176136,0.020345745675265786,-0.01307546241134405
1768421556052990200,10.781990234375,0.0014689035087823868,0.01844458822906017,-0.02103840411454439
1768421556062990000,10.791989990234375,-0.0033949031352996824,0.014684943434596061,-0.007947451873123646
1768421556072990200,10.801990234375,-0.018674305331707,0.006385024861991405,-0.003876256911456585
1768421556082990000,10.811989990234375,-0.0033802900880575176,0.0024199206233024594,-0.005778583401441574
1768421556092990200,10.821990234375,0.013500117564201355,0.006502221500873566,-0.011045417888462543
1768421556102990000,10.831989990234375,0.007888707423210144,0.01244505555331707,-0.007571604298055172
1768421556112990500,10.841990478515624,0.009976619613170623,0.014041092573106288,-0.01934007576406002
1768421556122991400,10.851991455078124,0.01040332059264183,0.015085925450921057,-0.0017895137652754784
1768421556132991200,10.8619912109375,-0.013133037817478179,0.0037850714966654775,0.0006499883413314818
1768421556142991400,10.871991455078126,-0.010814824002981185,0.002167407166957855,-0.011271043337881564
1768421556152991200,10.8819912109375,-0.0124655138194561,0.0060930561780929565,-0.0076852938055992125
1768421556162991400,10.891991455078125,0.07087094103693961,0.037651100741326805,-0.022881693893671035
1768421556172991200,10.9019912109375,0.10862170276045799,0.03624181846529245,-0.02574322080463171
1768421556182991400,10.911991455078125,0.044509003812074656,0.029800679501891133,-0.0116311088219285
1768421556192991200,10.9219912109375,0.010464110869169235,0.02514759299904108,-0.017503800247609613
1768421556202992000,10.9319921875,-0.0016670564293861387,0.01933043115288019,-0.004992109198868274
1768421556212992300,10.9419921875,0.006772270613908767,-0.005180032986402511,-0.007940437610447406
1768421556222992100,10.9519921875,-0.01767009672522545,0.002550561265647411,-0.0027747254103422164
1768421556232992300,10.9619921875,-0.01804652882218361,0.0032411738783121105,-0.0033528175592422486
1768421556242992000,10.9719921875,-0.041537294524908064,-0.013799100510776043,0.005284077882766723
1768421556252992300,10.9819921875,-0.04599953463077545,-0.007760112607479095,-0.008565583771467208
1768421556262992400,10.991992431640625,0.015993687945604323,0.00788666159659624,-0.0076326868355274195
1768421556272992300,11.0019921875,0.05088379954099655,0.027111002026498316,-0.02043751561194658
1768421556282993400,11.011993408203125,0.03626724516749382,0.02133300314694643,-0.006624094314873218
1768421556292993300,11.0219931640625,0.038919805502891536,0.019457856924831866,-0.012896014191210269
1768421556302993400,11.031993408203125,0.04344575849473476,0.016824585811793802,-0.010396598590910433
1768421556312993300,11.0419931640625,0.052395373147726056,0.029517770907282827,-0.023163141183555124
1768421556322993200,11.0519931640625,0.020384616380929945,0.03849719617664814,-0.008738602250814437
1768421556332993300,11.0619931640625,0.004643441891670227,0.03191986361294984,-0.004016249904036521
1768421556342993200,11.0719931640625,0.021231588599085808,0.021902619728446007,-0.013320377083122729
1768421556352993300,11.0819931640625,-0.0021264906346797944,0.025480770476162432,-0.016937983058393
1768421556362993200,11.0919931640625,0.010426701468229294,0.023451602736115455,-0.021985329575836658
1768421556372994300,11.101994384765625,-0.003353402081131935,0.029281331802904605,-0.0185588622584939
1768421556382994200,11.111994140625,-0.0009480945050716399,-0.0018202011644840239,-0.01770750612616539
1768421556392994000,11.121994140625,0.01852349868416786,-0.002765080799162388,-0.011973054127395152
1768421556402994200,11.131994140625,0.01976268509030342,0.017241057658195495,-0.011844459311664104
1768421556412994000,11.141994140625,0.0068336454123258585,0.008088029387593268,-0.011534370449185372
1768421556422994400,11.151994384765626,-0.01703296786546707,0.002167407166957855,-0.006249708044528961
1768421556432994300,11.161994384765626,-0.02530921330153942,0.01547580155134201,0.004744856439530849
1768421556442994000,11.171993896484375,-0.022060440638661385,0.0030009353816509246,-0.0015025135174393653
1768421556452994800,11.181994873046875,0.011854103922843933,0.027281974679231644,-0.009326923532783984
1768421556462994700,11.19199462890625,0.014692542219161987,0.008445464523136615,-0.014070318667590617
1768421556472994800,11.201994873046875,0.02990530892014503,0.020624270355701444,-0.01083294418156147
1768421556482994700,11.21199462890625,0.018599486529827118,0.012637947776913643,-0.00768061763048172
1768421556492994800,11.221994873046874,0.003835632640123367,0.021061200468242166,-0.0179445297524333
1768421556502994700,11.23199462890625,0.007840776628255844,0.017879940083622932,-0.028811960725486276
1768421556512995000,11.2419951171875,0.016203531304001807,0.019739304214715956,-0.026358430093526838
1768421556522995000,11.251994873046876,0.009013327538967133,0.03194207544475794,-0.012039105100929736
1768421556532995800,11.261995849609375,0.006761749219894409,0.018272446532547473,-0.012803367471694945
1768421556542996000,11.271995849609375,0.020191724157333373,0.009016250148415565,-0.007024784070253372
1768421556552995800,11.281995849609375,0.013911036452651022,0.01660509784221649,-0.012248363937437534
1768421556562996000,11.291995849609375,0.005321487283706665,0.015770985105633736,-0.003617605975270271
1768421556572995800,11.301995849609375,0.03355623264312744,0.016800620414316653,-0.028546587787568568
1768421556582996000,11.311995849609374,0.03965747212767601,0.0065481064692139625,-0.01594458810687065
1768421556592995800,11.321995849609374,0.031204116559028622,0.008340542843937874,-0.011780746425688266
1768421556602996000,11.331995849609376,0.013717559707164763,0.016948504452407358,-0.006360767203569412
1768421556612996900,11.341996826171876,0.012042319971323013,0.02357464459389448,-0.011478256347775459
1768421556622996700,11.351996826171876,-0.0013297872990369797,0.004417816442251205,-0.006840659675002097
1768421556632996900,11.361996826171875,-0.00014496142864227294,0.009769406603276728,-0.0085310969799757
1768421556642996700,11.371996826171875,-0.009156535401940346,0.01613806485235691,-0.014206512267887592
1768421556652996900,11.381996826171875,-0.002258592581748962,0.010917699855566024,-0.0055865679606795305
1768421556662997000,11.3919970703125,0.008448679393529892,0.007643208229541778,-0.005026011468470096
1768421556672997000,11.4019970703125,0.01928688427209854,0.019841887806355953,-0.008807283572852612
1768421556682997000,11.4119970703125,0.027566052317619324,0.017000526900589466,-0.001036065049469471
1768421556692998000,11.421997802734374,0.027106618112325665,0.017908873917162418,-0.0016954057410359382
1768421556702998000,11.431998046875,0.011799158865213393,0.012686170832812786,-0.0027101357415318487
1768421556712998000,11.441997802734376,0.014001637345552443,0.02295154425948858,-0.00198942025154829
1768421556722998000,11.451998046875,0.001875146222114563,0.006854980461299419,-0.018233283565938473
1768421556732998000,11.461997802734375,0.007597031000256538,0.006559504646062851,-0.013601239851117133
1768421556742997800,11.471997802734375,0.002955342674255371,0.011477964086830616,-0.005985504150390624
1768421556752998000,11.481997802734375,0.018501286852359772,-0.004365209472179413,-0.011842705745995044
1768421556762997800,11.491997802734375,0.016039865174889565,0.01025426751077175,-0.005906593695282936
1768421556772999000,11.5019990234375,0.0023860183537006375,0.013317454473674297,-0.008130991746485234
1768421556782998800,11.511998779296874,-0.00010813654959201812,0.0239332487732172,-0.017928163139522075
1768421556792999000,11.5219990234375,0.012974047863483428,0.02059182939082384,-0.021284780091047287
1768421556802998800,11.531998779296876,0.02274725385904312,0.009731412680447101,-0.010986673438549041
1768421556812998700,11.54199853515625,0.0150187054336071,0.009441489823162555,-0.012839023306965828
1768421556822999000,11.5519990234375,0.01969078889787197,0.009941548299789427,-0.00063917468637228
1768421556832999000,11.5619990234375,0.0009907646030187607,0.0068920976012945175,-0.0027110125243663785
1768421556842999000,11.5719990234375,-0.0019534721553325653,0.019052783255279062,-0.008266893085837364
1768421556853000000,11.582,0.006165536892414092,0.01640548361688852,-0.016392624135315417
1768421556862999800,11.591999755859375,0.01128127247095108,0.009948562562465667,-0.024026772275567054
1768421556873000000,11.602,0.009728197810053825,0.006323357802629471,-0.004877542908489704
1768421556882999800,11.611999755859374,0.009249474382400513,0.01267506491690874,0.0009326046749949454
1768421556893000000,11.622,-0.002243395012617111,0.019527122768759727,-0.001534077699482441
1768421556902999800,11.631999755859376,-0.013611176723241806,0.003022562691569328,0.003897884221374988
1768421556913000000,11.642,0.0005015197813510895,0.0028518822997808456,-0.008088029387593268
1768421556922999800,11.651999755859375,0.051695700445771216,0.01915828945636749,-0.004453472277522087
1768421556933000700,11.662000732421875,0.08200023781657219,0.027085867585241792,-0.018497487460076806
1768421556943000800,11.672000732421875,0.04660977548360824,0.03348229062408209,-0.020540099203586577
1768421556953000700,11.682000732421875,0.029191023170948027,0.023516484665870665,-0.0009460486784577369
1768421556963000800,11.692000732421874,0.03098550537228584,0.01926262661367655,-0.003171615773439407
1768421556973001000,11.7020009765625,0.009412555989623069,0.00561842440366745,-0.00708674339056015
1768421556983001000,11.7120009765625,-0.02019230867922306,-0.022509645710885522,0.0010036240845918655
1768421556993001000,11.7220009765625,-0.059628247010707854,-0.017354454904794692,0.0006838906109333038
1768421557003001000,11.7320009765625,-0.056660044854879375,-0.024310849913954734,0.007068330951035023
1768421557013001000,11.7420009765625,0.016619710889458655,-0.004807400281727314,-0.003700608083605766
1768421557023001900,11.752001953125,0.031381811213493344,0.018611469228565693,-0.0012915011152625083
1768421557033002000,11.762001953125,0.03221417038440704,0.013613807071745395,-0.010932605163753032
1768421557043001900,11.772001953125,0.015127426505088805,0.02280599830895662,-0.0025099369943141934
1768421557053002000,11.782001953125,0.01956044051647186,0.019679682981967924,-0.011076982070505618
1768421557063001900,11.792001953125,0.028640403550863263,0.03077770784050226,-0.00554565142840147
1768421557073002000,11.802001953125,0.010875029757618903,0.02809416784495115,-0.014753040234744549
1768421557083001900,11.812001953125,0.002747252881526947,0.014274901328980922,-0.026263737547397612
1768421557093001700,11.822001708984375,0.007640870141983031,0.014572715231776237,0.004490589417517185
1768421557103003000,11.8320029296875,0.01660509784221649,0.021892682856321333,-0.012091712071001529
1768421557113002800,11.842002685546875,0.02156242798864841,0.010607610993087291,-0.020375848552584647
1768421557123003000,11.8520029296875,0.02055997294783592,0.02005114664286375,-0.019964637403190134
1768421557133003000,11.8620029296875,0.00982815105319023,0.01780512128174305,-0.022721827156841755
1768421557143003000,11.8720029296875,0.02907061166167259,0.008886486288905144,-0.015080957014858723
1768421557153003000,11.8820029296875,0.028799393504858016,0.009664192663133144,-0.015258651669323444
1768421557163003000,11.8920029296875,0.016636662024259567,0.011950842295587061,0.005398936434090137
1768421557173003000,11.9020029296875,0.016561843222379684,0.01262450377345085,0.005764262615144252
1768421557183004000,11.91200390625,0.029042554610967636,0.011715572234988212,0.002022445738315582
1768421557193003800,11.922003662109375,0.012129998254776,-0.00509469279050827,-0.004024725471436977
1768421557203004000,11.93200390625,-0.003370353215932846,0.0027066286101937293,0.0006926584392786026
1768421557213003800,11.942003662109375,-0.03477086912989616,0.0003872457519173622,0.0027113047853112218
1768421557223004000,11.95200390625,-0.025364742881059645,0.0038850247398018833,0.001462181507050991
1768421557233003800,11.962003662109375,-0.005014028769731521,0.0024997078612446783,-0.011783084513247012
1768421557243004000,11.97200390625,0.01823825200200081,-0.003537526476383209,-0.003257540491223335
1768421557253003800,11.982003662109374,0.06888824278712272,0.002883446481823921,-0.007186988894641399
1768421557263004700,11.992004638671874,0.08156418448686599,0.015240239229798317,-0.01554331382960081
1768421557273005000,12.002005126953126,0.07064648463129997,0.02157733329683542,-0.013165186521410941
1768421557283005000,12.0120048828125,0.03381459131836891,0.019487667541205882,-0.002066284880042076
1768421557293005000,12.022005126953125,0.009362287107110023,0.011240648199617863,-0.003649754679203033
1768421557303005000,12.0320048828125,0.010369418323040008,0.023038053499162197,0.0005555880561470986
1768421557313005000,12.042005126953125,0.006351414853334426,0.02646159820705652,-0.012969663949310779
1768421557323005000,12.0520048828125,0.01792962444424629,0.01578326006531715,-0.01684650538265705
1768421557333005000,12.062005126953125,0.025445406901836394,0.008854045324027537,-0.007019523373246192
1768421557343006000,12.072005859375,0.024957915645837783,0.01934445967823267,-0.004207388561964035
1768421557353005800,12.082005859375,0.03625555472970009,0.019756255349516867,-0.009039046502113342
1768421557363006000,12.092005859375,0.04696282670497894,0.005976444061100482,0.0019046645775437354
1768421557373005800,12.102005859375,0.03611643851995468,0.016946166364848612,0.0009705985978245734
1768421557383006000,12.112005859375,0.030679800423979758,0.020056699600815773,-0.0038438159465789793
1768421557393005800,12.122005859375,0.036630817782878876,0.0264493232473731,-0.015944295845925806
1768421557403006000,12.132005859375,0.0388081618219614,0.022635902439057824,0.0011398176848888397
1768421557413005800,12.142005859375,0.03087619977891445,0.013631050467491149,-0.01284282269924879
1768421557423006700,12.1520068359375,0.007173252630233764,-0.009324293184280396,-0.01583645155727863
1768421557433006000,12.162006103515624,0.005583937612175941,0.007167115150392055,0.0014560440272092818
1768421557443006000,12.172005859375,-0.0011667056918144225,-0.0007522796720266342,0.008026362328231335
1768421557453006000,12.182006103515626,-0.007851882544159888,0.0011249123767018317,0.008383505202829837
1768421557463006000,12.192005859375,-0.0078033672273159025,0.002329319730401039,-0.00440583374351263
1768421557473006000,12.202006103515625,-0.025182956573367117,0.0016389993786811827,-0.006330664326250552
1768421557483006000,12.212005859375,-0.006623802053928375,-0.004987433023750782,-0.006084288349747657
1768421557493006000,12.222006103515625,0.009309095615148543,-0.0009133154526352882,-0.005158990198373794
1768421557503007200,12.23200732421875,0.018644494715332985,0.0182800453171134,-0.006700082160532474
1768421557513007000,12.242007080078125,0.02297638643980026,0.007534487158060073,-0.011194763231277466
1768421557523007200,12.25200732421875,0.006343231546878814,0.009008066841959953,0.0012187281399965286
1768421557533007000,12.262007080078124,-0.022564298507571218,0.002308569203317165,0.007354162155091762
1768421557543007200,12.27200732421875,0.0019581483304500578,-0.005266834487020969,0.0030006431207060813
1768421557553007000,12.282007080078126,0.01821019495129585,0.008661445361375808,-0.013395488145947456
1768421557563007200,12.29200732421875,0.040707273441553116,0.016942074711620805,-0.036358138321340085
1768421557573007000,12.302007080078125,0.05621639274060726,0.021997312274575232,-0.026578210324048994
1768421557583007000,12.312007080078125,0.06210428173542022,0.019731120908260343,-0.01549976694881916
1768421557593008000,12.322008056640625,0.0569943913757801,0.017255378444492816,-0.009969605350494385
1768421557603008000,12.332008056640625,0.05595394241213798,0.032630934491753576,-0.007166822889447212
1768421557613008100,12.342008056640625,0.06288637202382087,0.02193652199804783,-0.023159926313161848
1768421557623008000,12.352008056640624,0.0672773004591465,0.021948796957731245,-0.010533961234986781
1768421557633008000,12.362008056640626,0.07559855408072472,0.013991992734372615,-0.015281740283966063
1768421557643008000,12.372008056640626,0.08689853125214576,0.021748013688623904,0.0010410334855318068
1768421557653008000,12.3820078125,0.09631751698255539,0.025613164684176442,0.015559972703456878
1768421557663008000,12.392008056640625,0.09050561583340168,0.03282470349818468,0.003544540739059448
1768421557673009200,12.402009033203125,0.06699322282075881,0.022402385944128037,0.015593582712113856
1768421557683009000,12.412009033203125,0.0206043966114521,0.0007338672325015068,0.03186199594587087
1768421557693009200,12.422009033203125,-0.007799860095977783,0.013213409577310084,0.028646833291649815
1768421557703009000,12.432009033203125,0.053417117410898204,0.023093290817737578,0.005203998383879661
1768421557713009200,12.442009033203124,0.13852584263682366,0.0523497804403305,0.00017155717462301253
1768421557723009000,12.452009033203124,0.16318974377214907,0.04970014271438122,-0.018760230049490928
