time,seconds_elapsed,z,y,x
1768421545332851000,0.061850830078125,0.031484320759773254,-0.024545159190893173,0.2330837994813919
1768421545342850800,0.071850830078125,0.027472548186779022,-0.015360865741968155,0.2634458541870117
1768421545352851000,0.081850830078125,0.02132011391222477,-0.005596119910478592,0.27564793825149536
1768421545362850800,0.091850830078125,0.006412072107195854,-0.007679889909923077,0.2857053279876709
1768421545372851000,0.101850830078125,-0.01877424120903015,-0.017457418143749237,0.2978605329990387
1768421545382850800,0.111850830078125,-0.04337294027209282,-0.03794873505830765,0.30386608839035034
1768421545392851000,0.121850830078125,-0.05685066431760788,-0.056641995906829834,0.2991142272949219
1768421545402850800,0.131850830078125,-0.053404100239276886,-0.07131320238113403,0.2842300534248352
1768421545412851000,0.141850830078125,-0.04261030629277229,-0.08143401145935059,0.27368101477622986
1768421545422850800,0.151850830078125,-0.026646073907613754,-0.08464138209819794,0.2796994745731354
1768421545432850700,0.1618505859375,-0.014800600707530975,-0.08787605166435242,0.3088432252407074
1768421545442850600,0.1718505859375,-0.009823650121688843,-0.09009275585412979,0.34921061992645264
1768421545452850700,0.1818505859375,-0.0055253091268241405,-0.09735093265771866,0.37598446011543274
1768421545462851800,0.191851806640625,-0.005407754331827164,-0.1023576632142067,0.3741897940635681
1768421545472851700,0.201851806640625,-0.005855165421962738,-0.10301999002695084,0.3574579656124115
1768421545482851800,0.211851806640625,-0.00891636498272419,-0.09309877455234528,0.3265771269798279
1768421545492851700,0.221851806640625,-0.018756214529275894,-0.07365769147872925,0.27121293544769287
1768421545502851800,0.231851806640625,-0.012458677403628826,-0.04290897399187088,0.22368423640727997
1768421545512851700,0.241851806640625,-0.01787687838077545,-0.03116709552705288,0.2221185714006424
1768421545522851600,0.2518515625,-0.052961211651563644,-0.06206614524126053,0.2627122402191162
1768421545532851700,0.261851806640625,-0.10015349090099335,-0.09308797866106033,0.3018902540206909
1768421545542851600,0.2718515625,-0.15093956887722015,-0.10883580148220062,0.2945132255554199
1768421545552851700,0.281851806640625,-0.1927402764558792,-0.10965125262737274,0.24688713252544403
1768421545562851600,0.2918515625,-0.2290317267179489,-0.10755123198032379,0.18176381289958954
1768421545572851700,0.301851806640625,-0.2692209482192993,-0.11950962245464325,0.11614912748336792
1768421545582851600,0.3118515625,-0.32246434688568115,-0.13100780546665192,0.06550157070159912
1768421545592851700,0.321851806640625,-0.3734748065471649,-0.13922366499900818,0.03537429869174957
1768421545602851600,0.3318515625,-0.41171738505363464,-0.14233756065368652,0.0035247018095105886
1768421545612852500,0.3418525390625,-0.4259527623653412,-0.12484805285930634,-0.038277074694633484
1768421545622852600,0.3518525390625,-0.4264935255050659,-0.12418254464864731,-0.07154428958892822
1768421545632852700,0.361852783203125,-0.4410620629787445,-0.11017458140850067,-0.04645012319087982
1768421545642852900,0.371852783203125,-0.44232839345932007,-0.040095094591379166,0.055100467056035995
1768421545652852700,0.381852783203125,-0.4348120391368866,0.05150754004716873,0.15069562196731567
1768421545662852900,0.391852783203125,-0.4245416224002838,0.16909091174602509,0.18894654512405396
1768421545672852700,0.401852783203125,-0.4045143723487854,0.307046115398407,0.18528203666210175
1768421545682852900,0.411852783203125,-0.36612892150878906,0.43575483560562134,0.1774478256702423
1768421545692852700,0.421852783203125,-0.2923332452774048,0.540090799331665,0.14277319610118866
1768421545702852600,0.4318525390625,-0.21994994580745697,0.6608532071113586,0.07677822560071945
1768421545712852700,0.441852783203125,-0.1998627930879593,0.7589845657348633,-0.0034636175259947777
1768421545722852600,0.4518525390625,-0.25176864862442017,0.7754981517791748,-0.020536351948976517
1768421545732852700,0.461852783203125,-0.37276485562324524,0.6647812724113464,0.03310690075159073
1768421545742852600,0.4718525390625,-0.5011035799980164,0.4573269486427307,0.08967308700084686
1768421545752853500,0.481853515625,-0.6277803182601929,0.2987426519393921,0.12029970437288284
1768421545762853600,0.491853515625,-0.6961557865142822,0.23273485898971558,0.14613381028175354
1768421545772853500,0.501853515625,-0.6424081325531006,0.26628005504608154,0.1962859183549881
1768421545782853600,0.511853515625,-0.5444290041923523,0.36638718843460083,0.27516648173332214
1768421545792853500,0.521853515625,-0.4594328999519348,0.5099142789840698,0.37070444226264954
1768421545802853600,0.531853515625,-0.382270485162735,0.6639596223831177,0.4267813265323639
1768421545812853500,0.541853515625,-0.32955506443977356,0.7712376117706299,0.41100263595581055
1768421545822853600,0.551853515625,-0.30811649560928345,0.8848866820335388,0.3366554081439972
1768421545832853800,0.561853759765625,-0.3207356333732605,0.9553706645965576,0.21912798285484314
1768421545842854000,0.57185400390625,-0.3857816755771637,0.9505935311317444,0.08812883496284485
1768421545852853800,0.581853759765625,-0.47080254554748535,0.9087792634963989,-0.01777789182960987
1768421545862854000,0.59185400390625,-0.5364922285079956,0.8636911511421204,-0.0734696090221405
1768421545872854800,0.601854736328125,-0.5697777271270752,0.7864972949028015,-0.06411339342594147
1768421545882854700,0.611854736328125,-0.5812948942184448,0.6598077416419983,0.009654976427555084
1768421545892854800,0.621854736328125,-0.5795926451683044,0.5293906331062317,0.11361785978078842
1768421545902854700,0.631854736328125,-0.5489510297775269,0.4234847128391266,0.22827750444412231
1768421545912854800,0.641854736328125,-0.4741467833518982,0.34964990615844727,0.31901752948760986
1768421545922854700,0.651854736328125,-0.36933648586273193,0.3131304979324341,0.31247302889823914
1768421545932854500,0.6618544921875,-0.2224346548318863,0.37086251378059387,0.23012380301952362
1768421545942854700,0.671854736328125,-0.06135255843400955,0.5202597379684448,0.12820923328399658
1768421545952854500,0.6818544921875,0.0869775265455246,0.747973620891571,0.0044870199635624886
1768421545962854700,0.691854736328125,0.2011224776506424,1.0106552839279175,-0.15146636962890625
1768421545972854500,0.7018544921875,0.2737117409706116,1.2043139934539795,-0.2983524799346924
1768421545982855700,0.711855712890625,0.29784178733825684,1.3589425086975098,-0.3577896058559418
1768421545992855800,0.721855712890625,0.2905798554420471,1.4405663013458252,-0.3281555473804474
1768421546002855700,0.731855712890625,0.2608130872249603,1.4978381395339966,-0.2452838122844696
1768421546012855800,0.741855712890625,0.22362950444221497,1.525585651397705,-0.11722838133573532
1768421546022855700,0.751855712890625,0.19648484885692596,1.4821516275405884,0.06373842805624008
1768421546032855800,0.761855712890625,0.1977623552083969,1.4062989950180054,0.26363423466682434
1768421546042855700,0.771855712890625,0.23029381036758423,1.3573803901672363,0.4600594639778137
1768421546052855800,0.781855712890625,0.277313768863678,1.3109548091888428,0.5347371101379395
1768421546062855700,0.791855712890625,0.3346480131149292,1.2616891860961914,0.36571934819221497
1768421546072855800,0.801855712890625,0.42124226689338684,1.2353960275650024,-0.016318058595061302
1768421546082855700,0.811855712890625,0.542206883430481,1.2995229959487915,-0.4328834116458893
1768421546092856600,0.821856689453125,0.649859607219696,1.2919377088546753,-0.7293376922607422
1768421546102856700,0.831856689453125,0.6762417554855347,1.1984204053878784,-0.8222944140434265
1768421546112856600,0.841856689453125,0.5658044815063477,1.1795759201049805,-0.7256299257278442
1768421546122856700,0.851856689453125,0.40438568592071533,1.1642946004867554,-0.5487894415855408
1768421546132856600,0.861856689453125,0.2498815953731537,1.1839549541473389,-0.4542190134525299
1768421546142856700,0.871856689453125,0.13296861946582794,1.3395687341690063,-0.506249189376831
1768421546152856600,0.881856689453125,0.07284989953041077,1.6420869827270508,-0.5858098268508911
1768421546162856700,0.891856689453125,-0.01075708121061325,1.771690011024475,-0.48582378029823303
1768421546172856600,0.901856689453125,-0.09115871787071228,1.9013926982879639,0.1334000676870346
1768421546182856700,0.911856689453125,-0.05233250558376312,1.1543519496917725,1.3391549587249756
1768421546192857900,0.92185791015625,-0.14224907755851746,-0.09176132827997208,2.0449814796447754
1768421546202857700,0.931857666015625,-0.5069204568862915,-1.280738353729248,0.7495708465576172
1768421546212857600,0.941857666015625,-1.2389339208602905,-0.7118147611618042,-0.09981721639633179
1768421546222857700,0.951857666015625,-1.6026426553726196,-0.1422712504863739,-0.2604384124279022
1768421546232857600,0.961857666015625,-0.9113371968269348,0.26893386244773865,-0.2516214847564697
1768421546242857700,0.971857666015625,0.04343690350651741,0.9566863179206848,-0.24958795309066772
1768421546252857600,0.981857666015625,0.6162163019180298,1.1789952516555786,-0.4652179777622223
1768421546262857700,0.991857666015625,0.8296847343444824,0.8535441160202026,-0.6961082220077515
1768421546272857600,1.001857666015625,0.7433863282203674,0.38606423139572144,-0.643762469291687
1768421546282857700,1.011857666015625,0.454915851354599,0.08531824499368668,-0.24288952350616455
1768421546292858600,1.021858642578125,0.259600430727005,-0.13837850093841553,0.19563350081443787
1768421546302858500,1.0318583984375,0.2388683557510376,-0.41508185863494873,0.39639419317245483
1768421546312858600,1.041858642578125,0.2191210240125656,-0.5493371486663818,0.390183687210083
1768421546322858500,1.0518583984375,0.1787961721420288,-0.3928142189979553,0.2758767604827881
1768421546332858600,1.061858642578125,0.19001340866088867,-0.09352473169565201,0.1137206107378006
1768421546342858800,1.071858642578125,0.17300839722156525,0.1820189356803894,-0.015888726338744164
1768421546352859000,1.08185888671875,0.06281744688749313,0.4214528203010559,-0.06705630570650101
1768421546362858800,1.091858642578125,-0.04364015907049179,0.5917036533355713,-0.051420215517282486
1768421546372859000,1.10185888671875,-0.07970282435417175,0.726956307888031,-0.0026742485351860523
1768421546382859800,1.11185986328125,-0.10567325353622437,0.7231793999671936,0.02022310346364975
1768421546392859600,1.121859619140625,-0.1460036337375641,0.5979056358337402,0.035947203636169434
1768421546402859800,1.13185986328125,-0.19586564600467682,0.4269794225692749,0.06029007211327553
1768421546412859600,1.141859619140625,-0.1967484951019287,0.2824547290802002,0.06129967421293259
1768421546422859000,1.15185888671875,-0.1569502055644989,0.2313527911901474,0.016845032572746277
1768421546432859000,1.16185888671875,-0.07489502429962158,0.2925645112991333,-0.06847971677780151
1768421546442859300,1.171859375,0.009835700504481792,0.3988761305809021,-0.12693579494953156
1768421546452859100,1.181859130859375,0.05431634932756424,0.4790050685405731,-0.10248371213674545
1768421546462859300,1.191859375,0.05434292554855347,0.5002487897872925,-0.056570347398519516
1768421546472860200,1.201860107421875,0.0091967498883605,0.502590537071228,-0.07765646278858185
1768421546482860000,1.211860107421875,-0.07354296743869781,0.4952070415019989,-0.17861516773700714
1768421546492860200,1.221860107421875,-0.17268580198287964,0.4701696038246155,-0.29275691509246826
1768421546502860000,1.231860107421875,-0.2637002170085907,0.43364211916923523,-0.36509251594543457
1768421546512860200,1.241860107421875,-0.3288046419620514,0.44022783637046814,-0.3944410979747772
1768421546522860000,1.251860107421875,-0.374332070350647,0.48964452743530273,-0.37718021869659424
1768421546532860200,1.261860107421875,-0.37208065390586853,0.5588324069976807,-0.3484859764575958
1768421546542860000,1.271860107421875,-0.3335108160972595,0.6083884835243225,-0.31662288308143616
1768421546552861000,1.28186083984375,-0.29318976402282715,0.5940316319465637,-0.27075710892677307
1768421546562861000,1.291861083984375,-0.27765780687332153,0.5480700135231018,-0.21254195272922516
1768421546572861000,1.30186083984375,-0.2671892046928406,0.4889289140701294,-0.14396847784519196
1768421546582861000,1.311861083984375,-0.23664018511772156,0.42553067207336426,-0.08015663176774979
1768421546592861200,1.321861083984375,-0.18560123443603516,0.3715475797653198,-0.0397583469748497
1768421546602861000,1.331861083984375,-0.14446315169334412,0.32027360796928406,-0.04348684102296829
1768421546612861200,1.341861083984375,-0.1208885982632637,0.259234219789505,-0.08943649381399155
1768421546622861000,1.351861083984375,-0.1171526089310646,0.19392362236976624,-0.16122157871723175
1768421546632861200,1.361861083984375,-0.13736946880817413,0.08507010340690613,-0.23652032017707825
1768421546642862000,1.371862060546875,-0.15199419856071472,-0.0697941705584526,-0.29621732234954834
1768421546652862000,1.381862060546875,-0.07895513623952866,-0.2278149574995041,-0.33190128207206726
1768421546662862000,1.391862060546875,0.1025528684258461,-0.19071272015571594,-0.26688313484191895
1768421546672862000,1.401862060546875,0.30546310544013977,-0.11323896050453186,0.10334686189889908
1768421546682862000,1.411862060546875,0.39809805154800415,-0.44848310947418213,0.6177144646644592
1768421546692862000,1.421862060546875,0.3529593348503113,-0.6144595742225647,0.7767390012741089
1768421546702862000,1.431862060546875,0.3494943678379059,-0.3167015314102173,0.42690303921699524
1768421546712862000,1.441862060546875,0.4479687511920929,-0.15510384738445282,-0.2856645882129669
1768421546722862800,1.45186279296875,0.43409284949302673,0.002120110671967268,-0.6968179941177368
1768421546732863000,1.461863037109375,0.17934603989124298,0.1619531810283661,-0.48867112398147583
1768421546742862800,1.47186279296875,-0.10967075079679489,0.15377898514270782,-0.13725461065769196
1768421546752863200,1.48186328125,-0.3348380923271179,0.08194155246019363,-0.010272962972521782
1768421546762863000,1.491863037109375,-0.517872154712677,0.028090305626392365,0.09265407174825668
1768421546772863200,1.50186328125,-0.5093013048171997,0.10463354736566544,0.38034576177597046
1768421546782863000,1.511863037109375,-0.3514525592327118,0.264949232339859,0.7174555063247681
1768421546792863200,1.52186328125,-0.1266958862543106,0.4568805694580078,0.8772539496421814
1768421546802864000,1.531864013671875,0.0852508470416069,0.5749366283416748,0.7881478071212769
1768421546812864000,1.541864013671875,0.20353193581104279,0.5752319693565369,0.5551944971084595
1768421546822864100,1.551864013671875,0.19646215438842773,0.5890495181083679,0.3158514201641083
1768421546832864000,1.561864013671875,0.08562804758548737,0.6945037245750427,0.18605665862560272
1768421546842864000,1.571864013671875,-0.029298322275280952,0.6980213522911072,0.18309834599494934
1768421546852864000,1.581864013671875,-0.13388173282146454,0.48428699374198914,0.24477502703666687
1768421546862864100,1.591864013671875,-0.20835624635219574,0.275195449590683,0.2944386899471283
1768421546872864000,1.601864013671875,-0.24379199743270874,0.11950597167015076,0.3364708423614502
1768421546882865000,1.611864990234375,-0.236643984913826,0.0921114832162857,0.39542070031166077
1768421546892865000,1.621864990234375,-0.19889980554580688,0.13652129471302032,0.44827088713645935
1768421546902865200,1.631865234375,-0.14465145766735077,0.21267373859882355,0.4730471968650818
1768421546912865300,1.641865234375,-0.08593888580799103,0.24187876284122467,0.4790970981121063
1768421546922865200,1.651865234375,-0.06573173403739929,0.2330278605222702,0.44699719548225403
1768421546932865000,1.661864990234375,-0.06413490325212479,0.22438910603523254,0.3775957524776459
1768421546942865200,1.671865234375,-0.05681699886918068,0.19287829101085663,0.2991715967655182
1768421546952866000,1.681865966796875,-0.04453210160136223,0.13655990362167358,0.24676857888698578
1768421546962866200,1.6918662109375,-0.02653692662715912,0.08815616369247437,0.18749424815177917
1768421546972866000,1.701865966796875,0.009013878181576729,0.09488650411367416,0.11054807156324387
1768421546982866200,1.7118662109375,0.08205202966928482,0.15711942315101624,0.03513411432504654
1768421546992866000,1.721865966796875,0.19509389996528625,0.23913252353668213,-0.05349055677652359
1768421547002866000,1.731865966796875,0.3057903051376343,0.3099299669265747,-0.14297372102737427
1768421547012866000,1.741865966796875,0.3853732943534851,0.38470834493637085,-0.17727923393249512
1768421547022867000,1.751866943359375,0.4171833395957947,0.410929411649704,-0.1361933946609497
1768421547032867000,1.7618671875,0.3707708418369293,0.38025087118148804,-0.03220147639513016
1768421547042867000,1.771866943359375,0.3112734854221344,0.30163249373435974,0.08083619177341461
1768421547052867000,1.7818671875,0.2304321527481079,0.21424195170402527,0.1346626728773117
1768421547062867200,1.7918671875,0.1534307897090912,0.2677975296974182,0.08487741649150848
1768421547072867000,1.8018671875,0.1376507580280304,0.4967902600765228,0.035898689180612564
1768421547082867200,1.8118671875,0.22282195091247559,0.8851500749588013,0.10960278660058975
1768421547092868000,1.8218681640625,0.4889098107814789,1.198198914527893,0.5763156414031982
1768421547102868000,1.831867919921875,0.7372557520866394,-0.6304044127464294,1.3149144649505615
1768421547112868000,1.8418681640625,0.3055826723575592,-2.8301775455474854,0.9604161977767944
1768421547122868000,1.851867919921875,-0.8203617334365845,-1.46129310131073,-0.15514208376407623
1768421547132868000,1.8618681640625,-1.4795308113098145,-0.11762575060129166,-0.23192793130874634
1768421547142868000,1.871867919921875,-1.1527520418167114,0.37602078914642334,-0.035457413643598557
1768421547152868000,1.8818681640625,0.07345923781394958,1.2107667922973633,0.01622202806174755
1768421547162868000,1.891867919921875,0.9811593890190125,1.6716138124465942,-0.27769607305526733
1768421547172868900,1.901868896484375,1.278350830078125,1.3447821140289307,-0.5982802510261536
1768421547182869000,1.911868896484375,1.0559898614883423,0.5338177680969238,-0.4171309173107147
1768421547192868900,1.921868896484375,0.46091610193252563,-0.14969660341739655,0.41558176279067993
1768421547202869000,1.931868896484375,-0.0012873942032456398,-0.5461104512214661,1.0749012231826782
1768421547212869000,1.941869140625,-0.07091014832258224,-0.9489966630935669,1.2281278371810913
1768421547222869200,1.951869140625,0.10194844752550125,-1.1582918167114258,1.010952353477478
1768421547232869000,1.961869140625,0.27807021141052246,-1.0464444160461426,0.7012583017349243
1768421547242870000,1.9718701171875,0.3694377541542053,-0.7669287919998169,0.5302907824516296
1768421547252870100,1.9818701171875,0.3546856939792633,-0.5351333618164062,0.48530519008636475
1768421547262870000,1.9918701171875,0.29283127188682556,-0.3911128640174866,0.45603829622268677
1768421547272870100,2.0018701171875,0.24367545545101166,-0.26753100752830505,0.4056291878223419
1768421547282870000,2.0118701171875,0.188996821641922,-0.11910324543714523,0.35535433888435364
1768421547292870100,2.0218701171875,0.11451087892055511,-0.020985199138522148,0.34820055961608887
1768421547302870000,2.0318701171875,0.039622653275728226,0.027870720252394676,0.33682143688201904
1768421547312871000,2.041870849609375,-0.020063579082489014,0.08361893892288208,0.25477102398872375
1768421547322871000,2.05187109375,-0.028582224622368813,0.16218481957912445,0.14022086560726166
1768421547332871000,2.061870849609375,0.0340646430850029,0.20453813672065735,0.05133546516299248
1768421547342871000,2.07187109375,0.14624705910682678,0.2806370258331299,-0.004154232796281576
1768421547352871000,2.081870849609375,0.23045887053012848,0.4307200014591217,-0.00882088951766491
1768421547362871300,2.091871337890625,0.24775078892707825,0.5448153018951416,0.010962830856442451
1768421547372871200,2.10187109375,0.2305728793144226,0.5909468531608582,0.006089778617024422
1768421547382872000,2.1118720703125,0.2059057205915451,0.5861077308654785,-0.009247256442904472
1768421547392872200,2.1218720703125,0.2115604132413864,0.563589334487915,-0.006370776332914829
1768421547402872000,2.1318720703125,0.23283839225769043,0.5523815751075745,0.02193094603717327
1768421547412872200,2.1418720703125,0.2473941594362259,0.5335037112236023,0.047166261821985245
1768421547422872000,2.1518720703125,0.23005792498588562,0.4887775778770447,0.04520031064748764
1768421547432872000,2.161871826171875,0.18810302019119263,0.4324280321598053,0.01499660313129425
1768421547442871800,2.171871826171875,0.1277274191379547,0.3752075731754303,-0.019594602286815643
1768421547452872700,2.181872802734375,0.06419159471988678,0.3265537619590759,-0.03649688884615898
1768421547462872800,2.191872802734375,0.022111957892775536,0.30580073595046997,-0.033712536096572876
1768421547472872700,2.201872802734375,-0.01594754308462143,0.3205549120903015,-0.041168857365846634
1768421547482872800,2.211872802734375,-0.06679818779230118,0.336485356092453,-0.07618823647499084
1768421547492872700,2.221872802734375,-0.14132115244865417,0.34168916940689087,-0.12439944595098495
1768421547502872800,2.231872802734375,-0.2299015372991562,0.33501318097114563,-0.1613055020570755
1768421547512874000,2.2418740234375,-0.3181520402431488,0.31404051184654236,-0.1752292960882187
1768421547522873900,2.251873779296875,-0.40640416741371155,0.274667888879776,-0.18460257351398468
1768421547532874000,2.2618740234375,-0.47682908177375793,0.26435187458992004,-0.2204734981060028
1768421547542873900,2.271873779296875,-0.5254824161529541,0.2554718554019928,-0.28024348616600037
1768421547552873700,2.281873779296875,-0.5615624189376831,0.23376710712909698,-0.33901917934417725
1768421547562873900,2.291873779296875,-0.5746093988418579,0.21878506243228912,-0.38203585147857666
1768421547572873700,2.301873779296875,-0.5547435879707336,0.26232534646987915,-0.4044567346572876
1768421547582875000,2.311875,-0.4401247799396515,0.2995271682739258,-0.3888753354549408
1768421547592874800,2.321874755859375,-0.21620115637779236,0.22910042107105255,-0.28126150369644165
1768421547602875000,2.331875,0.07160357385873795,0.28041407465934753,-0.0579623319208622
1768421547612874800,2.341874755859375,0.23876993358135223,0.20330119132995605,0.20206844806671143
1768421547622874600,2.35187451171875,0.3179316818714142,0.2770751416683197,0.21165026724338531
1768421547632874800,2.361874755859375,0.3353964388370514,0.47648918628692627,-0.30933380126953125
1768421547642874600,2.37187451171875,0.1989082396030426,0.4940199851989746,-0.9440482258796692
1768421547652875800,2.381875732421875,-0.13065475225448608,0.4478546380996704,-1.068405032157898
1768421547662876000,2.3918759765625,-0.45470526814460754,0.2082657366991043,-0.6373586058616638
1768421547672875800,2.401875732421875,-0.7057084441184998,0.05580110475420952,0.006060841493308544
1768421547682876000,2.4118759765625,-0.7742807269096375,-0.10738808661699295,0.5714575052261353
1768421547692875800,2.421875732421875,-0.6161022782325745,-0.3903588056564331,0.8377991914749146
1768421547702876000,2.4318759765625,-0.3852924704551697,-0.4713367521762848,0.8215630054473877
1768421547712876800,2.441876708984375,-0.21701957285404205,-0.3203086256980896,0.6229353547096252
1768421547722876700,2.451876708984375,-0.04186296463012695,-0.08897601813077927,0.42637109756469727
1768421547732876800,2.461876708984375,0.12659528851509094,0.08267909288406372,0.24598589539527893
1768421547742876700,2.471876708984375,0.17329008877277374,0.15649372339248657,0.09787002950906754
1768421547752876800,2.481876708984375,0.04068890959024429,0.17102685570716858,-0.03475326672196388
1768421547762876700,2.491876708984375,-0.2117508500814438,0.16024303436279297,-0.16659638285636902
1768421547772876800,2.501876708984375,-0.45742693543434143,-0.044931426644325256,-0.26886069774627686
1768421547782878000,2.5118779296875,-0.5855160355567932,-0.2596883177757263,-0.3708224594593048
1768421547792877800,2.5218779296875,-0.538539469242096,-0.36405786871910095,-0.43436893820762634
1768421547802878000,2.5318779296875,-0.3629203736782074,-0.40455305576324463,-0.3832264244556427
1768421547812877800,2.5418779296875,-0.15087229013442993,-0.3759000897407532,-0.25286442041397095
1768421547822878000,2.5518779296875,0.028398847207427025,-0.31229346990585327,-0.13198064267635345
1768421547832877800,2.5618779296875,0.15223689377307892,-0.22959883511066437,-0.08675669133663177
1768421547842878000,2.5718779296875,0.2197987586259842,-0.151789128780365,-0.12775415182113647
1768421547852878800,2.58187890625,0.23545414209365845,-0.10080236941576004,-0.23580285906791687
1768421547862878700,2.591878662109375,0.2096938043832779,-0.11210230737924576,-0.3886699378490448
1768421547872878800,2.60187890625,0.15497756004333496,-0.13780046999454498,-0.542173445224762
1768421547882878700,2.611878662109375,0.11187328398227692,-0.1626226305961609,-0.6475579142570496
1768421547892878800,2.62187890625,0.09361384809017181,-0.1752907633781433,-0.6924899816513062
1768421547902878700,2.631878662109375,0.08459101617336273,-0.17162035405635834,-0.6714010834693909
1768421547912879600,2.641879638671875,0.04103821888566017,-0.13788022100925446,-0.6214454770088196
1768421547922879700,2.651879638671875,-0.010819132439792156,-0.06277059018611908,-0.6274642944335938
1768421547932880000,2.6618798828125,-0.006234234198927879,0.04945048689842224,-0.7042914628982544
1768421547942880000,2.6718798828125,0.06576400250196457,0.14237242937088013,-0.7769144773483276
1768421547952879900,2.6818798828125,0.1577700972557068,0.15052755177021027,-0.7918729186058044
1768421547962880000,2.6918798828125,0.21004115045070648,0.04082667827606201,-0.7423125505447388
1768421547972880000,2.7018798828125,0.1964758038520813,-0.15160880982875824,-0.6587116718292236
1768421547982880800,2.711880859375,0.12181539833545685,-0.336153507232666,-0.5770871043205261
1768421547992881000,2.721880859375,0.02011726424098015,-0.44604194164276123,-0.5205929279327393
1768421548002880800,2.731880859375,-0.01895810291171074,-0.37821197509765625,-0.45210331678390503
1768421548012881000,2.741880859375,0.08135678619146347,0.0010706172324717045,-0.12910078465938568
1768421548022880800,2.751880859375,0.3523087799549103,0.1344294250011444,0.6787219643592834
1768421548032881000,2.761880859375,0.5798516869544983,-0.1485375612974167,1.5031096935272217
1768421548042881800,2.7718818359375,0.3851723074913025,-1.0099891424179077,1.219855785369873
1768421548052881700,2.781881591796875,-0.28004190325737,-1.2237166166305542,-0.29850637912750244
1768421548062881800,2.7918818359375,-1.1252236366271973,-0.40543922781944275,-0.7225606441497803
1768421548072881700,2.801881591796875,-1.1790778636932373,-0.506240963935852,-0.39681264758110046
1768421548082881800,2.8118818359375,-0.6822471618652344,-0.5819844603538513,0.1110045462846756
1768421548092882000,2.8218818359375,-0.13565224409103394,-0.17079664766788483,0.19210845232009888
1768421548102881800,2.8318818359375,0.26615703105926514,0.1225777119398117,-0.3198499381542206
1768421548112883000,2.841883056640625,0.4202989339828491,0.0993962287902832,-0.784899115562439
1768421548122882800,2.8518828125,0.4602064788341522,-0.13917042315006256,-0.6707755327224731
1768421548132883000,2.861883056640625,0.3973638713359833,-0.4786686301231384,-0.04145055264234543
1768421548142882800,2.8718828125,0.323112428188324,-0.6549210548400879,0.6230608224868774
1768421548152882700,2.881882568359375,0.17848895490169525,-0.5819277763366699,0.959105908870697
1768421548162882800,2.8918828125,-0.029050389304757118,-0.40084558725357056,0.8547526597976685
1768421548172883700,2.9018837890625,-0.13372673094272614,-0.07301446050405502,0.47114798426628113
1768421548182883800,2.9118837890625,0.12720809876918793,0.46355926990509033,0.11059130728244781
1768421548192883700,2.9218837890625,0.42872583866119385,0.8913015723228455,0.015022706240415573
1768421548202883800,2.9318837890625,0.14726974070072174,0.9464684128761292,0.15492570400238037
1768421548212883700,2.9418837890625,-0.08802559226751328,1.0240635871887207,0.3648802638053894
1768421548222883600,2.951883544921875,-0.11198984831571579,1.039110779762268,0.5029114484786987
1768421548232883700,2.9618837890625,-0.13083170354366302,0.8234024047851562,0.5104995369911194
1768421548242884900,2.971884765625,-0.18344219028949738,0.4241642951965332,0.4501979351043701
1768421548252885000,2.981885009765625,-0.18982765078544617,0.08077896386384964,0.3995736539363861
1768421548262884900,2.991884765625,-0.12221687287092209,-0.07050866633653641,0.37519198656082153
1768421548272884700,3.001884765625,-0.08048993349075317,-0.058468516916036606,0.35743775963783264
1768421548282884900,3.011884765625,-0.09781081229448318,-0.01956724002957344,0.3218007981777191
1768421548292884700,3.021884765625,-0.16579118371009827,-0.03321247920393944,0.25566545128822327
1768421548302886000,3.031885986328125,-0.244435116648674,-0.046647507697343826,0.18582020699977875
1768421548312885800,3.0418857421875,-0.32489001750946045,-0.0044899326749145985,0.11984546482563019
1768421548322885600,3.0518857421875,-0.4121074676513672,0.0905524492263794,0.04484717547893524
1768421548332885800,3.0618857421875,-0.47370797395706177,0.20031863451004028,-0.08413131535053253
1768421548342885600,3.0718857421875,-0.42337581515312195,0.20297929644584656,-0.2691863775253296
1768421548352885800,3.0818857421875,-0.34060049057006836,0.10573236644268036,-0.45878052711486816
1768421548362885600,3.0918857421875,-0.2881680130958557,0.03327939286828041,-0.6344969272613525
1768421548372886800,3.10188671875,-0.25105181336402893,0.08030309528112411,-0.7206299304962158
1768421548382887000,3.111886962890625,-0.18585161864757538,0.23341429233551025,-0.6676644086837769
1768421548392886800,3.12188671875,-0.06841126829385757,0.36618778109550476,-0.4113069474697113
1768421548402887000,3.131886962890625,0.1483178585767746,-0.16432704031467438,-0.07337263226509094
1768421548412886800,3.14188671875,0.3880830407142639,-0.8706955909729004,0.0541863851249218
1768421548422887000,3.151886962890625,0.6066610813140869,-1.0373274087905884,-0.14938755333423615
1768421548432888300,3.161888427734375,0.7262839078903198,-0.5041361451148987,-0.2684846520423889
1768421548442888200,3.17188818359375,0.850001335144043,-0.2950127422809601,-0.11579260230064392
1768421548452888300,3.181888427734375,0.7834944725036621,-0.8223734498023987,-0.019499361515045166
1768421548462888200,3.19188818359375,0.6924692392349243,-1.1123721599578857,-0.4006005525588989
1768421548472888300,3.201888427734375,0.4790309965610504,-0.5405405759811401,-0.3754997253417969
1768421548482888200,3.21188818359375,0.2837093770503998,-0.3875606656074524,0.24061650037765503
1768421548492889300,3.221889404296875,0.16049796342849731,-0.4333374798297882,0.5981733202934265
1768421548502889500,3.231889404296875,0.02523198537528515,-0.2515130341053009,0.5172799229621887
1768421548512889300,3.241889404296875,-0.10012699663639069,-0.11082623153924942,0.3856566548347473
1768421548522889500,3.251889404296875,-0.23871353268623352,-0.18054060637950897,0.31995049118995667
1768421548532889300,3.261889404296875,-0.4117391109466553,-0.19633793830871582,0.2951436936855316
1768421548542889500,3.271889404296875,-0.579146146774292,-0.11574889719486237,0.28853800892829895
1768421548552889300,3.281889404296875,-0.6738033890724182,-0.07959142327308655,0.28469109535217285
1768421548562890200,3.29189013671875,-0.6474882364273071,-0.16305102407932281,0.23854614794254303
1768421548572890400,3.301890380859375,-0.5355380177497864,-0.2297661453485489,0.13709382712841034
1768421548582890200,3.31189013671875,-0.37654387950897217,-0.2470734417438507,0.03314657136797905
1768421548592890400,3.321890380859375,-0.1865137815475464,-0.20675106346607208,-0.025899171829223633
1768421548602890200,3.33189013671875,0.03142132610082626,-0.15207794308662415,-0.09091311693191528
1768421548612890400,3.341890380859375,0.2155834436416626,-0.1338011920452118,-0.21190160512924194
1768421548622891300,3.351891357421875,0.32794737815856934,-0.1017017737030983,-0.36289623379707336
1768421548632891400,3.361891357421875,0.38652732968330383,-0.11024519801139832,-0.5228257179260254
1768421548642891500,3.3718916015625,0.4386158883571625,-0.15575776994228363,-0.6642821431159973
1768421548652891400,3.381891357421875,0.4573485553264618,-0.21202264726161957,-0.7372152209281921
1768421548662891300,3.391891357421875,0.4351658821105957,-0.2752813696861267,-0.7147841453552246
1768421548672891400,3.401891357421875,0.4188244640827179,-0.32001182436943054,-0.5967318415641785
1768421548682891300,3.411891357421875,0.418507844209671,-0.3408330976963043,-0.46095162630081177
1768421548692892400,3.421892333984375,0.41051995754241943,-0.3651658892631531,-0.3944130539894104
1768421548702892300,3.431892333984375,0.4032962918281555,-0.4003097414970398,-0.4648231863975525
1768421548712892400,3.441892333984375,0.4316621422767639,-0.41843709349632263,-0.6163205504417419
1768421548722892300,3.451892333984375,0.47005683183670044,-0.41936254501342773,-0.7277771830558777
1768421548732892200,3.46189208984375,0.47715070843696594,-0.37357667088508606,-0.6761789917945862
1768421548742892300,3.471892333984375,0.44509169459342957,-0.2524275779724121,-0.46992015838623047
1768421548752893200,3.48189306640625,0.3838757276535034,-0.06749927252531052,-0.2646794021129608
1768421548762893300,3.491893310546875,0.33273300528526306,0.16873840987682343,-0.20492899417877197
1768421548772893200,3.50189306640625,0.2589320242404938,0.2732626795768738,-0.30670806765556335
1768421548782893300,3.511893310546875,0.17708615958690643,0.42386531829833984,-0.2078312635421753
1768421548792893400,3.5218935546875,0.16844898462295532,0.5350043773651123,0.5308169722557068
1768421548802893300,3.531893310546875,0.1979774385690689,-0.24960476160049438,1.3658277988433838
1768421548812893400,3.5418935546875,-0.0208923127502203,-1.1921608448028564,1.0484000444412231
1768421548822894300,3.551894287109375,-0.4779394865036011,-1.2707339525222778,-0.04750294238328934
1768421548832894200,3.561894287109375,-1.102152705192566,-0.66059809923172,-0.18925608694553375
1768421548842894300,3.571894287109375,-1.0932356119155884,-0.5654268860816956,0.17335741221904755
1768421548852894200,3.581894287109375,-0.4211161732673645,-0.88136887550354,0.5915383696556091
1768421548862894300,3.591894287109375,0.08324617147445679,-0.576585054397583,0.6768960952758789
1768421548872894200,3.601894287109375,0.31729912757873535,-0.116766057908535,0.17510785162448883
1768421548882895000,3.61189501953125,0.49924036860466003,-0.00737319141626358,-0.3877105116844177
1768421548892895200,3.621895263671875,0.5280570983886719,-0.21060115098953247,-0.5181859731674194
1768421548902895000,3.63189501953125,0.44482916593551636,-0.5421079993247986,-0.19615033268928528
1768421548912895200,3.641895263671875,0.3782685101032257,-0.8468436598777771,0.2896861732006073
1768421548922895000,3.65189501953125,0.35540905594825745,-0.7591702938079834,0.5775408148765564
1768421548932895500,3.6618955078125,0.3492768704891205,-0.472212553024292,0.5149205923080444
1768421548942895400,3.671895263671875,0.33294233679771423,-0.19521145522594452,0.29719388484954834
1768421548952896300,3.681896240234375,0.23545892536640167,0.05327717587351799,0.1424490511417389
1768421548962896400,3.691896484375,0.11363507062196732,0.3751734495162964,0.05407042056322098
1768421548972896300,3.701896240234375,-0.09348136186599731,0.4786766767501831,0.06738116592168808
1768421548982896400,3.711896484375,-0.2425837367773056,0.503562867641449,0.09691040962934494
1768421548992896300,3.721896240234375,-0.3063773512840271,0.4995913803577423,0.13135147094726562
1768421549002896400,3.731896484375,-0.39800724387168884,0.42037391662597656,0.19806766510009766
1768421549012896300,3.741896240234375,-0.47836172580718994,0.3288479745388031,0.2538723349571228
1768421549022897200,3.751897216796875,-0.49421414732933044,0.19025695323944092,0.2562098503112793
1768421549032897300,3.761897216796875,-0.42649394273757935,0.10636018216609955,0.1851748526096344
1768421549042897200,3.771897216796875,-0.32568463683128357,0.11774595081806183,0.06987541913986206
1768421549052897300,3.781897216796875,-0.24288325011730194,0.18737483024597168,-0.04019276052713394
1768421549062897200,3.791897216796875,-0.2037803679704666,0.19753320515155792,-0.12058737874031067
1768421549072897300,3.801897216796875,-0.19283238053321838,0.12136253714561462,-0.17419202625751495
1768421549082898400,3.8118984375,-0.2170214056968689,-0.033255692571401596,-0.22101852297782898
1768421549092898300,3.821898193359375,-0.2942243218421936,-0.21066829562187195,-0.32462531328201294
1768421549102898400,3.8318984375,-0.4222545325756073,-0.31406310200691223,-0.4885120987892151
1768421549112898300,3.841898193359375,-0.5053457021713257,-0.3618311583995819,-0.6450242400169373
1768421549122898400,3.8518984375,-0.5037211179733276,-0.45717793703079224,-0.7548927068710327
1768421549132898300,3.861898193359375,-0.506384551525116,-0.48023930191993713,-0.8097136616706848
1768421549142898400,3.8718984375,-0.4732608497142792,-0.5128756165504456,-0.8068981170654297
1768421549152899300,3.8818994140625,-0.3843671977519989,-0.5742122530937195,-0.7447971701622009
1768421549162899200,3.891899169921875,-0.2530542314052582,-0.579761266708374,-0.6388776898384094
1768421549172899300,3.9018994140625,-0.059479184448719025,-0.5235512852668762,-0.611716628074646
1768421549182899200,3.911899169921875,0.2600182890892029,-0.4655115008354187,-0.6665969491004944
1768421549192899300,3.9218994140625,0.6531496047973633,-0.2748456597328186,-0.06558912247419357
1768421549202899200,3.931899169921875,1.2990264892578125,0.42536264657974243,1.5321815013885498
1768421549212900400,3.941900390625,2.207805633544922,-0.10777850449085236,1.1759175062179565
1768421549222900500,3.951900390625,2.1480565071105957,-0.38071194291114807,-1.4456114768981934
1768421549232900400,3.961900390625,1.4476897716522217,0.03827520087361336,-2.2491824626922607
1768421549242900500,3.971900390625,1.0184071063995361,-0.33504125475883484,-1.431929111480713
1768421549252900400,3.981900390625,0.7284730672836304,-0.8462973237037659,-0.5480504631996155
1768421549262900500,3.991900390625,0.12488406896591187,-0.9063431620597839,-0.11151714622974396
1768421549272900400,4.001900390625,-0.4792494773864746,-1.1206003427505493,0.15580883622169495
1768421549282901200,4.0119013671875,-0.7304085493087769,-1.3135886192321777,0.4281207025051117
1768421549292901400,4.0219013671875,-0.44283294677734375,-1.029022216796875,0.7698200345039368
1768421549302901200,4.0319013671875,0.11560586839914322,-0.7131246328353882,1.1226706504821777
1768421549312901400,4.0419013671875,0.5180371999740601,-0.6422009468078613,1.230844259262085
1768421549322901200,4.0519013671875,0.6012832522392273,-0.7165722250938416,0.8957149982452393
1768421549332901000,4.061901123046875,0.4336324632167816,-0.7223065495491028,0.32367387413978577
1768421549342901200,4.0719013671875,0.18154960870742798,-0.5551361441612244,-0.08829538524150848
1768421549352902400,4.08190234375,0.06807605177164078,-0.4471862316131592,-0.19005103409290314
1768421549362902500,4.091902587890625,0.05205656215548515,-0.32429537177085876,-0.12673227488994598
1768421549372902400,4.10190234375,0.07052771002054214,-0.22141802310943604,-0.09781406074762344
1768421549382902300,4.11190234375,0.13854266703128815,-0.2417137175798416,-0.13981208205223083
1768421549392902400,4.12190234375,0.2126336693763733,-0.3804526925086975,-0.1823965609073639
1768421549402902300,4.13190234375,0.2515565752983093,-0.5092019438743591,-0.20779891312122345
1768421549412903400,4.1419033203125,0.2591843903064728,-0.6220834851264954,-0.20975500345230103
1768421549422903300,4.1519033203125,0.21758237481117249,-0.7021324038505554,-0.24264726042747498
1768421549432903700,4.161903564453125,0.1685170978307724,-0.7251918911933899,-0.3353511095046997
1768421549442903800,4.17190380859375,0.18467669188976288,-0.7282586693763733,-0.4746505320072174
1768421549452903700,4.181903564453125,0.25492528080940247,-0.7223680019378662,-0.6228722333908081
1768421549462903800,4.19190380859375,0.29618898034095764,-0.6774463057518005,-0.7514192461967468
1768421549472903700,4.201903564453125,0.2810390591621399,-0.6444383263587952,-0.8799687027931213
1768421549482904600,4.211904541015625,0.28903597593307495,-0.6249699592590332,-1.0139926671981812
1768421549492904700,4.22190478515625,0.3108704388141632,-0.5643609166145325,-1.1588654518127441
1768421549502904600,4.231904541015625,0.324934184551239,-0.5027824640274048,-1.2729507684707642
1768421549512904700,4.24190478515625,0.3005627989768982,-0.4761095345020294,-1.2898811101913452
1768421549522904600,4.251904541015625,0.20795726776123047,-0.5659810900688171,-1.180533528327942
1768421549532904700,4.26190478515625,0.050601739436388016,-0.801050066947937,-0.9612696170806885
1768421549542904600,4.271904541015625,-0.13535913825035095,-1.029924750328064,-0.7015749216079712
1768421549552905700,4.28190576171875,-0.28573399782180786,-1.107251763343811,-0.5207510590553284
1768421549562905900,4.29190576171875,-0.3271172344684601,-0.9864237308502197,-0.5395220518112183
1768421549572905700,4.30190576171875,-0.2597634792327881,-0.7525793313980103,-0.6890391111373901
1768421549582905900,4.31190576171875,-0.13926257193088531,-0.5611159205436707,-0.7738355398178101
1768421549592905700,4.32190576171875,0.034142229706048965,-0.22008109092712402,-0.5573961734771729
1768421549602905900,4.33190576171875,0.2723979651927948,-0.04627690464258194,0.10852902382612228
1768421549612906800,4.34190673828125,0.39486929774284363,-0.7869936227798462,1.0012781620025635
1768421549622906600,4.35190673828125,0.04964008182287216,-2.519075632095337,1.0755356550216675
1768421549632906800,4.36190673828125,-0.6430214643478394,-3.28792405128479,-0.3936699330806732
1768421549642906600,4.37190673828125,-1.5022953748703003,-1.6757887601852417,-0.8183127641677856
1768421549652906800,4.38190673828125,-1.6286178827285767,-1.1355005502700806,-0.2978871464729309
1768421549662906600,4.39190673828125,-1.0178388357162476,-0.9607347846031189,0.4406571686267853
1768421549672906800,4.40190673828125,-0.2944904863834381,-0.4866444170475006,0.7227815389633179
1768421549682907600,4.41190771484375,0.13262882828712463,-0.38976743817329407,0.38670289516448975
1768421549692907500,4.421907470703125,0.2865310311317444,-0.5141258239746094,-0.1290062665939331
1768421549702907600,4.43190771484375,0.3998410701751709,-0.5583635568618774,-0.31679823994636536
1768421549712907800,4.44190771484375,0.5200681090354919,-0.5880035161972046,-0.006729578133672476
1768421549722908000,4.451907958984375,0.5475635528564453,-0.6056007742881775,0.3906251788139343
1768421549732907800,4.46190771484375,0.4008375406265259,-0.5432620644569397,0.5560101866722107
1768421549742907600,4.47190771484375,0.24458903074264526,-0.345655620098114,0.3721148371696472
1768421549752908800,4.48190869140625,0.11176227778196335,-0.15936803817749023,0.1935325711965561
1768421549762908700,4.49190869140625,-0.10243619978427887,0.00141898263245821,0.196430504322052
1768421549772908800,4.50190869140625,-0.39823028445243835,0.1251547783613205,0.3438447415828705
1768421549782908700,4.51190869140625,-0.6433858275413513,0.12744790315628052,0.5779107809066772
1768421549792908500,4.521908447265625,-0.7244055867195129,0.0973813533782959,0.7682575583457947
1768421549802908700,4.53190869140625,-0.7718980312347412,0.04190913215279579,0.8434151411056519
1768421549812908500,4.541908447265625,-0.8068634867668152,-0.0815235897898674,0.7911517024040222
1768421549822909700,4.55190966796875,-0.7614513039588928,-0.18999800086021423,0.5942957997322083
1768421549832909600,4.56190966796875,-0.6698734760284424,-0.24488255381584167,0.31873056292533875
1768421549842909700,4.57190966796875,-0.5918192863464355,-0.25999921560287476,0.05092243850231171
1768421549852909600,4.58190966796875,-0.5932171940803528,-0.33978962898254395,-0.1084538996219635
1768421549862909700,4.59190966796875,-0.6466465592384338,-0.4633798599243164,-0.15161150693893433
1768421549872909800,4.601909912109375,-0.7023047804832458,-0.5063605904579163,-0.1376088708639145
1768421549882909700,4.61190966796875,-0.7736905217170715,-0.4734680652618408,-0.1390133500099182
1768421549892910600,4.62191064453125,-0.8313490748405457,-0.385891854763031,-0.2051369696855545
1768421549902910700,4.63191064453125,-0.8413878083229065,-0.25962212681770325,-0.3095282018184662
1768421549912910600,4.64191064453125,-0.7990590333938599,-0.19219115376472473,-0.3826056122779846
1768421549922910700,4.65191064453125,-0.7291740775108337,-0.1978999525308609,-0.39669349789619446
1768421549932910600,4.66191064453125,-0.6579337120056152,-0.2494044303894043,-0.36720219254493713
1768421549942910700,4.67191064453125,-0.6106070280075073,-0.33829155564308167,-0.3415069878101349
1768421549952910600,4.68191064453125,-0.5797423124313354,-0.47566086053848267,-0.3020874261856079
1768421549962911500,4.691911376953125,-0.5501155257225037,-0.6043148636817932,-0.225967139005661
1768421549972911600,4.70191162109375,-0.47029104828834534,-0.6797462105751038,-0.13271816074848175
1768421549982911500,4.711911376953125,-0.27027401328086853,-0.5997052192687988,0.0002836589701473713
1768421549992911600,4.72191162109375,0.05231789872050285,-0.38748884201049805,0.3832851052284241
1768421550002911500,4.731911376953125,0.4249022901058197,-0.5435768961906433,1.1926875114440918
1768421550012911900,4.741911865234375,0.8189321756362915,-1.8885059356689453,1.2169675827026367
1768421550022911700,4.751911865234375,0.8239514827728271,-3.095468759536743,-0.44008564949035645
1768421550032912600,4.76191259765625,0.5728753209114075,-0.6428749561309814,-1.1935522556304932
1768421550042912800,4.771912841796875,0.9739198088645935,0.08434796333312988,-0.6949556469917297
1768421550052912600,4.78191259765625,1.2773535251617432,-0.9223591089248657,-0.297671377658844
1768421550062912800,4.791912841796875,0.9625107645988464,-0.9586091637611389,-0.34137916564941406
1768421550072912600,4.80191259765625,0.612640917301178,-0.46337223052978516,-0.33488717675209045
1768421550082912800,4.811912841796875,0.30471980571746826,-0.14588375389575958,-0.15863192081451416
1768421550092912600,4.82191259765625,0.0026883056852966547,0.03865653648972511,0.12209376692771912
1768421550102913500,4.83191357421875,-0.1894756704568863,0.2490486055612564,0.4461180865764618
1768421550112913700,4.84191357421875,-0.22255505621433258,0.49855244159698486,0.6751997470855713
1768421550122913500,4.85191357421875,-0.27746763825416565,0.8436489701271057,0.7410515546798706
1768421550132913700,4.86191357421875,-0.5100622773170471,1.1240458488464355,0.555359423160553
1768421550142913500,4.87191357421875,-0.7757861614227295,1.116607666015625,0.17406702041625977
1768421550152913700,4.88191357421875,-1.0173710584640503,0.9483802914619446,-0.16274884343147278
1768421550162913800,4.891913818359375,-1.103263020515442,0.8611611723899841,-0.2811984717845917
1768421550172914700,4.901914794921875,-0.964323103427887,0.7484210133552551,-0.1765436977148056
1768421550182914800,4.911914794921875,-0.6937933564186096,0.5906685590744019,0.012841809540987015
1768421550192914700,4.921914794921875,-0.4923308491706848,0.445263147354126,0.12909890711307526
1768421550202914800,4.931914794921875,-0.332302451133728,0.4165997803211212,0.12281692028045654
1768421550212914700,4.941914794921875,-0.1574518233537674,0.48036304116249084,0.04824042692780495
1768421550222914800,4.951914794921875,0.02440558560192585,0.5704714059829712,-0.016081569716334343
1768421550232914700,4.961914794921875,0.17929770052433014,0.6540980935096741,-0.05173144116997719
1768421550242915600,4.97191552734375,0.29507675766944885,0.7440112233161926,-0.06263069808483124
1768421550252915700,4.981915771484375,0.3499259054660797,0.9115927219390869,-0.10260075330734253
1768421550262915600,4.99191552734375,0.355697363615036,1.1407482624053955,-0.2308129519224167
1768421550272915700,5.001915771484375,0.34135597944259644,1.3401991128921509,-0.4501112103462219
1768421550282915600,5.01191552734375,0.31183117628097534,1.413317084312439,-0.7091050148010254
1768421550292915500,5.02191552734375,0.2607586681842804,1.4179933071136475,-0.9116330742835999
1768421550302915600,5.03191552734375,0.17247246205806732,1.4083625078201294,-1.0005491971969604
1768421550312916700,5.041916748046875,0.039867550134658813,1.4256958961486816,-0.9603761434555054
1768421550322916900,5.051916748046875,-0.11890645325183868,1.4745454788208008,-0.8126116991043091
1768421550332916700,5.061916748046875,-0.24377621710300446,1.4848917722702026,-0.6488456726074219
1768421550342916600,5.07191650390625,-0.3037121295928955,1.4642430543899536,-0.5154332518577576
1768421550352916700,5.081916748046875,-0.3407503068447113,1.437103271484375,-0.41409674286842346
1768421550362916600,5.09191650390625,-0.339877188205719,1.6491515636444092,-0.2772713601589203
1768421550372916700,5.101916748046875,-0.2126270979642868,2.2775094509124756,-0.017411567270755768
1768421550382917600,5.111917724609375,0.07296941429376602,2.383798360824585,0.4005463123321533
1768421550392917800,5.121917724609375,0.3889167308807373,0.963983416557312,0.9074845910072327
1768421550402917600,5.131917724609375,-0.009163527749478817,-2.1574628353118896,1.6205254793167114
1768421550412917500,5.14191748046875,-1.612213373184204,-2.9486796855926514,1.7304010391235352
1768421550422917600,5.151917724609375,-3.137031078338623,-0.5799171328544617,1.4208418130874634
1768421550432918000,5.16191796875,-3.0186920166015625,0.33195269107818604,1.3161410093307495
1768421550442918100,5.171918212890625,-1.3973418474197388,1.124449610710144,0.7073429226875305
1768421550452919000,5.1819189453125,0.47280436754226685,2.0857269763946533,-0.337211936712265
1768421550462919000,5.1919189453125,1.0245444774627686,2.4313201904296875,-1.281721591949463
1768421550472919000,5.2019189453125,0.8225868344306946,2.255211114883423,-1.3766552209854126
1768421550482919000,5.2119189453125,0.42555877566337585,2.1049952507019043,-0.523025631904602
1768421550492919000,5.2219189453125,-0.036032531410455704,1.8847802877426147,0.5707764625549316
1768421550502919000,5.2319189453125,-0.25246432423591614,1.5478219985961914,1.334781289100647
1768421550512919000,5.2419189453125,-0.3218569755554199,1.430848240852356,1.735985517501831
1768421550522920200,5.251920166015625,-0.23162588477134705,1.452876329421997,1.7339004278182983
1768421550532920000,5.261920166015625,-0.18037761747837067,1.6778348684310913,1.4060137271881104
1768421550542920200,5.271920166015625,-0.23167558014392853,2.0269172191619873,0.8450760245323181
1768421550552920000,5.281920166015625,-0.3269354999065399,2.430537223815918,0.2941300570964813
1768421550562920200,5.291920166015625,-0.42761945724487305,2.676227331161499,-0.027823152020573616
1768421550572920000,5.301920166015625,-0.4901414215564728,2.681774139404297,-0.0922016128897667
1768421550582920200,5.311920166015625,-0.576072633266449,2.549384355545044,0.003585136029869318
1768421550592920000,5.321920166015625,-0.7039422392845154,2.3356454372406006,0.15178260207176208
1768421550602921000,5.3319208984375,-0.8406288623809814,2.131103515625,0.2828185558319092
1768421550612921000,5.341921142578125,-0.9233106970787048,1.9859158992767334,0.3900885581970215
1768421550622921000,5.3519208984375,-0.9380890130996704,1.9248336553573608,0.49781468510627747
1768421550632921000,5.361921142578125,-0.892859697341919,1.8919014930725098,0.531511127948761
1768421550642921000,5.3719208984375,-0.8261838555335999,1.7009196281433105,0.4398438632488251
1768421550652921000,5.381921142578125,-0.7975963950157166,1.5012760162353516,0.3258528411388397
1768421550662921000,5.3919208984375,-0.7533043026924133,1.5368744134902954,0.2256777286529541
1768421550672921900,5.401921875,-0.6885663270950317,1.6839075088500977,0.12811654806137085
1768421550682922200,5.411922119140625,-0.631770133972168,1.717069149017334,0.0350533127784729
1768421550692922000,5.421922119140625,-0.6057819128036499,1.5668632984161377,-0.10161132365465164
1768421550702922000,5.431921875,-0.604404628276825,1.3687074184417725,-0.24880971014499664
1768421550712922000,5.441922119140625,-0.6207844018936157,1.2138952016830444,-0.3410794734954834
1768421550722922000,5.451921875,-0.6817665696144104,1.1015839576721191,-0.33679574728012085
1768421550732922000,5.461922119140625,-0.7532452344894409,1.033670425415039,-0.2903643250465393
1768421550742923000,5.471923095703125,-0.8075751662254333,0.9794561266899109,-0.2510043680667877
1768421550752923100,5.481923095703125,-0.7712209224700928,1.0949268341064453,-0.20358812808990479
1768421550762923000,5.491923095703125,-0.545512855052948,1.338505506515503,0.035912659019231796
1768421550772923000,5.5019228515625,-0.14500458538532257,1.745712161064148,0.805924654006958
1768421550782923000,5.511923095703125,0.37787073850631714,1.1436362266540527,1.1474732160568237
1768421550792923000,5.5219228515625,0.7391996383666992,0.26890304684638977,-0.07461326569318771
1768421550802923000,5.531923095703125,0.8318189382553101,1.2948379516601562,-1.3316494226455688
1768421550812924000,5.541923828125,0.9896184206008911,2.5963339805603027,-0.9835636615753174
1768421550822923800,5.551923828125,1.1168315410614014,2.272447109222412,-0.23879143595695496
1768421550832924200,5.561924072265625,0.8060805797576904,1.6126922369003296,-0.052530210465192795
1768421550842924000,5.571924072265625,0.26295629143714905,1.5166854858398438,-0.28075554966926575
1768421550852924200,5.581924072265625,-0.17038369178771973,1.481313943862915,-0.21690413355827332
1768421550862924000,5.591924072265625,-0.2631073296070099,1.449697494506836,0.34508875012397766
1768421550872924200,5.601924072265625,-0.12073765695095062,1.4123767614364624,0.8621580004692078
1768421550882925000,5.611925048828125,0.12809838354587555,1.2803184986114502,0.9535632133483887
1768421550892925000,5.621925048828125,0.31575480103492737,1.1833463907241821,0.6977290511131287
1768421550902925000,5.631925048828125,0.34540531039237976,1.15791916847229,0.37595701217651367
1768421550912925000,5.641925048828125,0.1458250880241394,1.1450254917144775,0.15734049677848816
1768421550922925000,5.651925048828125,-0.19786089658737183,1.1559621095657349,0.1420184224843979
1768421550932925000,5.661925048828125,-0.4635586142539978,1.0467458963394165,0.26546791195869446
1768421550942925000,5.671925048828125,-0.5431860685348511,0.8854323029518127,0.31127628684043884
1768421550952925000,5.681925048828125,-0.4744139611721039,0.7880431413650513,0.24567967653274536
1768421550962925800,5.69192578125,-0.33754080533981323,0.80589759349823,0.14148715138435364
1768421550972926000,5.701926025390625,-0.16262201964855194,0.9120512008666992,0.07683039456605911
1768421550982926000,5.711926025390625,0.0256668571382761,1.0469820499420166,0.11533545702695847
1768421550992926200,5.72192626953125,0.11968469619750977,1.1090142726898193,0.21430598199367523
1768421551002926000,5.731926025390625,0.10522504895925522,1.0771727561950684,0.2785361409187317
1768421551012926200,5.74192626953125,0.08742927014827728,1.0424991846084595,0.2853993773460388
1768421551022926000,5.751926025390625,0.15943309664726257,1.0258241891860962,0.23375943303108215
1768421551032927000,5.761927001953125,0.27657249569892883,0.9760158658027649,0.13517694175243378
1768421551042927000,5.771927001953125,0.39876487851142883,0.9698898792266846,0.0008220169693231583
1768421551052927000,5.781927001953125,0.5153431296348572,0.9600976705551147,-0.14855654537677765
1768421551062927000,5.791927001953125,0.6330044269561768,0.9595395922660828,-0.34216010570526123
1768421551072927000,5.801927001953125,0.7346215844154358,0.9400007724761963,-0.5273334383964539
1768421551082927000,5.811927001953125,0.8402256369590759,0.985110342502594,-0.6180974245071411
1768421551092927000,5.821927001953125,0.8990186452865601,0.9872182607650757,-0.6406562924385071
1768421551102928000,5.831927978515625,0.8899251222610474,0.9856204986572266,-0.6372331380844116
1768421551112928000,5.841927978515625,0.8233913779258728,1.0020966529846191,-0.6084976196289062
1768421551122927900,5.851927978515625,0.7281671166419983,0.9494593739509583,-0.5896037817001343
1768421551132928300,5.86192822265625,0.614392101764679,0.8166592717170715,-0.6137959361076355
1768421551142928100,5.87192822265625,0.47438573837280273,0.6346223950386047,-0.6852990388870239
1768421551152928000,5.881927978515625,0.3217916786670685,0.5109063386917114,-0.6963713765144348
1768421551162928000,5.89192822265625,0.2187330275774002,0.7054722905158997,-0.4556955099105835
1768421551172928000,5.901927978515625,0.2895214557647705,1.1632909774780273,0.19303694367408752
1768421551182929200,5.91192919921875,0.5218322277069092,0.15953712165355682,0.9736131429672241
1768421551192929000,5.921928955078125,0.20819950103759766,-1.5244898796081543,1.2072824239730835
1768421551202929000,5.931928955078125,-0.6251294016838074,-1.3449393510818481,0.13400693237781525
1768421551212929000,5.941928955078125,-1.3223567008972168,-0.3393894135951996,-0.5905358195304871
1768421551222929000,5.951928955078125,-1.5838241577148438,0.19842660427093506,-0.395167738199234
1768421551232929000,5.961928955078125,-0.7723230123519897,-0.04730327054858208,-0.0672479197382927
1768421551242929000,5.971928955078125,0.3244113028049469,0.027819562703371048,0.28183120489120483
1768421551252930000,5.981929931640625,0.9854425191879272,0.4500133991241455,0.36874401569366455
1768421551262930000,5.991929931640625,1.1246837377548218,0.653286337852478,0.012264229357242584
1768421551272929800,6.0019296875,0.9314330220222473,0.43040454387664795,-0.42960479855537415
1768421551282930000,6.011929931640625,0.5972068905830383,-0.25938665866851807,-0.5750522613525391
1768421551292930000,6.021929931640625,0.3506737947463989,-1.0190197229385376,-0.34740716218948364
1768421551302930200,6.03193017578125,0.23435115814208984,-1.5176018476486206,0.004175469279289246
1768421551312930000,6.041929931640625,0.2831093668937683,-1.5576741695404053,0.20804843306541443
1768421551322931000,6.051930908203125,0.4805462658405304,-1.2468427419662476,0.19626137614250183
1768421551332931000,6.06193115234375,0.7352374196052551,-0.8974366188049316,0.04297968000173569
1768421551342931000,6.071930908203125,0.8303871750831604,-0.7466690540313721,-0.09286101907491684
1768421551352931000,6.08193115234375,0.72050541639328,-0.7052127122879028,-0.1273912936449051
1768421551362931000,6.091930908203125,0.5519617199897766,-0.6833556294441223,0.010023197159171104
1768421551372931000,6.10193115234375,0.4126777946949005,-0.6679036617279053,0.2454431802034378
1768421551382931000,6.111930908203125,0.23779761791229248,-0.6896705031394958,0.44859933853149414
1768421551392931000,6.12193115234375,0.08245169371366501,-0.8122211694717407,0.5741585493087769
1768421551402932000,6.131931884765625,-0.019986648112535477,-0.9577636122703552,0.5888569355010986
1768421551412931800,6.141931884765625,-0.07975464314222336,-1.0908536911010742,0.533023476600647
1768421551422932000,6.151931884765625,-0.12271329015493393,-1.160593867301941,0.4663398265838623
1768421551432931000,6.16193115234375,-0.16387218236923218,-1.10858952999115,0.37229108810424805
1768421551442931200,6.17193115234375,-0.2092425525188446,-0.982943594455719,0.25901705026626587
1768421551452931000,6.18193115234375,-0.2727679908275604,-0.8443105816841125,0.13616836071014404
1768421551462931200,6.19193115234375,-0.3387387990951538,-0.7687967419624329,0.045579828321933746
1768421551472932000,6.20193212890625,-0.3725002110004425,-0.7854769229888916,-0.01787770912051201
1768421551482932000,6.211931884765625,-0.3689836263656616,-0.8045973181724548,-0.07482067495584488
1768421551492932000,6.22193212890625,-0.2978370189666748,-0.7207658290863037,-0.126878023147583
1768421551502932000,6.231931884765625,-0.21825028955936432,-0.6209638714790344,-0.20971040427684784
1768421551512932000,6.24193212890625,-0.12387025356292725,-0.700343668460846,-0.34118402004241943
1768421551522932000,6.251931884765625,-0.04292980954051018,-0.8046435117721558,-0.3985131084918976
1768421551532932000,6.26193212890625,0.08037321269512177,-0.8556364178657532,-0.2481805980205536
1768421551542933000,6.27193310546875,0.2768152058124542,-0.8865971565246582,0.17467069625854492
1768421551552932900,6.281932861328125,0.5945561528205872,-0.9751299619674683,0.5967380404472351
1768421551562933000,6.29193310546875,1.051498293876648,-1.3741077184677124,0.25636038184165955
1768421551572932900,6.301932861328125,1.2677512168884277,-1.117234706878662,-0.37773799896240234
1768421551582933000,6.31193310546875,1.0097259283065796,-0.13351215422153473,-0.4398132562637329
1768421551592932900,6.321932861328125,0.8446492552757263,-0.20806574821472168,-0.38847947120666504
1768421551602933200,6.331933349609375,0.7124118804931641,-0.7824065685272217,-0.4079990088939667
1768421551612933000,6.34193310546875,0.8410377502441406,-0.9058533906936646,-0.6014512777328491
1768421551622934000,6.35193408203125,0.8492376208305359,-0.6689308285713196,-0.71467524766922
1768421551632934100,6.36193408203125,0.6377698183059692,-0.2300264537334442,-0.27317237854003906
1768421551642934000,6.37193408203125,0.5113005042076111,-0.08564676344394684,0.4453476667404175
1768421551652934100,6.38193408203125,0.4635298252105713,-0.10643219947814941,0.8532147407531738
1768421551662934000,6.39193408203125,0.40208640694618225,-0.05946787819266319,0.90053391456604
1768421551672934100,6.40193408203125,0.32253700494766235,-0.009094983339309692,0.9044516682624817
1768421551682934000,6.41193408203125,0.1724698543548584,-0.15126894414424896,0.8042989373207092
1768421551692935000,6.421934814453125,-0.047978900372982025,-0.22029729187488556,0.6460501551628113
1768421551702935000,6.43193505859375,-0.19796133041381836,-0.2027750015258789,0.5983957648277283
1768421551712935000,6.441934814453125,-0.22707980871200562,-0.2702515125274658,0.6407173871994019
1768421551722935000,6.45193505859375,-0.2135036736726761,-0.34388789534568787,0.7318586707115173
1768421551732935000,6.461934814453125,-0.21732398867607117,-0.3834131956100464,0.8419606685638428
1768421551742935000,6.47193505859375,-0.20517784357070923,-0.4069949984550476,0.9542391300201416
1768421551752935200,6.48193505859375,-0.1518019735813141,-0.442080557346344,1.0053446292877197
1768421551762936000,6.49193603515625,-0.06279967725276947,-0.5110664963722229,0.9759886264801025
1768421551772936200,6.501936279296875,0.009734440594911575,-0.5594590306282043,0.9540337920188904
1768421551782936000,6.51193603515625,0.09026280045509338,-0.581365704536438,0.9581445455551147
1768421551792936200,6.521936279296875,0.16769978404045105,-0.5714571475982666,0.951538622379303
1768421551802936000,6.53193603515625,0.23931320011615753,-0.4541720747947693,0.8616500496864319
1768421551812936200,6.541936279296875,0.3333509862422943,-0.2150886505842209,0.6758503317832947
1768421551822936000,6.55193603515625,0.4994736909866333,0.09238206595182419,0.45278680324554443
1768421551832936000,6.56193603515625,0.6372222900390625,0.34461671113967896,0.26663103699684143
1768421551842937000,6.57193701171875,0.6840459704399109,0.42998990416526794,0.16169476509094238
1768421551852937000,6.58193701171875,0.6415603160858154,0.34176310896873474,0.1334300935268402
1768421551862937000,6.59193701171875,0.5109878778457642,0.16735845804214478,0.18827523291110992
1768421551872937000,6.60193701171875,0.3207678496837616,0.08803088217973709,0.37449249625205994
1768421551882936800,6.611936767578125,0.09441892802715302,0.07596023380756378,0.6942481994628906
1768421551892937000,6.62193701171875,-0.07180573046207428,0.06685461848974228,1.0662182569503784
1768421551902937000,6.63193701171875,-0.14584562182426453,0.10641919821500778,1.355347990989685
1768421551912938200,6.641938232421875,-0.07544522732496262,0.18114404380321503,1.4814997911453247
1768421551922938000,6.651938232421875,0.08095509558916092,0.4220573306083679,1.456694483757019
1768421551932938000,6.66193798828125,0.22147120535373688,0.8229086399078369,1.170898199081421
1768421551942938000,6.671938232421875,0.34343916177749634,1.0928921699523926,0.6829056143760681
1768421551952938000,6.68193798828125,0.39387616515159607,1.0700256824493408,0.32297375798225403
1768421551962938000,6.691938232421875,0.3014667332172394,0.8410671353340149,0.3519573211669922
1768421551972938000,6.70193798828125,0.03155163675546646,0.5142104625701904,0.7388302087783813
1768421551982938000,6.711938232421875,-0.06869864463806152,0.250430166721344,1.2254459857940674
1768421551992939000,6.72193896484375,-0.09744507074356079,0.09699373692274094,1.654300570487976
1768421552002939000,6.73193896484375,-0.1486484557390213,0.10225893557071686,1.9338167905807495
1768421552012939000,6.74193896484375,-0.08893691748380661,0.20814594626426697,1.939085602760315
1768421552022939000,6.75193896484375,0.2035558819770813,0.33521056175231934,1.730099081993103
1768421552032939000,6.76193896484375,0.5589057207107544,0.4629610776901245,1.5060579776763916
1768421552042939000,6.77193896484375,0.6686341762542725,0.4572124183177948,1.3418142795562744
1768421552052939000,6.78193896484375,0.5545797944068909,0.41476160287857056,1.3110542297363281
1768421552062940200,6.791940185546875,0.3655445873737335,0.5078714489936829,1.3682647943496704
1768421552072940000,6.80193994140625,0.2668140232563019,0.6865642070770264,1.4573105573654175
1768421552082940200,6.811940185546875,0.3376805782318115,0.8632462024688721,1.5791488885879517
1768421552092940000,6.82193994140625,0.4416687786579132,1.0307496786117554,1.7092258930206299
1768421552102940200,6.831940185546875,0.5360346436500549,1.2122108936309814,1.8674383163452148
1768421552112940000,6.84193994140625,0.6329178214073181,1.363411545753479,1.9204109907150269
1768421552122940200,6.851940185546875,0.703855574131012,1.4125361442565918,1.8422869443893433
1768421552132941000,6.861941162109375,0.7156741619110107,1.4779326915740967,1.67972731590271
1768421552142941000,6.87194091796875,0.6781836748123169,1.5523159503936768,1.5776375532150269
1768421552152941000,6.881941162109375,0.6527898907661438,1.5804373025894165,1.7038968801498413
1768421552162941000,6.89194091796875,0.6584101915359497,1.5394285917282104,1.9835314750671387
1768421552172941000,6.901941162109375,0.7369396090507507,1.4827195405960083,2.1169285774230957
1768421552182941000,6.91194091796875,0.8409574031829834,1.351660132408142,1.9497929811477661
1768421552192941000,6.921941162109375,0.953657865524292,1.2995697259902954,1.8003286123275757
1768421552202941000,6.93194091796875,1.1181526184082031,1.306731939315796,1.8547680377960205
1768421552212942000,6.941942138671875,1.2026677131652832,1.185855507850647,2.0062687397003174
1768421552222942200,6.951942138671875,1.1859278678894043,0.9333284497261047,2.2468574047088623
1768421552232942000,6.961942138671875,1.1210389137268066,0.7083219885826111,2.551058053970337
1768421552242942200,6.971942138671875,1.1053717136383057,0.4722950756549835,2.7650961875915527
1768421552252942000,6.981942138671875,1.1060798168182373,0.1539091020822525,2.764533758163452
1768421552262942000,6.99194189453125,1.1178035736083984,-0.21169111132621765,2.6937003135681152
1768421552272942000,7.001942138671875,1.1340523958206177,-0.4695596694946289,2.6742539405822754
1768421552282942000,7.01194189453125,1.20760977268219,-0.6974791288375854,2.7596652507781982
1768421552292943000,7.021943115234375,1.3141261339187622,-0.8527196049690247,2.9697787761688232
1768421552302943000,7.03194287109375,1.3634659051895142,-0.8483036160469055,3.2305686473846436
1768421552312943000,7.041943115234375,1.2958242893218994,-0.9226852059364319,3.3507537841796875
1768421552322943000,7.05194287109375,1.1517856121063232,-1.1718242168426514,3.2317991256713867
1768421552332942800,7.06194287109375,0.9519503712654114,-1.49836266040802,3.1830971240997314
1768421552342943000,7.07194287109375,0.6914136409759521,-1.7672276496887207,3.166849374771118
1768421552352942800,7.08194287109375,0.519578218460083,-1.8293699026107788,2.929136037826538
1768421552362944000,7.091944091796875,0.578044593334198,-1.7358721494674683,2.517200231552124
1768421552372944100,7.101944091796875,0.6536935567855835,-1.803796410560608,2.1124870777130127
1768421552382944000,7.111944091796875,0.7382993698120117,-1.9881701469421387,1.8436356782913208
1768421552392944000,7.121944091796875,0.7988902926445007,-1.806138515472412,1.7586842775344849
1768421552402944000,7.131944091796875,0.6149412989616394,-0.5536325573921204,1.755610466003418
1768421552412944100,7.141944091796875,0.3014504909515381,0.8829135298728943,1.5848580598831177
1768421552422944000,7.151944091796875,0.15680696070194244,2.9509096145629883,1.4059137105941772
1768421552432945000,7.16194482421875,0.2821369469165802,5.338530540466309,1.4582453966140747
1768421552442945800,7.17194580078125,0.7527729868888855,6.9534077644348145,1.5244196653366089
1768421552452945700,7.181945556640625,1.096295952796936,7.265063762664795,1.4388024806976318
1768421552462945800,7.19194580078125,0.8420219421386719,7.23295259475708,1.5423052310943604
1768421552472945700,7.201945556640625,0.42122703790664673,6.904181480407715,1.6397122144699097
1768421552482945800,7.21194580078125,0.274800181388855,6.544525623321533,1.4745306968688965
1768421552492946000,7.22194580078125,0.3667498230934143,6.503000736236572,1.212317705154419
1768421552502945800,7.23194580078125,0.48942211270332336,6.028470039367676,1.0818872451782227
1768421552512947000,7.241947021484375,0.7846319675445557,4.929701805114746,1.1630488634109497
1768421552522946800,7.25194677734375,1.0284076929092407,3.7820332050323486,1.4372453689575195
1768421552532947000,7.261947021484375,0.8647618293762207,3.1626369953155518,1.7545971870422363
1768421552542946800,7.27194677734375,0.3467502295970917,2.305598258972168,2.0839333534240723
1768421552552946700,7.28194677734375,0.2376442551612854,2.2913482189178467,2.0013463497161865
1768421552562946800,7.29194677734375,1.228631854057312,2.767252206802368,1.7228718996047974
1768421552572946700,7.30194677734375,2.2370967864990234,3.478100061416626,1.2930052280426025
1768421552582946800,7.31194677734375,2.2798473834991455,2.8626623153686523,1.2291525602340698
1768421552592947700,7.32194775390625,1.4945056438446045,2.1604881286621094,1.155535101890564
1768421552602947600,7.331947509765625,0.5320335030555725,0.9066901803016663,0.4718562364578247
1768421552612947700,7.34194775390625,-0.21135753393173218,-1.077496886253357,-0.41015952825546265
1768421552622947600,7.351947509765625,-0.38253253698349,-2.333559036254883,-0.5973995327949524
1768421552632948000,7.361947998046875,-0.33368775248527527,-2.239858627319336,-0.09915433079004288
1768421552642947800,7.37194775390625,-0.02399020455777645,-2.0276403427124023,0.06813661754131317
1768421552652948000,7.381947998046875,0.3611612021923065,-2.275053024291992,-0.16932493448257446
1768421552662947800,7.39194775390625,0.5489399433135986,-2.4286434650421143,-0.23686201870441437
1768421552672948700,7.40194873046875,0.6385238766670227,-2.7926998138427734,-0.1523151695728302
1768421552682948900,7.411948974609375,0.7190878391265869,-3.1028048992156982,-0.050598274916410446
1768421552692948700,7.42194873046875,0.8190919160842896,-2.932813882827759,-0.07561175525188446
1768421552702948900,7.431948974609375,0.9798704981803894,-2.8111605644226074,-0.1983511745929718
1768421552712948700,7.44194873046875,1.0925230979919434,-2.7840347290039062,-0.2384868860244751
1768421552722948900,7.451948974609375,1.046808123588562,-2.8854777812957764,-0.1648445576429367
1768421552732948700,7.46194873046875,0.9054938554763794,-2.974700927734375,-0.0327291339635849
1768421552742949600,7.47194970703125,0.8318847417831421,-2.9650747776031494,0.11554992198944092
1768421552752949800,7.48194970703125,0.7435189485549927,-2.7616310119628906,0.2072577327489853
1768421552762949600,7.49194970703125,0.7813732624053955,-2.7008144855499268,0.28522583842277527
1768421552772949800,7.50194970703125,0.8915929794311523,-2.519796848297119,0.3505531847476959
1768421552782950000,7.511949951171875,1.0274521112442017,-2.332014560699463,0.3678663372993469
1768421552792950000,7.521949951171875,0.9913647174835205,-2.171393394470215,0.29893866181373596
1768421552802950000,7.531949951171875,0.86627197265625,-1.9506994485855103,0.15262123942375183
1768421552812950000,7.541949951171875,0.7746896147727966,-1.7408212423324585,0.007676302455365658
1768421552822951000,7.551950927734375,0.6017366051673889,-1.675683617591858,-0.06739505380392075
1768421552832950800,7.56195068359375,0.39840343594551086,-1.7291862964630127,-0.13004273176193237
1768421552842951000,7.571950927734375,0.12070678174495697,-1.692277431488037,-0.24022682011127472
1768421552852950800,7.58195068359375,-0.047908324748277664,-1.6216961145401,-0.350024938583374
1768421552862951000,7.591950927734375,-0.01912030018866062,-1.6117949485778809,-0.39060747623443604
1768421552872950800,7.60195068359375,0.09949582815170288,-1.6619415283203125,-0.4091965854167938
1768421552882950700,7.61195068359375,0.09646624326705933,-1.6905394792556763,-0.4335949718952179
1768421552892950800,7.62195068359375,-0.026030374690890312,-1.6395598649978638,-0.4165845811367035
1768421552902951700,7.63195166015625,-0.11125560104846954,-1.4573032855987549,-0.39409759640693665
1768421552912951800,7.641951904296875,-0.15534663200378418,-1.2190651893615723,-0.36590832471847534
1768421552922951700,7.65195166015625,-0.17037276923656464,-0.983415961265564,-0.294218510389328
1768421552932951800,7.661951904296875,-0.1803625524044037,-0.7704464197158813,-0.20548728108406067
1768421552942952000,7.671951904296875,-0.18425489962100983,-0.5960012078285217,-0.12404067069292068
1768421552952951800,7.681951904296875,-0.16232828795909882,-0.446970134973526,-0.05528291314840317
1768421552962952000,7.691951904296875,-0.13276910781860352,-0.3200678825378418,0.0014838729985058308
1768421552972951800,7.701951904296875,-0.10001994669437408,-0.19657844305038452,0.06551185995340347
1768421552982953000,7.711952880859375,-0.06936456263065338,-0.10595692694187164,0.12493550777435303
1768421552992952800,7.721952880859375,-0.03776189684867859,-0.03850545361638069,0.17478427290916443
1768421553002952700,7.73195263671875,-0.013498807325959206,0.010403616353869438,0.20314151048660278
1768421553012952800,7.741952880859375,-0.0018003394361585379,0.05014144256711006,0.22046643495559692
1768421553022952700,7.75195263671875,-0.013280280865728855,0.10481508076190948,0.2746795415878296
1768421553032952800,7.761952880859375,0.009149127639830112,0.0568518191576004,0.2365681231021881
1768421553042952700,7.77195263671875,0.010281090624630451,0.049265794456005096,0.22249682247638702
1768421553052952800,7.781952880859375,0.02733091451227665,-0.007752217818051577,0.15970668196678162
1768421553062953700,7.79195361328125,0.02938484214246273,-0.05148783326148987,0.13232792913913727
1768421553072953600,7.80195361328125,0.0308903269469738,-0.10799771547317505,0.11804113537073135
1768421553082953700,7.81195361328125,0.030669186264276505,-0.163683220744133,0.09792108833789825
1768421553092953900,7.821953857421875,0.012733595445752144,-0.18240338563919067,0.10896468162536621
1768421553102954000,7.8319541015625,0.012875929474830627,-0.2843267023563385,0.11833905428647995
1768421553112953900,7.841953857421875,0.018407847732305527,-0.346384733915329,0.060485873371362686
1768421553122954000,7.8519541015625,0.0043505458161234856,-0.3931751251220703,0.03402393311262131
1768421553132955000,7.861954833984375,-0.018446380272507668,-0.4795462489128113,0.01959226280450821
1768421553142954800,7.871954833984375,-0.038685332983732224,-0.5763733386993408,-0.02728976495563984
1768421553152955000,7.881954833984375,-0.05376814678311348,-0.6408692002296448,-0.08721940964460373
1768421553162954800,7.891954833984375,-0.05322955548763275,-0.7034404873847961,-0.15321025252342224
1768421553172955000,7.901954833984375,-0.052523285150527954,-0.7463197708129883,-0.19851301610469818
1768421553182954800,7.911954833984375,-0.05107424035668373,-0.793225109577179,-0.2192988097667694
1768421553192955000,7.921954833984375,-0.05165427550673485,-0.844184935092926,-0.22192202508449554
1768421553202954800,7.931954833984375,-0.04838123545050621,-0.8806027173995972,-0.2241215705871582
1768421553212955600,7.94195556640625,-0.05722985416650772,-0.8792215585708618,-0.1903074085712433
1768421553222955800,7.951955810546875,-0.03922419250011444,-0.9499366283416748,-0.2438208907842636
1768421553232955600,7.96195556640625,-0.03243419528007507,-0.9455022215843201,-0.25486472249031067
1768421553242956000,7.9719560546875,-0.030858024954795837,-0.9352114796638489,-0.24848659336566925
1768421553252956000,7.981955810546875,-0.025084827095270157,-0.9219398498535156,-0.2394113540649414
1768421553262956000,7.9919560546875,-0.018758628517389297,-0.9029820561408997,-0.2325800359249115
1768421553272956000,8.001955810546875,-0.012883429415524006,-0.8872464895248413,-0.22053402662277222
1768421553282955800,8.011955810546874,-0.009773359633982182,-0.8666068911552429,-0.21116439998149872
1768421553292957000,8.02195703125,-0.001560703502036631,-0.8470747470855713,-0.20061641931533813
1768421553302956800,8.031956787109374,0.006973735522478819,-0.814447283744812,-0.19215238094329834
1768421553312957000,8.04195703125,0.013333896175026894,-0.7733901143074036,-0.17865894734859467
1768421553322956800,8.051956787109376,0.018743768334388733,-0.7221892476081848,-0.1657463163137436
1768421553332956700,8.061956787109375,0.023530801758170128,-0.6641826629638672,-0.14888770878314972
1768421553342956800,8.071956787109375,0.02716417796909809,-0.5825368165969849,-0.12850822508335114
1768421553352956700,8.081956787109375,0.02961854636669159,-0.5001205205917358,-0.1030350923538208
1768421553362956800,8.091956787109375,0.03185318410396576,-0.4215850830078125,-0.08197099715471268
1768421553372957700,8.101957763671875,0.034828998148441315,-0.35891664028167725,-0.056864846497774124
1768421553382957800,8.111957763671874,0.03637388348579407,-0.30601558089256287,-0.035932041704654694
1768421553392957700,8.121957763671874,0.0406181626021862,-0.2597876191139221,-0.014929020777344704
1768421553402957800,8.131957763671876,0.039581261575222015,-0.2177155762910843,0.003787900321185589
1768421553412958000,8.1419580078125,0.038979917764663696,-0.17533455789089203,0.022149063646793365
1768421553422957800,8.151957763671875,0.033988308161497116,-0.13079212605953217,0.0317760594189167
1768421553432957200,8.161957275390625,0.030022330582141876,-0.09034350514411926,0.035950567573308945
1768421553442957000,8.17195703125,0.024742290377616882,-0.057567015290260315,0.03576415032148361
1768421553452957200,8.181957275390625,0.023600859567523003,-0.02852790616452694,0.03940974920988083
1768421553462958000,8.1919580078125,0.022364094853401184,0.0015685888938605785,0.0443868450820446
1768421553472958200,8.201958251953124,0.025154555216431618,0.02078808844089508,0.04596157371997833
1768421553482958000,8.2119580078125,0.022924451157450676,0.02992100641131401,0.04255076125264168
1768421553492958000,8.2219580078125,0.020268214866518974,0.030081860721111298,0.03921728581190109
1768421553502958000,8.2319580078125,0.01934346929192543,0.021535782143473625,0.03436752036213875
1768421553512958000,8.2419580078125,0.01886223629117012,0.007513172458857298,0.02817593701183796
1768421553522958000,8.2519580078125,0.014386024326086044,-0.010791126638650894,0.012845085933804512
1768421553532959200,8.261959228515625,0.01095613930374384,-0.03128441795706749,0.0021580862812697887
1768421553542959000,8.271958984375,0.00784122385084629,-0.053717441856861115,-0.010455676354467869
1768421553552959200,8.281959228515625,0.0035961447283625603,-0.07704539597034454,-0.02319544181227684
1768421553562959000,8.291958984375,0.0024042436853051186,-0.09951553493738174,-0.03369065374135971
1768421553572959200,8.301959228515624,-0.001509005087427795,-0.12101203948259354,-0.039721112698316574
1768421553582959000,8.311958984375,-0.002743195276707411,-0.13889558613300323,-0.04706314951181412
1768421553592959200,8.321959228515626,-0.0018433132208883762,-0.15129047632217407,-0.04983842745423317
1768421553602959000,8.331958984375,-0.004126996733248234,-0.16436977684497833,-0.05293186381459236
1768421553612959200,8.341959228515625,-0.0076383743435144424,-0.16752561926841736,-0.05495906248688698
1768421553622960000,8.351960205078125,-0.009288323111832142,-0.16220039129257202,-0.05694608390331268
1768421553632960000,8.3619599609375,-0.009981278330087662,-0.15348279476165771,-0.05590105801820755
1768421553642960100,8.371960205078125,-0.01237335056066513,-0.14163267612457275,-0.05281195789575577
1768421553652960000,8.3819599609375,-0.012287596240639687,-0.12825535237789154,-0.045153237879276276
1768421553662960000,8.391960205078124,-0.014107000082731247,-0.10785564035177231,-0.038618676364421844
1768421553672960000,8.4019599609375,-0.015714751556515694,-0.08692026883363724,-0.035909175872802734
1768421553682960100,8.411960205078126,-0.017186768352985382,-0.06544651836156845,-0.03524141013622284
1768421553692960000,8.4219599609375,-0.01656385511159897,-0.04931122064590454,-0.028593096882104874
1768421553702961200,8.431961181640625,-0.013214396312832832,-0.03584015369415283,-0.01876549795269966
1768421553712961300,8.441961181640625,-0.01169879175722599,-0.025153156369924545,-0.013560615479946136
1768421553722961200,8.451961181640625,-0.013086162507534027,-0.019492093473672867,-0.013179558329284191
1768421553732961300,8.461961181640625,-0.010135379619896412,-0.007173907943069935,-0.012297519482672215
1768421553742961200,8.471961181640625,-0.00921275932341814,-0.0015094850677996874,-0.013725899159908295
1768421553752961300,8.481961181640624,-0.007613265421241522,-0.010434802621603012,-0.018677249550819397
1768421553762961200,8.491961181640624,-0.003736454527825117,-0.027468513697385788,-0.009299119934439659
1768421553772961000,8.5019609375,-0.0005142957670614123,-0.03507530316710472,-0.0023839552886784077
1768421553782962200,8.511962158203126,0.0019446598598733544,-0.0371331162750721,0.0048756226897239685
1768421553792962000,8.521962158203126,0.004643773660063744,-0.03545638918876648,0.003121931105852127
1768421553802962200,8.531962158203125,0.0023451135493814945,-0.03000505082309246,0.0014335194136947393
1768421553812962000,8.541962158203125,0.0025749444030225277,-0.03101172484457493,-0.006009216886013746
1768421553822962000,8.5519619140625,0.0032185143791139126,-0.03604535385966301,-0.01171855442225933
1768421553832962000,8.561962158203125,0.005577010102570057,-0.04584871605038643,-0.013690890744328499
1768421553842962000,8.5719619140625,0.006552253384143114,-0.05436033010482788,-0.014632844366133213
1768421553852962300,8.58196240234375,0.006467032246291637,-0.060822490602731705,-0.015240845270454884
1768421553862963200,8.591963134765624,0.005373417399823666,-0.06208017095923424,-0.016429193317890167
1768421553872963000,8.601963134765626,0.006821644492447376,-0.061100661754608154,-0.014829432591795921
1768421553882963200,8.611963134765626,0.005295096896588802,-0.058848414570093155,-0.014669284224510193
1768421553892963000,8.621963134765625,0.005303885322064161,-0.056994322687387466,-0.01573987491428852
1768421553902963200,8.631963134765625,0.004383035935461521,-0.05318504571914673,-0.018371814861893654
1768421553912963000,8.641963134765625,0.004454142414033413,-0.04688027873635292,-0.015952598303556442
1768421553922963200,8.651963134765625,0.0032667650375515223,-0.04408770427107811,-0.01863444410264492
1768421553932963000,8.661963134765625,0.0018515612464398146,-0.03957364708185196,-0.018902890384197235
1768421553942964000,8.6719638671875,0.0019781854934990406,-0.039441417902708054,-0.019380083307623863
1768421553952964000,8.681964111328124,0.0011555349919945002,-0.03491297736763954,-0.01846209168434143
1768421553962964000,8.6919638671875,-0.0008001767564564943,-0.028947656974196434,-0.016690494492650032
1768421553972964000,8.701964111328126,0.0004432530840858817,-0.024119079113006592,-0.014312291517853737
1768421553982964000,8.7119638671875,-0.0014034074265509844,-0.021888671442866325,-0.013761191628873348
1768421553992964000,8.721964111328125,-0.0012705158442258835,-0.019284365698695183,-0.012371021322906017
1768421554002964200,8.731964111328125,-0.002972614485770464,-0.014986563473939896,-0.010488673113286495
1768421554012964400,8.74196435546875,-0.0031451876275241375,-0.014153260737657547,-0.00949930865317583
1768421554022964200,8.751964111328125,-0.0013947958359494805,-0.016309581696987152,-0.009096873924136162
1768421554032965000,8.761965087890625,-0.002935700584203005,-0.0190635547041893,-0.006220126990228891
1768421554042965200,8.77196533203125,-0.0031470272224396467,-0.020782258361577988,-0.00616513192653656
1768421554052965000,8.781965087890624,-0.002026102738454938,-0.023243818432092667,-0.005322773940861225
1768421554062965200,8.79196533203125,-0.0033687849063426256,-0.021657753735780716,-0.004531580954790115
1768421554072965000,8.801965087890625,-0.0020297474693506956,-0.019610848277807236,-0.006826693192124367
1768421554082965200,8.81196533203125,-0.0033888202160596848,-0.02157985046505928,-0.00986320711672306
1768421554092965000,8.821965087890625,-0.000608746544457972,-0.02102751098573208,-0.00991966761648655
1768421554102965000,8.831965087890625,-0.0010417243465781212,-0.021725011989474297,-0.008304741233587265
1768421554112966100,8.841966064453125,-0.0004422469064593315,-0.021164949983358383,-0.0061699519865214825
1768421554122966000,8.851966064453125,-0.00043697271030396223,-0.021902358159422874,-0.006956900004297495
1768421554132966100,8.861966064453124,-0.00020367978140711784,-0.02198678068816662,-0.008245337754487991
1768421554142966000,8.871966064453124,0.0014953973004594445,-0.023423999547958374,-0.010787038132548332
1768421554152966100,8.881966064453126,0.0005129572236910462,-0.018500346690416336,-0.009996611624956131
1768421554162966300,8.89196630859375,0.0002342528896406293,-0.016432233154773712,-0.01298118568956852
1768421554172966100,8.901966064453125,0.0008638241561129689,-0.015401325188577175,-0.013559358194470406
1768421554182966300,8.91196630859375,0.0015540998429059982,-0.015223152935504913,-0.014633581973612309
1768421554192967200,8.92196728515625,0.0009090822422876954,-0.017463404685258865,-0.0148303909227252
1768421554202967000,8.931967041015625,0.0006043275352567434,-0.018785547465085983,-0.015209060162305832
1768421554212967200,8.94196728515625,0.001769726863130927,-0.01702546328306198,-0.0159869696944952
1768421554222967000,8.951967041015624,0.0034216376952826977,-0.016372056677937508,-0.013868231326341629
1768421554232967200,8.96196728515625,0.0026634358800947666,-0.014575755223631859,-0.013528145849704742
1768421554242967000,8.971967041015626,0.0026816686149686575,-0.016868332400918007,-0.014408007264137268
1768421554252967200,8.98196728515625,0.0022536986507475376,-0.02002231404185295,-0.014093222096562386
1768421554262967000,8.991967041015625,0.0017235706327483058,-0.021418467164039612,-0.013877365738153458
1768421554272968000,9.001968017578125,0.002672454807907343,-0.025286708027124405,-0.011798767372965813
1768421554282968000,9.011968017578125,0.003275211900472641,-0.029637929052114487,-0.014508383348584175
1768421554292968000,9.021968017578125,0.00245602335780859,-0.031196678057312965,-0.014303585514426231
1768421554302968000,9.031968017578125,0.0026297506410628557,-0.03067055158317089,-0.015167546458542347
1768421554312968200,9.04196826171875,0.0030430732294917107,-0.02674691751599312,-0.015911899507045746
1768421554322968300,9.05196826171875,0.0012008389458060265,-0.022901449352502823,-0.017953792586922646
1768421554332968200,9.06196826171875,-0.0005238241283223033,-0.021602625027298927,-0.017052579671144485
1768421554342968300,9.07196826171875,0.000346700893715024,-0.015803752467036247,-0.017498185858130455
1768421554352968200,9.08196826171875,-0.002208868507295847,-0.011677185073494911,-0.01626221276819706
1768421554362969000,9.091968994140625,-0.0036222864873707294,-0.006727669388055801,-0.014551556669175625
1768421554372969200,9.10196923828125,-0.0038646343164145947,-0.0031398585997521877,-0.012350187636911869
1768421554382969000,9.111968994140625,-0.0028305219020694494,-0.0017666197381913662,-0.012832574546337128
1768421554392969200,9.12196923828125,-0.0014382211957126856,0.0006046588532626629,-0.010634934529662132
1768421554402969000,9.131968994140625,-0.0028054951690137386,0.00015766732394695282,-0.009155194275081158
1768421554412969200,9.14196923828125,-0.0021966961212456226,-0.0011352971196174622,-0.008100315928459167
1768421554422969000,9.151968994140624,-0.002423639874905348,-0.002183153759688139,-0.003807719796895981
1768421554432969500,9.161969482421876,-0.0007136240601539612,-0.0034910321701318026,-0.004138750955462456
1768421554442971000,9.171970947265624,-0.0009961097966879606,-0.00583510659635067,-0.0009186677634716034
1768421554452970800,9.181970703125,-0.00038438173942267895,-0.004447866231203079,-0.0007120063528418541
1768421554462970600,9.191970703125,-0.0006326346192508936,-0.0049401503056287766,0.001111919991672039
1768421554472970800,9.201970703125,0.000018508173525333405,-0.004910056479275227,0.002781189512461424
1768421554482970600,9.211970703125,-0.00036592897959053516,-0.0038879490457475185,0.00301044387742877
1768421554492970800,9.221970703125,0.0021086803171783686,-0.004526575095951557,0.004170783329755068
1768421554502970600,9.231970703125,0.0034733032807707787,-0.006060030777007341,0.0035344604402780533
1768421554512970800,9.241970703125,0.004481575917452574,-0.0036261677742004395,0.0021586716175079346
1768421554522971600,9.2519716796875,0.003357028355821967,-0.0009245129767805338,0.0013492109719663858
1768421554532971500,9.261971435546876,0.0034153517335653305,0.000573781318962574,0.0027319244109094143
1768421554542971600,9.2719716796875,0.0041017900221049786,-0.00085780443623662,0.004648021422326565
1768421554552971500,9.281971435546875,0.005725252907723188,-0.002200570423156023,0.005204089917242527
1768421554562971600,9.2919716796875,0.0034572884906083345,-0.003890072926878929,0.003991646226495504
1768421554572971500,9.301971435546875,0.004625351168215275,-0.007210502400994301,0.0029010819271206856
1768421554582971600,9.3119716796875,0.004980071913450956,-0.0076612550765275955,0.0023396932519972324
1768421554592971500,9.321971435546875,0.005902857054024935,-0.009657293558120728,0.0007686945609748363
1768421554602971600,9.3319716796875,0.005816662218421698,-0.010067271068692207,0.0002858326770365238
1768421554612972800,9.341972900390624,0.005705075804144144,-0.008950874209403992,0.003419574350118637
1768421554622972700,9.35197265625,0.006640581414103508,-0.004323908593505621,0.00804941076785326
1768421554632972800,9.361972900390626,0.007436334155499935,-0.0029281459283083677,0.006795860826969147
1768421554642972700,9.37197265625,0.005473646800965071,-0.004543875809758902,0.002681079786270857
1768421554652972800,9.381972900390625,0.0032302001491189003,-0.00674710888415575,-0.0004997998476028442
1768421554662972700,9.39197265625,0.0019347923807799816,-0.009220020845532417,-0.0017396560870110989
1768421554672972800,9.401972900390625,0.002625349909067154,-0.006358454469591379,-0.0005404348485171795
1768421554682972700,9.41197265625,0.0006159784970805049,-0.0007744475733488798,0.0015033611562103033
1768421554692973600,9.4219736328125,0.003246649168431759,0.0067148939706385136,0.005870412569493055
1768421554702973700,9.4319736328125,0.0020706746727228165,0.013681728392839432,0.01069709938019514
1768421554712973600,9.4419736328125,0.002350839087739587,0.021274933591485023,0.00735137052834034
1768421554722973700,9.4519736328125,0.00077507842797786,0.01702892780303955,-0.0018851030617952347
1768421554732973600,9.4619736328125,0.0003945126663893461,0.013841655105352402,0.0006499597802758217
1768421554742973400,9.471973388671875,0.0019360908772796392,0.018269557505846024,0.007134176790714264
1768421554752973600,9.4819736328125,0.0015478020068258047,0.024553285911679268,0.011189371347427368
1768421554762973400,9.491973388671875,0.0014789672568440437,0.031187351793050766,0.010354956611990929
1768421554772974800,9.501974853515625,0.0010800256859511137,0.034614838659763336,0.009266522713005543
1768421554782974700,9.511974609375,0.0004006533417850733,0.03439406305551529,0.007422016933560371
1768421554792974600,9.521974609375,0.0018526087515056133,0.03372720628976822,0.006652363575994968
1768421554802974700,9.531974609375,0.0004167105071246624,0.03214476257562637,0.00759216770529747
1768421554812974600,9.541974609375,0.0013450884725898504,0.03337673842906952,0.008655567653477192
1768421554822974700,9.551974609375,-0.0002863309346139431,0.029802383854985237,0.007153446786105633
1768421554832974600,9.561974609375,-0.00019391928799450397,0.028838319703936577,0.006470878608524799
1768421554842974700,9.571974609375,0.0002595243277028203,0.027159197255969048,0.007272610440850258
1768421554852974600,9.581974609375,-0.0017032253090292215,0.026168501004576683,0.008032144047319889
1768421554862975500,9.5919755859375,-0.001004973892122507,0.02764984220266342,0.005274724680930376
1768421554872975600,9.6019755859375,-0.00011654337868094444,0.027797114104032516,0.005959689617156982
1768421554882975500,9.6119755859375,-0.000005898298695683479,0.02804853767156601,0.005874773487448692
1768421554892975600,9.6219755859375,-0.0009257540805265307,0.026404835283756256,0.0033301229123026133
1768421554902975500,9.6319755859375,-0.0020535439252853394,0.026026412844657898,0.004572554957121611
1768421554912975600,9.6419755859375,-0.00032861437648534775,0.02713295817375183,0.005780032370239496
1768421554922975500,9.6519755859375,-0.0005673273699358106,0.023118242621421814,0.006294142920523882
1768421554932975600,9.6619755859375,0.0005328244296833873,0.020715804770588875,0.007300817407667637
1768421554942976800,9.671976806640625,0.0037837796844542027,0.01595565676689148,0.008868698962032795
1768421554952976600,9.6819765625,0.0018300849478691816,0.012938295491039753,0.007095033768564463
1768421554962976800,9.691976806640625,-0.0013154747430235147,0.009195876307785511,0.006396081298589706
1768421554972976600,9.7019765625,-0.000007862690836191177,0.007452304475009441,0.007482384331524372
1768421554982976800,9.711976806640624,0.0012354771606624126,0.005281446501612663,0.006691271904855967
1768421554992976600,9.7219765625,0.001593672321178019,0.004161320626735687,0.005715489853173494
1768421555002976800,9.731976806640626,0.001594566972926259,0.0058754789642989635,0.007002832368016243
1768421555012976600,9.7419765625,0.0009042755700647831,0.00741771562024951,0.007762632332742214
1768421555022977500,9.7519775390625,0.0049073961563408375,0.010063020512461662,0.007225162349641323
1768421555032977700,9.761977783203125,0.004283417947590351,0.011440671980381012,0.008247550576925278
1768421555042977500,9.7719775390625,0.0023420401848852634,0.010339047759771347,0.009543424472212791
1768421555052977700,9.781977783203125,0.0030741430819034576,0.010609891265630722,0.0062296525575220585
1768421555062977500,9.7919775390625,0.001469085575081408,0.010545466095209122,0.006167326122522354
1768421555072977700,9.801977783203125,0.003527709050104022,0.01065092720091343,0.006159602664411068
1768421555082977500,9.8119775390625,0.0030774828046560287,0.012073960155248642,0.009487717412412167
1768421555092977400,9.821977294921876,0.003034073393791914,0.011136261746287346,0.00954044796526432
1768421555102977800,9.831977783203126,0.0034154460299760103,0.01176038570702076,0.007740677334368229
1768421555112978700,9.841978759765626,0.0025019817985594273,0.011116966605186462,0.0067321378737688065
1768421555122978600,9.851978515625,0.0033266213722527027,0.01132349856197834,0.0066043538972735405
1768421555132978700,9.861978759765625,0.0031053125858306885,0.011434819549322128,0.006187036633491516
1768421555142978600,9.871978515625,0.001857402385212481,0.011023493483662605,0.0050249057821929455
1768421555152978700,9.881978759765625,0.0015319640515372157,0.010591793805360794,0.00401716586202383
1768421555162978600,9.891978515625,0.0007514859898947179,0.009499629959464073,0.0064919209107756615
1768421555172978700,9.901978759765624,0.002568827010691166,0.010887935757637024,0.005853028502315283
1768421555182978600,9.911978515625,0.0019208239391446114,0.009997894056141376,0.007153650280088186
1768421555192978700,9.921978759765626,-0.0002539134584367275,0.01062560174614191,0.008114784955978394
1768421555202979600,9.9319794921875,0.000635638483799994,0.011714845895767212,0.007197924889624119
1768421555212979500,9.9419794921875,0.0006777164526283741,0.0148328747600317,0.007150786928832531
1768421555222979600,9.9519794921875,0.001469178358092904,0.01438521035015583,0.0060697332955896854
1768421555232979500,9.9619794921875,-0.000011805444955825806,0.01504620723426342,0.00764818862080574
1768421555242979600,9.9719794921875,0.0007468049298040569,0.013738955371081829,0.009236635640263557
1768421555252979700,9.981979736328125,0.0007505333051085472,0.013887028209865093,0.008544214069843292
1768421555262979800,9.991979736328124,0.0010195423383265734,0.01546337641775608,0.010100990533828735
1768421555272979700,10.001979736328124,0.002511711325496435,0.015450859442353249,0.009720690548419952
1768421555282980600,10.011980712890624,0.00239436118863523,0.015719301998615265,0.009067829698324203
1768421555292980700,10.021980712890626,0.0019070027628913522,0.016160055994987488,0.008999653160572052
1768421555302980600,10.031980712890626,0.0008158304262906313,0.017256207764148712,0.01022313628345728
1768421555312980700,10.041980712890625,0.0019042643252760172,0.01899844780564308,0.01127854734659195
1768421555322980600,10.051980712890625,0.003471875563263893,0.02136429026722908,0.012444809079170227
1768421555332980700,10.061980712890625,0.0037118264008313417,0.020319798961281776,0.015431277453899384
1768421555342980600,10.071980712890625,0.004817098379135132,0.019825642928481102,0.014371316879987717
1768421555352980700,10.081980712890624,0.006791300140321255,0.017431993037462234,0.01245889998972416
1768421555362981600,10.091981689453124,0.00529285054653883,0.01598961651325226,0.010897807776927948
1768421555372981500,10.1019814453125,0.005276871379464865,0.015789346769452095,0.00928819365799427
1768421555382981600,10.111981689453126,0.0058550457470119,0.013212889432907104,0.005843752063810825
1768421555392981500,10.1219814453125,0.004415873438119888,0.010696999728679657,0.005695946514606476
1768421555402981600,10.131981689453125,0.00628138380125165,0.008718399330973625,0.008412735536694527
1768421555412981800,10.141981689453125,0.0056150611490011215,0.009244108572602272,0.012506546452641487
1768421555422981600,10.151981689453125,0.004570021294057369,0.0073283519595861435,0.008042293600738049
1768421555432982300,10.161982177734375,0.00452980725094676,0.004600209183990955,-0.0005059209652245045
1768421555442982100,10.171982177734375,0.0005160544533282518,0.0002322145737707615,-0.006014809478074312
1768421555452983300,10.1819833984375,0.0007397600566036999,-0.002851992379873991,-0.006742384750396013
1768421555462983400,10.1919833984375,-0.0015145809156820178,-0.0038898014463484287,-0.0035615158267319202
1768421555472983300,10.2019833984375,-0.00017447816208004951,-0.0031848629005253315,-0.004615061916410923
1768421555482983400,10.2119833984375,-0.0008179309079423547,-0.000048595014959573746,-0.0024897614493966103
1768421555492983300,10.2219833984375,0.002368008717894554,0.003121365327388048,0.001322820084169507
1768421555502983400,10.2319833984375,0.0011474685743451118,0.005957370158284903,0.0028185462579131126
1768421555512983300,10.2419833984375,-0.0009588254615664482,0.0020662257447838783,-0.006912910845130682
1768421555522983400,10.2519833984375,-0.0015371398767456412,-0.0027900622226297855,-0.011658973060548306
1768421555532984300,10.261984375,-0.002878307830542326,-0.002989000640809536,-0.0066109513863921165
1768421555542984200,10.271984130859375,-0.0008086881134659052,0.0019892514683306217,-0.0029973341152071953
1768421555552984300,10.281984375,-0.0004616782534867525,0.004179701674729586,0.0013252426870167255
1768421555562984200,10.291984130859374,-0.0008684200001880527,0.0033551817759871483,-0.0014848988503217697
1768421555572984300,10.301984375,-0.0015320797683671117,0.0041701095178723335,-0.0018785139545798302
1768421555582984200,10.311984130859376,-0.0012318923836573958,0.0010153446346521378,-0.0032738461159169674
1768421555592984300,10.321984375,-0.0017509424360468984,-0.002048355992883444,-0.003972392994910479
1768421555602984200,10.331984130859375,-0.003005232196301222,-0.0044828904792666435,-0.004239797592163086
1768421555612984000,10.341984130859375,-0.002286977134644985,-0.007349783554673195,-0.006857152096927166
1768421555622985500,10.3519853515625,-0.0011833476601168513,-0.012821254320442677,-0.008377911522984505
1768421555632985300,10.3619853515625,-0.0028289146721363068,-0.015228752046823502,-0.007301728706806898
1768421555642985200,10.371985107421875,-0.0030058056581765413,-0.017207225784659386,-0.008282637223601341
1768421555652985300,10.3819853515625,-0.0034998219925910234,-0.018636545166373253,-0.00917586125433445
1768421555662985200,10.391985107421876,-0.0020015332847833633,-0.018915493041276932,-0.010053550824522972
1768421555672985300,10.4019853515625,-0.0018460046267136931,-0.020485691726207733,-0.01052493043243885
1768421555682985200,10.411985107421875,-0.0030726236291229725,-0.023363249376416206,-0.012210633605718613
1768421555692985300,10.4219853515625,-0.0026646270416677,-0.024395225569605827,-0.010457741096615791
1768421555702986200,10.431986328125,-0.0008530376944690943,-0.029157346114516258,-0.008151568472385406
1768421555712986000,10.441986083984375,-0.000941721023991704,-0.030756840482354164,-0.006892692763358355
1768421555722986200,10.451986328125,-0.001122956513427198,-0.03260094299912453,-0.006151220761239529
1768421555732986000,10.461986083984375,-0.001907789963297546,-0.0319410115480423,-0.008583752438426018
1768421555742986200,10.471986328125,-0.002714285161346197,-0.03017149306833744,-0.007310730405151844
1768421555752986000,10.481986083984374,0.0010450328700244427,-0.026767706498503685,-0.0052790045738220215
1768421555762986200,10.491986328125,0.0018346600700169802,-0.02752457745373249,-0.0025729667395353317
1768421555772986000,10.501986083984375,0.0013891132548451424,-0.02626357041299343,-0.00275992089882493
1768421555782986200,10.511986328125,-0.0013610100140795112,-0.024978989735245705,-0.004166022874414921
1768421555792987400,10.5219873046875,-0.00033063290175050497,-0.02055361494421959,-0.003052555490285158
1768421555802987300,10.5319873046875,0.00021280627697706223,-0.019289137795567513,-0.002978571690618992
1768421555812987400,10.5419873046875,0.0010341251036152244,-0.014026731252670288,-0.001375615131109953
1768421555822987300,10.5519873046875,0.0006533576524816453,-0.012630309909582138,-0.0038936552591621876
1768421555832987400,10.5619873046875,0.00015055283438414335,-0.012206600978970528,-0.00580127676948905
1768421555842987300,10.5719873046875,0.00031547038815915585,-0.010438937693834305,-0.006975750904530287
1768421555852987400,10.5819873046875,-0.000019821571186184883,-0.010568367317318916,-0.006444450002163649
1768421555862987300,10.5919873046875,-0.0001726640621200204,-0.011442957445979118,-0.0062834215350449085
1768421555872988200,10.60198828125,0.00023613113444298506,-0.009235464036464691,-0.005158768501132727
1768421555882988300,10.61198828125,-0.000659123994410038,-0.007127425633370876,-0.004851034842431545
1768421555892988200,10.62198828125,-0.00106951710768044,-0.005620875395834446,-0.004320533014833927
1768421555902988300,10.63198828125,-0.0009391651256009936,-0.005190637893974781,-0.0034858519211411476
1768421555912988200,10.64198828125,-0.0007812398253008723,-0.005525663495063782,-0.004121015779674053
1768421555922988300,10.65198828125,0.00008643849287182093,-0.005474538542330265,-0.0051008849404752254
1768421555932988200,10.66198828125,-0.0011101197451353073,-0.0037245757412165403,-0.00461672293022275
1768421555942988000,10.671988037109376,-0.0020215969998389482,-0.0023712862748652697,-0.0029402165673673153
1768421555952989400,10.681989501953124,-0.0010966812260448933,-0.0018322623800486326,-0.0029042637906968594
1768421555962989300,10.6919892578125,-0.0016577631467953324,-0.0016059116460382938,-0.0013313200324773788
1768421555972989400,10.701989501953125,-0.0017416527261957526,-0.0003531607799232006,-0.0014785928651690483
1768421555982989300,10.7119892578125,-0.0022200217936187983,0.0011062766425311565,-0.0022088191471993923
1768421555992989200,10.7219892578125,-0.002161698415875435,0.0014258562587201595,0.0005038767121732235
1768421556002989300,10.7319892578125,-0.0018700049258768559,0.0014516934752464294,-0.00009722495451569557
1768421556012989200,10.7419892578125,-0.0019514975138008595,0.0007512820884585381,0.0014780350029468536
1768421556022989300,10.7519892578125,-0.00042924692388623953,0.004226410761475563,0.0002990672364830971
1768421556032989200,10.7619892578125,-0.0003757175290957093,0.003272466827183962,-0.0012258589267730713
1768421556042990000,10.771989990234376,-0.0009566950611770153,0.002672627568244934,-0.0019274731166660786
1768421556052990200,10.781990234375,-0.0013567018322646618,0.00048111239448189735,-0.0020284070633351803
1768421556062990000,10.791989990234375,0.0014559394912794232,0.0005028042942285538,-0.0006327605806291103
1768421556072990200,10.801990234375,0.0007326249615289271,-0.0009376993402838707,0.0012056196574121714
1768421556082990000,10.811989990234375,0.0004009195836260915,-0.004617518279701471,0.002265071962028742
1768421556092990200,10.821990234375,0.000676024123094976,-0.004742953460663557,0.0012972794938832521
1768421556102990000,10.831989990234375,0.002727568382397294,-0.005404607392847538,-0.0006919596344232559
1768421556112990500,10.841990478515624,0.0020575171802192926,-0.006194234825670719,-0.0021745413541793823
1768421556122991400,10.851991455078124,0.0014013750478625298,-0.0066266050562262535,-0.0022906772792339325
1768421556132991200,10.8619912109375,0.0007462374051101506,-0.0086269062012434,-0.00222995737567544
1768421556142991400,10.871991455078126,0.000797622196841985,-0.008313179947435856,-0.00013715028762817383
1768421556152991200,10.8819912109375,0.0017875190824270248,-0.007658574730157852,-0.0007028058171272278
1768421556162991400,10.891991455078125,0.001684068818576634,-0.005377599969506264,-0.001810283400118351
1768421556172991200,10.9019912109375,0.0007572888280265033,-0.005484392400830984,-0.008680706843733788
1768421556182991400,10.911991455078125,-0.0014139775885269046,-0.010257694870233536,-0.012845896184444427
1768421556192991200,10.9219912109375,-0.0015950725646689534,-0.013331249356269836,-0.011985961347818375
1768421556202992000,10.9319921875,-0.002676882781088352,-0.01424366980791092,-0.0056991977617144585
1768421556212992300,10.9419921875,-0.0022561033256351948,-0.012506489641964436,-0.006772717460989952
1768421556222992100,10.9519921875,-0.0017173116793856025,-0.010136522352695465,-0.006795728113502264
1768421556232992300,10.9619921875,-0.0026355693116784096,-0.0027451845817267895,-0.005189309362322092
1768421556242992000,10.9719921875,-0.0022813985124230385,0.0008451500907540321,-0.004203307442367077
1768421556252992300,10.9819921875,-0.0008520797127857804,-0.0010520857758820057,-0.007456891238689423
1768421556262992400,10.991992431640625,-0.0032390416599810123,-0.007925831712782383,-0.01424778439104557
1768421556272992300,11.0019921875,-0.0042632934637367725,-0.009063001722097397,-0.01063627190887928
1768421556282993400,11.011993408203125,-0.003508991561830044,-0.005430185701698065,-0.005169721785932779
1768421556292993300,11.0219931640625,-0.0018330644816160202,-0.00028868718072772026,-0.005315662827342749
1768421556302993400,11.031993408203125,-0.0031344739254564047,0.00010253582149744034,-0.005364158656448126
1768421556312993300,11.0419931640625,-0.0031621705275028944,-0.0023963081184774637,-0.007094680797308683
1768421556322993200,11.0519931640625,-0.004124086815863848,-0.004057328682392836,-0.00840531662106514
1768421556332993300,11.0619931640625,-0.0027789240702986717,-0.006632605567574501,-0.006593301426619291
1768421556342993200,11.0719931640625,-0.0023443137761205435,-0.006235254928469658,-0.006145529914647341
1768421556352993300,11.0819931640625,-0.00140581582672894,-0.006101031322032213,-0.007886171340942383
1768421556362993200,11.0919931640625,-0.0023372559808194637,-0.004640038590878248,-0.006803904194384813
1768421556372994300,11.101994384765625,0.0008604012546129525,-0.006067759357392788,-0.004963127430528402
1768421556382994200,11.111994140625,0.00005572137888520956,-0.003055356442928314,-0.006063746754080057
1768421556392994000,11.121994140625,-0.0004763782490044832,-0.004027942661195993,-0.00628931587561965
1768421556402994200,11.131994140625,-0.0003674397012218833,-0.003705949056893587,-0.0057001616805791855
1768421556412994000,11.141994140625,-0.0018361728871241212,-0.0030556051060557365,-0.0066165560856461525
1768421556422994400,11.151994384765626,-0.002010099124163389,-0.0029708859510719776,-0.0044839102774858475
1768421556432994300,11.161994384765626,-0.0006332449847832322,-0.0053916992619633675,-0.00492253340780735
1768421556442994000,11.171993896484375,0.0006612084689550102,-0.003374499035999179,-0.004960224032402039
1768421556452994800,11.181994873046875,-0.00021843367721885443,-0.00592873664572835,-0.0038885679095983505
1768421556462994700,11.19199462890625,-0.002240861300379038,-0.00941532850265503,-0.004751415923237801
1768421556472994800,11.201994873046875,-0.00014761672355234623,-0.009798023849725723,-0.00555835384875536
1768421556482994700,11.21199462890625,-0.0016922428039833903,-0.009911099448800087,-0.007108109537512064
1768421556492994800,11.221994873046874,-0.001376391970552504,-0.011391550302505493,-0.004506467375904322
1768421556502994700,11.23199462890625,0.0010816752910614014,-0.008251666091382504,-0.0047828638926148415
1768421556512995000,11.2419951171875,-0.0004903886001557112,-0.008968856185674667,-0.004407091066241264
1768421556522995000,11.251994873046876,-0.00038200290873646736,-0.009750636294484138,-0.005064767319709063
1768421556532995800,11.261995849609375,-0.0007034465670585632,-0.008573785424232483,-0.004892993252724409
1768421556542996000,11.271995849609375,-0.0015040009748190641,-0.008854886516928673,-0.005150300916284323
1768421556552995800,11.281995849609375,-0.0008648422081023455,-0.00577174499630928,-0.0041622682474553585
1768421556562996000,11.291995849609375,-0.0016853144625201821,-0.0037667853757739067,-0.006234666798263788
1768421556572995800,11.301995849609375,-0.002898117993026972,-0.004774259403347969,-0.005916685331612825
1768421556582996000,11.311995849609374,-0.0008854157058522105,-0.004433897323906422,-0.006928206887096167
1768421556592995800,11.321995849609374,-0.0026465640403330326,-0.005511944647878408,-0.009097084403038025
1768421556602996000,11.331995849609376,-0.0012963413028046489,-0.005997971631586552,-0.008778836578130722
1768421556612996900,11.341996826171876,-0.002487040590494871,-0.007322894409298897,-0.008806534111499786
1768421556622996700,11.351996826171876,0.0005074176006019115,-0.007511179894208908,-0.006393177900463343
1768421556632996900,11.361996826171875,-0.0002760844072327018,-0.007026484236121178,-0.008208654820919037
1768421556642996700,11.371996826171875,-0.0012104453053325415,-0.007928101345896721,-0.007674205116927624
1768421556652996900,11.381996826171875,-0.0015465361066162586,-0.006560035515576601,-0.008577283471822739
1768421556662997000,11.3919970703125,-0.0012311105383560061,-0.005174781661480665,-0.0077049569226801395
1768421556672997000,11.4019970703125,-0.004296941217035055,-0.007411304395645857,-0.008539857342839241
1768421556682997000,11.4119970703125,-0.0012257962953299284,-0.007941685616970062,-0.010006189346313477
1768421556692998000,11.421997802734374,-0.0012170078698545694,-0.006956050172448158,-0.011118324473500252
1768421556702998000,11.431998046875,-0.001803872874006629,-0.005507026799023151,-0.008358610793948174
1768421556712998000,11.441997802734376,-0.00027175631839782,-0.00537839625030756,-0.00839163362979889
1768421556722998000,11.451998046875,-0.0009470871882513165,-0.0060130455531179905,-0.008089017122983932
1768421556732998000,11.461997802734375,-0.0023628235794603825,-0.00411208113655448,-0.009361742064356804
1768421556742997800,11.471997802734375,-0.00256004324182868,-0.006224894896149635,-0.008583255112171173
1768421556752998000,11.481997802734375,-0.002343528438359499,-0.004332985263317823,-0.008434649556875229
1768421556762997800,11.491997802734375,-0.0016085272654891014,-0.004095268435776234,-0.0069465613923966885
1768421556772999000,11.5019990234375,-0.0023435596376657486,-0.00017083436250686646,-0.007203289773315191
1768421556782998800,11.511998779296874,-0.0006554602878168225,-0.000009184703230857849,-0.005422941409051418
1768421556792999000,11.5219990234375,-0.0020594787783920765,0.00004860619083046913,-0.007625375874340534
1768421556802998800,11.531998779296876,-0.001999953296035528,0.0009152153506875038,-0.007513648364692926
1768421556812998700,11.54199853515625,-0.00001989305019378662,0.0005370466969907284,-0.006460101809352636
1768421556822999000,11.5519990234375,-0.000268690986558795,0.0005849706940352917,-0.005097262095659971
1768421556832999000,11.5619990234375,-0.002223717514425516,-0.001053139567375183,-0.004974490497261286
1768421556842999000,11.5719990234375,-0.00002162798773497343,0.0009993547573685646,-0.0049512954428792
1768421556853000000,11.582,-0.0006123170023784041,-0.0018254604656249285,-0.006041327491402626
1768421556862999800,11.591999755859375,-0.00045461964327841997,-0.002888076938688755,-0.006706239189952612
1768421556873000000,11.602,-0.002076751086860895,-0.004265729803591967,-0.007933422923088074
1768421556882999800,11.611999755859374,-0.0010815757559612393,-0.003633893560618162,-0.009667480364441872
1768421556893000000,11.622,0.0009376329835504293,-0.0017869914881885052,-0.007038408424705267
1768421556902999800,11.631999755859376,0.0005214849952608347,-0.00002703070640563965,-0.0038653784431517124
1768421556913000000,11.642,0.0002921868581324816,0.0018259971402585506,-0.0015747942961752415
1768421556922999800,11.651999755859375,0.0008357380283996463,0.0015058848075568676,-0.0031838761642575264
1768421556933000700,11.662000732421875,-0.0007203470449894667,0.001441702712327242,-0.008210858330130577
1768421556943000800,11.672000732421875,-0.0020536226220428944,-0.0004096408374607563,-0.010991053655743599
1768421556953000700,11.682000732421875,-0.002968684770166874,-0.003921551629900932,-0.012387081980705261
1768421556963000800,11.692000732421874,-0.005013895221054554,-0.005945906043052673,-0.011740079149603844
1768421556973001000,11.7020009765625,-0.004099099896848202,-0.0069549777545034885,-0.011215703561902046
1768421556983001000,11.7120009765625,-0.004389924928545952,-0.0019846006762236357,-0.010287584736943245
1768421556993001000,11.7220009765625,-0.0021744410041719675,0.002231182996183634,-0.008197803050279617
1768421557003001000,11.7320009765625,-0.0010499990312382579,0.005648297723382711,-0.0032975194044411182
1768421557013001000,11.7420009765625,-0.002600225154310465,0.002934536896646023,-0.009267527610063553
1768421557023001900,11.752001953125,-0.004252142738550901,-0.004138568416237831,-0.016537344083189964
1768421557033002000,11.762001953125,-0.0047914329916238785,-0.006081876810640097,-0.013613460585474968
1768421557043001900,11.772001953125,-0.0036130540538579226,-0.0038212428335100412,-0.012515684589743614
1768421557053002000,11.782001953125,-0.003197334473952651,-0.0030795526690781116,-0.010934833437204361
1768421557063001900,11.792001953125,-0.004637121222913265,-0.0029510403983294964,-0.010824729688465595
1768421557073002000,11.802001953125,-0.0021044546738266945,-0.004878902807831764,-0.013769653625786304
1768421557083001900,11.812001953125,-0.0027498642448335886,-0.007126214448362589,-0.013959851115942001
1768421557093001700,11.822001708984375,-0.0034223126713186502,-0.006195705849677324,-0.011954490095376968
1768421557103003000,11.8320029296875,-0.0011683948105201125,-0.006335137877613306,-0.008898893371224403
1768421557113002800,11.842002685546875,-0.0015825162408873439,-0.0059804050251841545,-0.010726885870099068
1768421557123003000,11.8520029296875,-0.0011629932560026646,-0.005984394811093807,-0.009096525609493256
1768421557133003000,11.8620029296875,-0.0006727052386850119,-0.006862172391265631,-0.009591873735189438
1768421557143003000,11.8720029296875,-0.0016596252098679543,-0.004303807858377695,-0.00706312945112586
1768421557153003000,11.8820029296875,-0.0024785471614450216,-0.001623069867491722,-0.007739305961877108
1768421557163003000,11.8920029296875,-0.0022844502236694098,0.0016788514330983162,-0.007323127705603838
1768421557173003000,11.9020029296875,0.0001784410560503602,0.005575855262577534,-0.006739895325154066
1768421557183004000,11.91200390625,-0.0019292798824608326,0.00745684839785099,-0.006136036943644285
1768421557193003800,11.922003662109375,-0.0010797313880175352,0.009418799541890621,-0.006390634458512068
1768421557203004000,11.93200390625,-0.0004854161525145173,0.009966200217604637,-0.0025049555115401745
1768421557213003800,11.942003662109375,-0.0012976803118363023,0.012783292680978775,0.00036140461452305317
1768421557223004000,11.95200390625,-0.003837680909782648,0.018958235159516335,-0.00025480473414063454
1768421557233003800,11.962003662109375,-0.0037386114709079266,0.03144020214676857,-0.005216540303081274
1768421557243004000,11.97200390625,-0.004893213976174593,0.04867977648973465,-0.008736220188438892
1768421557253003800,11.982003662109374,-0.003947792109102011,0.05993269383907318,-0.010901103727519512
1768421557263004700,11.992004638671874,-0.003445104695856571,0.0668875128030777,-0.014166442677378654
1768421557273005000,12.002005126953126,-0.0044523123651742935,0.06375190615653992,-0.010779168456792831
1768421557283005000,12.0120048828125,-0.004090606234967709,0.05668671056628227,-0.007466139737516642
1768421557293005000,12.022005126953125,-0.002017601625993848,0.05221819132566452,-0.001684682909399271
1768421557303005000,12.0320048828125,-0.0024177036248147488,0.050953458994627,0.00322337681427598
1768421557313005000,12.042005126953125,-0.0021825465373694897,0.05010843649506569,0.0049533662386238575
1768421557323005000,12.0520048828125,-0.0041388096287846565,0.05353805422782898,0.004619818180799484
1768421557333005000,12.062005126953125,-0.001696957042440772,0.06082739308476448,0.0032637366093695164
1768421557343006000,12.072005859375,-0.0031620850786566734,0.07142770290374756,0.001325707882642746
1768421557353005800,12.082005859375,-0.004150384105741978,0.08338050544261932,-0.0023009846918284893
1768421557363006000,12.092005859375,-0.004805014934390783,0.0936063677072525,-0.00046490132808685303
1768421557373005800,12.102005859375,-0.006491329055279493,0.09788473695516586,0.002199058420956135
1768421557383006000,12.112005859375,-0.004960421938449144,0.10181836038827896,0.005636713933199644
1768421557393005800,12.122005859375,-0.006294399034231901,0.10428844392299652,0.005697700195014477
1768421557403006000,12.132005859375,-0.004686201456934214,0.10692112892866135,0.005320710130035877
1768421557413005800,12.142005859375,-0.005682223942130804,0.10989481210708618,0.006441101897507906
1768421557423006700,12.1520068359375,-0.006024156231433153,0.11075181514024734,0.0054306043311953545
1768421557433006000,12.162006103515624,-0.004686184227466583,0.11149190366268158,0.005046044010668993
1768421557443006000,12.172005859375,-0.005372290499508381,0.11305384337902069,0.0059187887236475945
1768421557453006000,12.182006103515626,-0.004630600102245808,0.11543577909469604,0.006166462786495686
1768421557463006000,12.192005859375,-0.005714410450309515,0.11396756768226624,0.003858447540551424
1768421557473006000,12.202006103515625,-0.004700278863310814,0.1108681857585907,0.004865122493356466
1768421557483006000,12.212005859375,-0.004153238143771887,0.10587409883737564,0.0026077269576489925
