time,seconds_elapsed,z,y,x
1768421545321601000,0.05060107421875,0.029415147379040718,-0.0222640261054039,0.18047869205474854
1768421545331601000,0.060600830078125,0.03032861091196537,-0.02111247554421425,0.2252805233001709
1768421545341600800,0.070600830078125,0.02654106356203556,-0.012793825939297676,0.25696948170661926
1768421545351601000,0.080600830078125,0.0212435033172369,-0.0018439727136865258,0.27086716890335083
1768421545361600800,0.090600830078125,0.007266434840857983,-0.0034732946660369635,0.2799701392650604
1768421545371601000,0.100600830078125,-0.01629961095750332,-0.011260110884904861,0.2922094762325287
1768421545381600800,0.110600830078125,-0.04265105724334717,-0.03127829357981682,0.29967644810676575
1768421545391601000,0.120600830078125,-0.05835998058319092,-0.05071377754211426,0.295810341835022
1768421545401600800,0.130600830078125,-0.05638923868536949,-0.06556595861911774,0.28228363394737244
1768421545411601000,0.140600830078125,-0.04524870589375496,-0.0760582834482193,0.2703571915626526
1768421545421600800,0.150600830078125,-0.02863617241382599,-0.07946392893791199,0.2737037241458893
1768421545431600600,0.1606005859375,-0.017912954092025757,-0.08308529853820801,0.30007967352867126
1768421545441600800,0.170600830078125,-0.012024172581732273,-0.0855359435081482,0.3405756950378418
1768421545451601000,0.180600830078125,-0.007537811063230038,-0.09284684807062149,0.36989548802375793
1768421545461600800,0.190600830078125,-0.0067513794638216496,-0.09752415865659714,0.37139084935188293
1768421545471601700,0.2006015625,-0.00732395937666297,-0.10007306933403015,0.3561708927154541
1768421545481601800,0.210601806640625,-0.008930377662181854,-0.09040126949548721,0.3274593651294708
1768421545491601700,0.2206015625,-0.01985173486173153,-0.07349073141813278,0.2750542163848877
1768421545501601800,0.230601806640625,-0.015186675824224949,-0.04265531897544861,0.22330498695373535
1768421545511601700,0.2406015625,-0.016631973907351494,-0.024938106536865234,0.21517862379550934
1768421545521601800,0.250601806640625,-0.048882853239774704,-0.052684251219034195,0.2523491680622101
1768421545531601700,0.2606015625,-0.09461412578821182,-0.08643129467964172,0.29467371106147766
1768421545541601500,0.2706015625,-0.14716894924640656,-0.10285846889019012,0.29439806938171387
1768421545551601700,0.2806015625,-0.18974782526493073,-0.10582257062196732,0.24992302060127258
1768421545561601500,0.2906015625,-0.2266286164522171,-0.10370908677577972,0.18692435324192047
1768421545571601700,0.3006015625,-0.26464229822158813,-0.11338142305612564,0.11963265389204025
1768421545581601500,0.3106015625,-0.31717929244041443,-0.12541277706623077,0.06617369502782822
1768421545591601700,0.3206015625,-0.36944809556007385,-0.13385872542858124,0.03401389345526695
1768421545601601500,0.3306015625,-0.4091254472732544,-0.13923591375350952,0.003567570587620139
1768421545611602700,0.340602783203125,-0.42764347791671753,-0.12266173958778381,-0.03634149581193924
1768421545621602800,0.350602783203125,-0.4273417294025421,-0.1203293427824974,-0.07414373755455017
1768421545631602700,0.360602783203125,-0.44096940755844116,-0.11043596267700195,-0.05846890062093735
1768421545641602800,0.370602783203125,-0.4445873200893402,-0.04616136848926544,0.036685310304164886
1768421545651602700,0.380602783203125,-0.43683457374572754,0.04351259022951126,0.13733787834644318
1768421545661602800,0.390602783203125,-0.4282459020614624,0.15632489323616028,0.18297168612480164
1768421545671602700,0.400602783203125,-0.40926793217658997,0.2938031256198883,0.18221375346183777
1768421545681602800,0.410602783203125,-0.37459278106689453,0.4251694083213806,0.17530789971351624
1768421545691602700,0.420602783203125,-0.30362406373023987,0.5312271118164062,0.1441827416419983
1768421545701602800,0.430602783203125,-0.22851493954658508,0.6498123407363892,0.08218009024858475
1768421545711602700,0.440602783203125,-0.20001991093158722,0.754948616027832,0.00048709215479902923
1768421545721602600,0.4506025390625,-0.24208587408065796,0.7827315330505371,-0.02683587558567524
1768421545731602700,0.460602783203125,-0.35785534977912903,0.6901014447212219,0.021400097757577896
1768421545741602600,0.4706025390625,-0.48664048314094543,0.4879409074783325,0.08111802488565445
1768421545751603700,0.480603759765625,-0.6148290634155273,0.31738728284835815,0.11302002519369125
1768421545761603600,0.490603515625,-0.6948837041854858,0.23980194330215454,0.13778716325759888
1768421545771603700,0.500603759765625,-0.6555173993110657,0.2617493271827698,0.18363480269908905
1768421545781603600,0.510603515625,-0.5578840374946594,0.35520896315574646,0.25943076610565186
1768421545791603500,0.520603515625,-0.47188684344291687,0.49382489919662476,0.3546465039253235
1768421545801603800,0.530603759765625,-0.39220505952835083,0.6510899066925049,0.41997089982032776
1768421545811603700,0.540603759765625,-0.337424635887146,0.7618758082389832,0.41218408942222595
1768421545821603800,0.550603759765625,-0.31097784638404846,0.8754950165748596,0.3447571098804474
1768421545831603700,0.560603759765625,-0.3174775540828705,0.9541221857070923,0.2306305468082428
1768421545841603800,0.570603759765625,-0.37654513120651245,0.958764374256134,0.10042567551136017
1768421545851603700,0.580603759765625,-0.46289148926734924,0.9190843105316162,-0.010718690231442451
1768421545861603800,0.590603759765625,-0.5305112600326538,0.875379204750061,-0.07387688755989075
1768421545871604700,0.600604736328125,-0.5701846480369568,0.8027797937393188,-0.07309897989034653
1768421545881604600,0.6106044921875,-0.5814346671104431,0.6813572645187378,-0.00657694274559617
1768421545891604700,0.620604736328125,-0.5815699100494385,0.5486801266670227,0.09578058868646622
1768421545901604600,0.6306044921875,-0.557992696762085,0.4405158758163452,0.20948292315006256
1768421545911604700,0.640604736328125,-0.4868684411048889,0.36160293221473694,0.3085029721260071
1768421545921604600,0.6506044921875,-0.38598552346229553,0.3170975148677826,0.31386232376098633
1768421545931604700,0.660604736328125,-0.24352610111236572,0.3622618019580841,0.23827195167541504
1768421545941604600,0.6706044921875,-0.0837383046746254,0.4998476505279541,0.13766784965991974
1768421545951604500,0.6806044921875,0.06840994954109192,0.7197078466415405,0.01782134175300598
1768421545961604600,0.6906044921875,0.1870226114988327,0.9856875538825989,-0.1356891244649887
1768421545971604500,0.7006044921875,0.2650066316127777,1.1871134042739868,-0.28725919127464294
1768421545981606000,0.71060595703125,0.29591765999794006,1.3490886688232422,-0.35998454689979553
1768421545991605800,0.720605712890625,0.29031410813331604,1.4359660148620605,-0.3388632833957672
1768421546001605600,0.730605712890625,0.2651943862438202,1.4964051246643066,-0.26154080033302307
1768421546011605800,0.740605712890625,0.22612234950065613,1.5280022621154785,-0.13985005021095276
1768421546021605600,0.750605712890625,0.19614741206169128,1.4940192699432373,0.035120170563459396
1768421546031605800,0.760605712890625,0.19340728223323822,1.4195631742477417,0.23320183157920837
1768421546041605600,0.770605712890625,0.22371751070022583,1.367918848991394,0.4349812865257263
1768421546051605800,0.780605712890625,0.2692362666130066,1.3220765590667725,0.5323975682258606
1768421546061605600,0.790605712890625,0.3252257704734802,1.2726484537124634,0.3977724015712738
1768421546071605800,0.800605712890625,0.4057405889034271,1.237463116645813,0.034020017832517624
1768421546081605600,0.810605712890625,0.5250712037086487,1.2946139574050903,-0.39009663462638855
1768421546091606500,0.8206064453125,0.6360331773757935,1.3051902055740356,-0.7071017622947693
1768421546101606700,0.830606689453125,0.6798038482666016,1.2138009071350098,-0.8257287740707397
1768421546111606500,0.8406064453125,0.5825678110122681,1.1816411018371582,-0.7498665452003479
1768421546121606700,0.850606689453125,0.42338135838508606,1.1724257469177246,-0.5731093287467957
1768421546131606500,0.8606064453125,0.2654516398906708,1.1790854930877686,-0.4611761271953583
1768421546141606700,0.870606689453125,0.1422295719385147,1.3157567977905273,-0.49870407581329346
1768421546151606800,0.880606689453125,0.07673925161361694,1.6109652519226074,-0.5850099325180054
1768421546161607000,0.89060693359375,0.0047849016264081,1.7724322080612183,-0.524133026599884
1768421546171606800,0.900606689453125,-0.09536699950695038,1.878997802734375,0.01583435758948326
1768421546181606700,0.910606689453125,-0.057485662400722504,1.3374863862991333,1.1693180799484253
1768421546191607800,0.92060791015625,-0.11463124305009842,0.0862126499414444,2.059325695037842
1768421546201607700,0.930607666015625,-0.44451674818992615,-1.2362146377563477,0.9552249908447266
1768421546211607800,0.94060791015625,-1.1419352293014526,-0.8013228178024292,-0.061290789395570755
1768421546221607700,0.950607666015625,-1.625627040863037,-0.18432962894439697,-0.2539052367210388
1768421546231607600,0.960607666015625,-1.032086730003357,0.1977034956216812,-0.26479196548461914
1768421546241607700,0.970607666015625,-0.06273102760314941,0.891674280166626,-0.2404501587152481
1768421546251607600,0.980607666015625,0.5667654275894165,1.1868470907211304,-0.43588730692863464
1768421546261607700,0.990607666015625,0.8178298473358154,0.9174390435218811,-0.6802757382392883
1768421546271607600,1.000607666015625,0.7683006525039673,0.4407670199871063,-0.6760799288749695
1768421546281607700,1.010607666015625,0.49055373668670654,0.1190108060836792,-0.3073314428329468
1768421546291608600,1.020608642578125,0.2684021592140198,-0.10439697653055191,0.14785097539424896
1768421546301608400,1.0306083984375,0.23788154125213623,-0.3789800703525543,0.381320983171463
1768421546311608800,1.04060888671875,0.222246915102005,-0.5427884459495544,0.3942950963973999
1768421546321608700,1.050608642578125,0.17968720197677612,-0.4221384525299072,0.28970691561698914
1768421546331608800,1.06060888671875,0.18520741164684296,-0.1249038502573967,0.12985627353191376
1768421546341608700,1.070608642578125,0.17880569398403168,0.15074211359024048,-0.008267250843346119
1768421546351608800,1.08060888671875,0.07758001238107681,0.3999212980270386,-0.06951089948415756
1768421546361608700,1.090608642578125,-0.036019518971443176,0.575472354888916,-0.06047958880662918
1768421546371608800,1.10060888671875,-0.07806470990180969,0.719449520111084,-0.01133973989635706
1768421546381609700,1.110609619140625,-0.10406141728162766,0.7357634902000427,0.014550979249179363
1768421546391609600,1.120609619140625,-0.14125113189220428,0.6203732490539551,0.02948359027504921
1768421546401609700,1.130609619140625,-0.19290393590927124,0.4532575011253357,0.05428614094853401
1768421546411609600,1.140609619140625,-0.19924946129322052,0.301258385181427,0.05997332185506821
1768421546421609700,1.150609619140625,-0.16632266342639923,0.23408466577529907,0.020672254264354706
1768421546431609000,1.160609130859375,-0.08839058130979538,0.2855968475341797,-0.06054936349391937
1768421546441609200,1.170609130859375,-0.0010807107901200652,0.39024683833122253,-0.12804611027240753
1768421546451609000,1.180609130859375,0.04952094703912735,0.4757350981235504,-0.11235157400369644
1768421546461609200,1.190609130859375,0.055391620844602585,0.5037044286727905,-0.0640314444899559
1768421546471610000,1.200610107421875,0.015721172094345093,0.5068110227584839,-0.07422496378421783
1768421546481610000,1.21060986328125,-0.06273049116134644,0.5004345774650574,-0.1671687513589859
1768421546491610000,1.220610107421875,-0.1619204580783844,0.47939616441726685,-0.2838471531867981
1768421546501610000,1.23060986328125,-0.2547534704208374,0.44142213463783264,-0.36211374402046204
1768421546511610000,1.240610107421875,-0.3232952356338501,0.44130176305770874,-0.39789143204689026
1768421546521610000,1.25060986328125,-0.37179964780807495,0.486377090215683,-0.38416337966918945
1768421546531610000,1.260610107421875,-0.37690067291259766,0.5539937019348145,-0.35696426033973694
1768421546541610000,1.27060986328125,-0.3399386703968048,0.6097080707550049,-0.32532137632369995
1768421546551610000,1.280610107421875,-0.2995465099811554,0.6030299663543701,-0.2812196910381317
1768421546561611300,1.290611328125,-0.2788065969944,0.5581942796707153,-0.22453324496746063
1768421546571611100,1.300611083984375,-0.27113670110702515,0.5009778738021851,-0.15693795680999756
1768421546581611300,1.310611328125,-0.243502676486969,0.4377504289150238,-0.091977059841156
1768421546591611100,1.320611083984375,-0.19376440346240997,0.3814171254634857,-0.046720102429389954
1768421546601611300,1.330611328125,-0.15088991820812225,0.33152279257774353,-0.04432591795921326
1768421546611611100,1.340611083984375,-0.12380024045705795,0.2715015411376953,-0.08638735115528107
1768421546621611000,1.350611083984375,-0.11866406351327896,0.20771270990371704,-0.15478718280792236
1768421546631611100,1.360611083984375,-0.1362268179655075,0.10672911256551743,-0.23141857981681824
1768421546641612000,1.370612060546875,-0.15436933934688568,-0.04586203023791313,-0.29405930638313293
1768421546651612200,1.380612060546875,-0.09600429236888885,-0.21043100953102112,-0.333051472902298
1768421546661612000,1.390612060546875,0.07547105848789215,-0.19909872114658356,-0.2909325063228607
1768421546671612000,1.40061181640625,0.281158447265625,-0.10761114954948425,0.033719878643751144
1768421546681612000,1.410612060546875,0.3943172097206116,-0.38326483964920044,0.5624921321868896
1768421546691612000,1.42061181640625,0.35932832956314087,-0.6317579746246338,0.778476893901825
1768421546701612000,1.430612060546875,0.34079647064208984,-0.3467092216014862,0.4957977533340454
1768421546711612000,1.44061181640625,0.43463215231895447,-0.16277480125427246,-0.20264951884746552
1768421546721613000,1.450613037109375,0.44817832112312317,-0.022971361875534058,-0.6861051321029663
1768421546731613200,1.46061328125,0.21746201813220978,0.15581835806369781,-0.5396986603736877
1768421546741613000,1.470613037109375,-0.07967458665370941,0.16590960323810577,-0.17298190295696259
1768421546751613200,1.48061328125,-0.30805450677871704,0.09380132704973221,-0.022181468084454536
1768421546761613000,1.490613037109375,-0.5054171085357666,0.03496836870908737,0.06609060615301132
1768421546771613200,1.50061328125,-0.5221324563026428,0.09150088578462601,0.33276650309562683
1768421546781613000,1.510613037109375,-0.377472460269928,0.24698448181152344,0.6765374541282654
1768421546791613200,1.52061328125,-0.15604712069034576,0.43952542543411255,0.8678035736083984
1768421546801614000,1.530614013671875,0.06127241253852844,0.5725255608558655,0.806354284286499
1768421546811614000,1.540614013671875,0.19331273436546326,0.5808737874031067,0.5828354358673096
1768421546821614000,1.550614013671875,0.20297548174858093,0.5800705552101135,0.33851200342178345
1768421546831614000,1.560614013671875,0.0993737280368805,0.6902008056640625,0.18976567685604095
1768421546841614000,1.570614013671875,-0.017977667972445488,0.7111856937408447,0.17483119666576385
1768421546851614000,1.580614013671875,-0.12428147345781326,0.5181052088737488,0.23337946832180023
1768421546861614000,1.590614013671875,-0.20248094201087952,0.30364111065864563,0.28522855043411255
1768421546871614000,1.600614013671875,-0.24406379461288452,0.13677595555782318,0.32665908336639404
1768421546881615000,1.610614990234375,-0.24161581695079803,0.0941707044839859,0.3836936056613922
1768421546891615200,1.620615234375,-0.20606768131256104,0.13271543383598328,0.4392644464969635
1768421546901615000,1.630614990234375,-0.15382444858551025,0.20745918154716492,0.46646732091903687
1768421546911615200,1.640615234375,-0.09294618666172028,0.24576076865196228,0.47481390833854675
1768421546921615000,1.650614990234375,-0.06802166253328323,0.23915505409240723,0.4500105679035187
1768421546931615200,1.660615234375,-0.0656312108039856,0.23059406876564026,0.3837098479270935
1768421546941615000,1.670614990234375,-0.059839099645614624,0.20234404504299164,0.3035348355770111
1768421546951616000,1.680615966796875,-0.047514256089925766,0.1483473926782608,0.24862872064113617
1768421546961616100,1.6906162109375,-0.030946463346481323,0.09601947665214539,0.1922786384820938
1768421546971616000,1.700615966796875,0.001609081868082285,0.09407749772071838,0.11577586829662323
1768421546981616000,1.7106162109375,0.06865309923887253,0.1512441188097,0.040465135127305984
1768421546991616000,1.720615966796875,0.17843392491340637,0.23305481672286987,-0.04580157622694969
1768421547001616100,1.7306162109375,0.2919817864894867,0.3043809235095978,-0.13756504654884338
1768421547011616000,1.740615966796875,0.3756897449493408,0.3814075291156769,-0.18159696459770203
1768421547021615900,1.750615966796875,0.41597217321395874,0.4155474007129669,-0.1489894837141037
1768421547031617300,1.7606171875,0.37676164507865906,0.3909131586551666,-0.051537491381168365
1768421547041617200,1.7706171875,0.31767064332962036,0.3185758590698242,0.06449057906866074
1768421547051617000,1.780616943359375,0.2393052577972412,0.22481580078601837,0.12904639542102814
1768421547061617200,1.7906171875,0.15831826627254486,0.25555506348609924,0.09059541672468185
1768421547071617000,1.800616943359375,0.13399162888526917,0.46553438901901245,0.03295715153217316
1768421547081617200,1.8106171875,0.20148810744285583,0.8166780471801758,0.08410928398370743
1768421547091617000,1.820616943359375,0.44698041677474976,1.2551909685134888,0.4822731614112854
1768421547101618200,1.8306181640625,0.7252618670463562,-0.28379949927330017,1.24903404712677
1768421547111618000,1.8406181640625,0.4126131236553192,-2.7019388675689697,1.0948222875595093
1768421547121618000,1.850617919921875,-0.6954533457756042,-1.7583600282669067,-0.07568597048521042
1768421547131618000,1.8606181640625,-1.4228345155715942,-0.1896279901266098,-0.2600414454936981
1768421547141618000,1.870617919921875,-1.2751736640930176,0.3040482997894287,-0.05951712280511856
1768421547151618000,1.8806181640625,-0.07932677865028381,1.1098891496658325,0.026434537023305893
1768421547161618000,1.890617919921875,0.9021537899971008,1.659988284111023,-0.23619522154331207
1768421547171618800,1.900618896484375,1.2663259506225586,1.4295305013656616,-0.5757149457931519
1768421547181619200,1.910619140625,1.1096553802490234,0.6438698172569275,-0.4909822344779968
1768421547191619000,1.920619140625,0.5380770564079285,-0.08172468841075897,0.30019524693489075
1768421547201619200,1.930619140625,0.034565966576337814,-0.4929167628288269,1.0154374837875366
1768421547211619000,1.940619140625,-0.08416920900344849,-0.8975896835327148,1.2298126220703125
1768421547221619200,1.950619140625,0.07601567357778549,-1.1468719244003296,1.0450901985168457
1768421547231619000,1.960619140625,0.258295476436615,-1.0698975324630737,0.7301878929138184
1768421547241620000,1.970619873046875,0.3638938069343567,-0.797162652015686,0.5383210182189941
1768421547251620000,1.9806201171875,0.358901709318161,-0.5546935796737671,0.48440343141555786
1768421547261620000,1.990619873046875,0.2985302209854126,-0.4007580578327179,0.45681601762771606
1768421547271620000,2.0006201171875,0.24847079813480377,-0.28145909309387207,0.4091787338256836
1768421547281620000,2.010619873046875,0.19603608548641205,-0.13003922998905182,0.35497167706489563
1768421547291620000,2.0206201171875,0.12240207940340042,-0.027637487277388573,0.3428061008453369
1768421547301620000,2.030619873046875,0.04770440608263016,0.0273906122893095,0.3369668424129486
1768421547311620900,2.040620849609375,-0.01655607298016548,0.07842716574668884,0.26531368494033813
1768421547321621000,2.05062109375,-0.033189110457897186,0.1586647480726242,0.1492139846086502
1768421547331621000,2.06062109375,0.021616877987980843,0.2032332718372345,0.05825718119740486
1768421547341621200,2.070621337890625,0.1296813040971756,0.2706882059574127,-0.004342816770076752
1768421547351621000,2.08062109375,0.222678080201149,0.4155285060405731,-0.01495444867759943
1768421547361621200,2.090621337890625,0.2465866059064865,0.5390962362289429,0.0062914518639445305
1768421547371621000,2.10062109375,0.23227185010910034,0.5922811627388,0.0035902075469493866
1768421547381622000,2.1106220703125,0.2062479704618454,0.5921474695205688,-0.012284362688660622
1768421547391622100,2.1206220703125,0.20863071084022522,0.5695375204086304,-0.012145878747105598
1768421547401622000,2.1306220703125,0.22850480675697327,0.5586709976196289,0.013650298118591309
1768421547411622100,2.1406220703125,0.24489817023277283,0.5398280620574951,0.04150217026472092
1768421547421622000,2.1506220703125,0.23211392760276794,0.49964311718940735,0.042876627296209335
1768421547431622000,2.160621826171875,0.19328024983406067,0.44447198510169983,0.015927035361528397
1768421547441621800,2.170621826171875,0.13431546092033386,0.3867591619491577,-0.019626431167125702
1768421547451622700,2.18062255859375,0.0699457973241806,0.33639267086982727,-0.03988829255104065
1768421547461622800,2.190622802734375,0.02424621768295765,0.31157252192497253,-0.03825391083955765
1768421547471622700,2.20062255859375,-0.012131497263908386,0.32225555181503296,-0.04360899701714516
1768421547481622800,2.210622802734375,-0.06066068261861801,0.3391042947769165,-0.07466039061546326
1768421547491623000,2.220622802734375,-0.13215191662311554,0.3453081250190735,-0.12251686304807663
1768421547501623000,2.230623046875,-0.22065460681915283,0.34032535552978516,-0.16205307841300964
1768421547511623000,2.240622802734375,-0.30853572487831116,0.3221266567707062,-0.17824509739875793
1768421547521623800,2.250623779296875,-0.3974323272705078,0.2828119993209839,-0.18596667051315308
1768421547531624000,2.2606240234375,-0.4712247848510742,0.26886609196662903,-0.21858400106430054
1768421547541623800,2.270623779296875,-0.5218583941459656,0.2620113790035248,-0.2767495810985565
1768421547551624000,2.2806240234375,-0.5599240064620972,0.24252289533615112,-0.33653461933135986
1768421547561623800,2.290623779296875,-0.5759000778198242,0.22255876660346985,-0.3815692067146301
1768421547571623700,2.300623779296875,-0.5619655847549438,0.25752633810043335,-0.407320111989975
1768421547581624800,2.310624755859375,-0.4650808572769165,0.3067713975906372,-0.39695799350738525
1768421547591624700,2.320624755859375,-0.251460462808609,0.23984801769256592,-0.3069378435611725
1768421547601624800,2.330624755859375,0.0362810418009758,0.274738609790802,-0.0934697613120079
1768421547611624700,2.340624755859375,0.2249913066625595,0.22163838148117065,0.16949662566184998
1768421547621624800,2.350624755859375,0.30595698952674866,0.2529132068157196,0.23664210736751556
1768421547631624700,2.360624755859375,0.3391309380531311,0.46776479482650757,-0.22934077680110931
1768421547641624600,2.37062451171875,0.22591941058635712,0.49953338503837585,-0.8865143656730652
1768421547651626000,2.3806259765625,-0.08756287395954132,0.4687158167362213,-1.0939000844955444
1768421547661625900,2.3906259765625,-0.41818180680274963,0.24375993013381958,-0.7125492691993713
1768421547671625700,2.400625732421875,-0.6834073662757874,0.07097617536783218,-0.08157262206077576
1768421547681625900,2.4106259765625,-0.7796036601066589,-0.07150294631719589,0.5113610029220581
1768421547691625700,2.420625732421875,-0.6474288105964661,-0.35426780581474304,0.817642092704773
1768421547701625900,2.4306259765625,-0.41171884536743164,-0.4744429290294647,0.8325608968734741
1768421547711625700,2.440625732421875,-0.23860564827919006,-0.34198662638664246,0.6468471884727478
1768421547721627000,2.450626953125,-0.06684667617082596,-0.11139310151338577,0.4450456500053406
1768421547731626800,2.460626708984375,0.10853073745965958,0.07062197476625443,0.2633586525917053
1768421547741626600,2.470626708984375,0.17443890869617462,0.15688948333263397,0.10976830869913101
1768421547751626800,2.480626708984375,0.06699155271053314,0.17297977209091187,-0.021734589710831642
1768421547761626600,2.490626708984375,-0.18032662570476532,0.1755151003599167,-0.15537521243095398
1768421547771626800,2.500626708984375,-0.43286699056625366,-0.009465939365327358,-0.2606843113899231
1768421547781626600,2.510626708984375,-0.5800079703330994,-0.23448175191879272,-0.36185407638549805
1768421547791627800,2.520627685546875,-0.5548807978630066,-0.35168054699897766,-0.43667957186698914
1768421547801628000,2.5306279296875,-0.3897368311882019,-0.3990626931190491,-0.39930665493011475
1768421547811627800,2.540627685546875,-0.17883393168449402,-0.3765619099140167,-0.2739498019218445
1768421547821628000,2.5506279296875,0.00782543234527111,-0.318142294883728,-0.1476603001356125
1768421547831627800,2.560627685546875,0.13834242522716522,-0.2356111854314804,-0.09187932312488556
1768421547841628000,2.5706279296875,0.21319589018821716,-0.15611955523490906,-0.12347853183746338
1768421547851628800,2.58062890625,0.23477336764335632,-0.09934629499912262,-0.2236597239971161
1768421547861628700,2.590628662109375,0.2131146639585495,-0.10455969721078873,-0.37221911549568176
1768421547871628800,2.60062890625,0.16063575446605682,-0.1310645490884781,-0.5295075178146362
1768421547881628700,2.610628662109375,0.11429621279239655,-0.15639333426952362,-0.6413083672523499
1768421547891628800,2.62062890625,0.09367429465055466,-0.16982978582382202,-0.6943483948707581
1768421547901628700,2.630628662109375,0.08542542159557343,-0.17079144716262817,-0.6811399459838867
1768421547911628800,2.64062890625,0.046964045614004135,-0.13910116255283356,-0.6304818391799927
1768421547921630000,2.6506298828125,-0.008392419666051865,-0.07059960067272186,-0.6263275742530823
1768421547931629800,2.6606298828125,-0.013252422213554382,0.03882808983325958,-0.6967287659645081
1768421547941630000,2.6706298828125,0.052255213260650635,0.13890649378299713,-0.7749899625778198
1768421547951629800,2.6806298828125,0.14658065140247345,0.16023041307926178,-0.797675609588623
1768421547961630000,2.6906298828125,0.2045784443616867,0.0643363818526268,-0.7551366686820984
1768421547971629800,2.7006298828125,0.20011845231056213,-0.12128221988677979,-0.6739739179611206
1768421547981630700,2.710630615234375,0.1326075792312622,-0.3132396638393402,-0.5905282497406006
1768421547991630800,2.720630859375,0.03032727912068367,-0.4331652820110321,-0.5308327078819275
1768421548001630700,2.730630615234375,-0.020732974633574486,-0.40151602029800415,-0.4716591536998749
1768421548011630800,2.740630859375,0.057676613330841064,-0.04008084163069725,-0.19914665818214417
1768421548021630700,2.750630615234375,0.3100971579551697,0.14119920134544373,0.5549207329750061
1768421548031630800,2.760630859375,0.568825364112854,-0.0743890106678009,1.4314674139022827
1768421548041630700,2.770630615234375,0.4326837658882141,-0.892125129699707,1.3501113653182983
1768421548051631600,2.780631591796875,-0.16997039318084717,-1.2858474254608154,-0.14753219485282898
1768421548061632000,2.790632080078125,-1.0459445714950562,-0.47651568055152893,-0.73028963804245
1768421548071632000,2.8006318359375,-1.224099040031433,-0.4560095965862274,-0.46076786518096924
1768421548081632000,2.810632080078125,-0.7529184818267822,-0.606622040271759,0.052019525319337845
1768421548091631900,2.8206318359375,-0.2033829540014267,-0.22191669046878815,0.21771980822086334
1768421548101632000,2.830632080078125,0.2292478382587433,0.1072462946176529,-0.246043860912323
1768421548111633000,2.8406328125,0.40763407945632935,0.12041109800338745,-0.7578317523002625
1768421548121632800,2.8506328125,0.4580397307872772,-0.0956982970237732,-0.7221070528030396
1768421548131633000,2.8606328125,0.40736323595046997,-0.4375978410243988,-0.1377437561750412
1768421548141632800,2.8706328125,0.33280324935913086,-0.6417986750602722,0.5494996309280396
1768421548151633000,2.8806328125,0.20320504903793335,-0.59527587890625,0.9373418688774109
1768421548161632800,2.8906328125,-0.007521831896156073,-0.42669805884361267,0.8856595158576965
1768421548171632600,2.900632568359375,-0.13372796773910522,-0.11784221231937408,0.5175158381462097
1768421548181633800,2.9106337890625,0.0358637236058712,0.3624442517757416,0.14930106699466705
1768421548191633700,2.920633544921875,0.438327819108963,0.8761738538742065,0.00580835435539484
1768421548201633800,2.9306337890625,0.18241961300373077,0.9403619170188904,0.126517191529274
1768421548211634000,2.940634033203125,-0.07210588455200195,1.019364356994629,0.33608055114746094
1768421548221633800,2.9506337890625,-0.1139763668179512,1.0505951642990112,0.4890325367450714
1768421548231634000,2.960634033203125,-0.12668924033641815,0.8676086068153381,0.5114102959632874
1768421548241634800,2.970634765625,-0.17877347767353058,0.4782043993473053,0.45469799637794495
1768421548251635000,2.980635009765625,-0.19683024287223816,0.11913837492465973,0.4006930887699127
1768421548261634800,2.990634765625,-0.1335466057062149,-0.0600351057946682,0.37304389476776123
1768421548271635000,3.000635009765625,-0.08443605154752731,-0.059725116938352585,0.35580870509147644
1768421548281634800,3.010634765625,-0.0937746912240982,-0.019179819151759148,0.3234635591506958
1768421548291634700,3.020634765625,-0.15798191726207733,-0.024868864566087723,0.26051440834999084
1768421548301634800,3.030634765625,-0.2357797622680664,-0.04182654246687889,0.18992039561271667
1768421548311635700,3.0406357421875,-0.3157030940055847,-0.009810552932322025,0.12456190586090088
1768421548321635800,3.0506357421875,-0.40389978885650635,0.08178248256444931,0.051842156797647476
1768421548331635700,3.0606357421875,-0.47252359986305237,0.19332978129386902,-0.06783843785524368
1768421548341635600,3.070635498046875,-0.43551233410835266,0.21597330272197723,-0.24969477951526642
1768421548351635700,3.0806357421875,-0.3509873151779175,0.1220468133687973,-0.4389810860157013
1768421548361635800,3.0906357421875,-0.29562047123908997,0.041977278888225555,-0.6202994585037231
1768421548371637000,3.100636962890625,-0.25835832953453064,0.07223398238420486,-0.7207608222961426
1768421548381636900,3.110636962890625,-0.1978166699409485,0.21082328259944916,-0.6886715888977051
1768421548391636700,3.12063671875,-0.08882787078619003,0.3813665211200714,-0.45726874470710754
1768421548401636900,3.130636962890625,0.11524669826030731,-0.06261996924877167,-0.11571967601776123
1768421548411636700,3.14063671875,0.357034832239151,-0.7999576330184937,0.05408427491784096
1768421548421636900,3.150636962890625,0.5840591788291931,-1.0598504543304443,-0.12281433492898941
1768421548431636700,3.16063671875,0.7060623168945312,-0.5663443803787231,-0.27340224385261536
1768421548441638100,3.17063818359375,0.8448809385299683,-0.28335100412368774,-0.1496848315000534
1768421548451638300,3.18063818359375,0.791040301322937,-0.724018931388855,-0.005673065781593323
1768421548461638100,3.19063818359375,0.7061142325401306,-1.1345255374908447,-0.3536909520626068
1768421548471638300,3.20063818359375,0.5085061192512512,-0.6053413152694702,-0.4310310184955597
1768421548481638100,3.21063818359375,0.3004192113876343,-0.3729275166988373,0.1574689894914627
1768421548491638500,3.220638427734375,0.17436248064041138,-0.44031667709350586,0.5794546008110046
1768421548501639400,3.230639404296875,0.04073651134967804,-0.2764105498790741,0.532057523727417
1768421548511639300,3.240639404296875,-0.086822509765625,-0.10810782760381699,0.3952394723892212
1768421548521639400,3.250639404296875,-0.22052811086177826,-0.16669709980487823,0.3216560482978821
1768421548531639300,3.260639404296875,-0.3914937376976013,-0.19511356949806213,0.29164251685142517
1768421548541639400,3.270639404296875,-0.5613349676132202,-0.12432648241519928,0.283287912607193
1768421548551639300,3.280639404296875,-0.6707674264907837,-0.0715000182390213,0.2822532653808594
1768421548561639400,3.290639404296875,-0.6578044891357422,-0.14855219423770905,0.24464863538742065
1768421548571640300,3.300640380859375,-0.5543878674507141,-0.22021065652370453,0.14703711867332458
1768421548581640200,3.31064013671875,-0.39853885769844055,-0.24336019158363342,0.03928428888320923
1768421548591640300,3.320640380859375,-0.21443293988704681,-0.209974005818367,-0.02442411705851555
1768421548601640200,3.33064013671875,0.004889563657343388,-0.15453870594501495,-0.08342378586530685
1768421548611640300,3.340640380859375,0.19450582563877106,-0.1317007690668106,-0.19778499007225037
1768421548621640200,3.35064013671875,0.3167521059513092,-0.10113220661878586,-0.3465965688228607
1768421548631641300,3.360641357421875,0.3763779103755951,-0.09982699155807495,-0.5074192881584167
1768421548641641500,3.370641357421875,0.43246060609817505,-0.1457952857017517,-0.6535367965698242
1768421548651641300,3.380641357421875,0.4555395543575287,-0.20022709667682648,-0.735971212387085
1768421548661641500,3.390641357421875,0.43706920742988586,-0.2616731524467468,-0.7281450033187866
1768421548671641300,3.400641357421875,0.41884467005729675,-0.3122186064720154,-0.618577241897583
1768421548681641200,3.41064111328125,0.41675034165382385,-0.33368903398513794,-0.479498952627182
1768421548691642400,3.420642333984375,0.4108290672302246,-0.3577762544155121,-0.3996419310569763
1768421548701642200,3.430642333984375,0.4005551338195801,-0.39122846722602844,-0.45357653498649597
1768421548711642400,3.440642333984375,0.4252346456050873,-0.4126474857330322,-0.6013526916503906
1768421548721642200,3.450642333984375,0.4655889868736267,-0.4179714024066925,-0.7252999544143677
1768421548731642400,3.460642333984375,0.47775325179100037,-0.3774583339691162,-0.6965559124946594
1768421548741642200,3.470642333984375,0.44976264238357544,-0.2685773968696594,-0.5029153227806091
1768421548751642000,3.48064208984375,0.3899554908275604,-0.08982495963573456,-0.28872475028038025
1768421548761643500,3.4906435546875,0.33692342042922974,0.1486493945121765,-0.20378509163856506
1768421548771643400,3.500643310546875,0.27045759558677673,0.2680248022079468,-0.2985038757324219
1768421548781643300,3.510643310546875,0.17921635508537292,0.3884875476360321,-0.25861451029777527
1768421548791643400,3.520643310546875,0.16378946602344513,0.5769083499908447,0.40857020020484924
1768421548801643300,3.530643310546875,0.20026224851608276,-0.1101565957069397,1.3010278940200806
1768421548811643400,3.540643310546875,0.02088078111410141,-1.1088417768478394,1.1602940559387207
1768421548821644300,3.550644287109375,-0.4078271687030792,-1.3036932945251465,0.050883688032627106
1768421548831644400,3.56064453125,-1.038131594657898,-0.740379810333252,-0.22219684720039368
1768421548841644300,3.570644287109375,-1.1559442281723022,-0.5163078308105469,0.11844035983085632
1768421548851644200,3.58064404296875,-0.5081252455711365,-0.8704448938369751,0.539383590221405
1768421548861644300,3.590644287109375,0.03924620524048805,-0.6309880614280701,0.6991072297096252
1768421548871644200,3.60064404296875,0.2892549932003021,-0.16122376918792725,0.2504465878009796
1768421548881644300,3.610644287109375,0.4831565320491791,0.014927017502486706,-0.3396022915840149
1768421548891645200,3.620645263671875,0.5307275056838989,-0.17993327975273132,-0.534442126750946
1768421548901645300,3.630645263671875,0.45443087816238403,-0.48845863342285156,-0.2562562823295593
1768421548911645400,3.6406455078125,0.3821846544742584,-0.8198986053466797,0.22850854694843292
1768421548921645300,3.650645263671875,0.35501882433891296,-0.7860745787620544,0.5581953525543213
1768421548931645400,3.6606455078125,0.34582239389419556,-0.5078113079071045,0.5337187647819519
1768421548941645300,3.670645263671875,0.33631783723831177,-0.2234562635421753,0.3185446858406067
1768421548951646200,3.680646240234375,0.2510828375816345,0.022124210372567177,0.15332484245300293
1768421548961646300,3.690646240234375,0.1354006975889206,0.35289013385772705,0.05648751184344292
1768421548971646200,3.700646240234375,-0.06937188655138016,0.4782416820526123,0.05757487937808037
1768421548981646300,3.710646240234375,-0.2320854365825653,0.5040255784988403,0.09063828736543655
1768421548991646200,3.720646240234375,-0.2984814941883087,0.509430468082428,0.12160100042819977
1768421549001646300,3.730646240234375,-0.3873027265071869,0.4339434504508972,0.18394693732261658
1768421549011646200,3.740646240234375,-0.4724293351173401,0.348370224237442,0.24537354707717896
1768421549021647000,3.750647216796875,-0.4992734491825104,0.2093641459941864,0.2548365592956543
1768421549031647200,3.760647216796875,-0.43854406476020813,0.1166592389345169,0.19233456254005432
1768421549041647000,3.770647216796875,-0.3405359983444214,0.11516387015581131,0.08071774989366531
1768421549051647500,3.7806474609375,-0.2525070905685425,0.18506093323230743,-0.03063647262752056
1768421549061647400,3.7906474609375,-0.20829248428344727,0.20662960410118103,-0.11666989326477051
1768421549071647500,3.8006474609375,-0.19422246515750885,0.13953445851802826,-0.1728908121585846
1768421549081647400,3.8106474609375,-0.21359378099441528,-0.007262174040079117,-0.21739596128463745
1768421549091648300,3.820648193359375,-0.28324902057647705,-0.18733766674995422,-0.31204524636268616
1768421549101648400,3.8306484375,-0.40731585025787354,-0.3022304177284241,-0.47119203209877014
1768421549111648300,3.840648193359375,-0.5047105550765991,-0.34880298376083374,-0.6318045854568481
1768421549121648400,3.8506484375,-0.505165696144104,-0.4456680119037628,-0.7493938207626343
1768421549131648300,3.860648193359375,-0.5080121159553528,-0.4745819568634033,-0.8098819255828857
1768421549141648400,3.8706484375,-0.48149287700653076,-0.5018007755279541,-0.813675582408905
1768421549151649300,3.880649169921875,-0.39964380860328674,-0.5653294324874878,-0.7601016163825989
1768421549161649200,3.890649169921875,-0.27447497844696045,-0.5769381523132324,-0.653482973575592
1768421549171649300,3.900649169921875,-0.09019727259874344,-0.5315493941307068,-0.6131017804145813
1768421549181649200,3.910649169921875,0.21087361872196198,-0.4601777195930481,-0.6690492033958435
1768421549191649300,3.920649169921875,0.6005635857582092,-0.3279658854007721,-0.22691117227077484
1768421549201649200,3.930649169921875,1.185524821281433,0.3498741090297699,1.3519270420074463
1768421549211649500,3.9406494140625,2.1237523555755615,0.04105715453624725,1.4184690713882446
1768421549221650400,3.950650390625,2.209423780441284,-0.42037543654441833,-1.1615949869155884
1768421549231650300,3.960650390625,1.5320782661437988,0.013348296284675598,-2.2878668308258057
1768421549241650400,3.970650390625,1.0478417873382568,-0.24498818814754486,-1.5659557580947876
1768421549251650300,3.980650390625,0.7815847992897034,-0.8063974380493164,-0.635688304901123
1768421549261650400,3.990650390625,0.20694279670715332,-0.8972245454788208,-0.1575198471546173
1768421549271650300,4.000650390625,-0.41799697279930115,-1.0783929824829102,0.1202012449502945
1768421549281651200,4.010651123046875,-0.7301908135414124,-1.3087167739868164,0.38588085770606995
1768421549291651300,4.0206513671875,-0.5052634477615356,-1.0774166584014893,0.7200854420661926
1768421549301651200,4.030651123046875,0.047087881714105606,-0.732979953289032,1.080505132675171
1768421549311651300,4.0406513671875,0.4837528169155121,-0.6365061402320862,1.237462043762207
1768421549321651200,4.050651123046875,0.604912519454956,-0.7010132074356079,0.954440176486969
1768421549331651300,4.0606513671875,0.46454212069511414,-0.7276283502578735,0.38915255665779114
1768421549341651200,4.070651123046875,0.20483170449733734,-0.5733188986778259,-0.05837409198284149
1768421549351652400,4.08065234375,0.07544415444135666,-0.449538916349411,-0.1968025416135788
1768421549361652500,4.090652587890625,0.04866687208414078,-0.3388230502605438,-0.13765665888786316
1768421549371652400,4.10065234375,0.06415874511003494,-0.22476840019226074,-0.10060916841030121
1768421549381652500,4.110652587890625,0.12696035206317902,-0.22797538340091705,-0.13774321973323822
1768421549391652400,4.12065234375,0.2043376863002777,-0.35668516159057617,-0.1821354478597641
1768421549401652200,4.13065234375,0.24442225694656372,-0.4901316165924072,-0.21066856384277344
1768421549411652400,4.14065234375,0.25934234261512756,-0.6048669815063477,-0.2129484862089157
1768421549421653200,4.1506533203125,0.2218698114156723,-0.6927915215492249,-0.24022644758224487
1768421549431653400,4.1606533203125,0.1710553616285324,-0.7182763814926147,-0.3253248333930969
1768421549441653800,4.17065380859375,0.17663335800170898,-0.7247047424316406,-0.45981365442276
1768421549451653600,4.180653564453125,0.24465236067771912,-0.7213611006736755,-0.6097334027290344
1768421549461653800,4.19065380859375,0.29494693875312805,-0.680075466632843,-0.738732635974884
1768421549471653600,4.200653564453125,0.2812151610851288,-0.6427121162414551,-0.8681564331054688
1768421549481654500,4.210654541015625,0.2859462797641754,-0.6249067783355713,-1.0009174346923828
1768421549491654700,4.220654541015625,0.3062816262245178,-0.5694437623023987,-1.145357370376587
1768421549501654500,4.230654541015625,0.3220251798629761,-0.5049643516540527,-1.266453742980957
1768421549511654700,4.240654541015625,0.3054717779159546,-0.4717145264148712,-1.2986118793487549
1768421549521654500,4.250654541015625,0.22077658772468567,-0.5410126447677612,-1.204158902168274
1768421549531654700,4.260654541015625,0.07133836299180984,-0.7640295028686523,-0.9965348839759827
1768421549541654500,4.270654541015625,-0.11397130787372589,-1.0034476518630981,-0.7375555634498596
1768421549551655700,4.28065576171875,-0.27337613701820374,-1.104015588760376,-0.537068247795105
1768421549561655800,4.29065576171875,-0.3307393193244934,-1.0068296194076538,-0.5301445722579956
1768421549571655700,4.30065576171875,-0.2731441855430603,-0.7759847044944763,-0.6744066476821899
1768421549581655800,4.31065576171875,-0.15756939351558685,-0.5784191489219666,-0.7764778733253479
1768421549591655700,4.32065576171875,0.007734085898846388,-0.2757556736469269,-0.6161060929298401
1768421549601655800,4.33065576171875,0.2392091155052185,-0.017907893285155296,-0.0004881574132014066
1768421549611655700,4.34065576171875,0.39778146147727966,-0.6389906406402588,0.899605393409729
1768421549621656600,4.350656494140625,0.11698680371046066,-2.258194923400879,1.160204529762268
1768421549631656700,4.36065673828125,-0.5402485728263855,-3.3814916610717773,-0.2214178740978241
1768421549641656600,4.370656494140625,-1.4163622856140137,-1.8465576171875,-0.8455919623374939
1768421549651656700,4.38065673828125,-1.6678059101104736,-1.1429752111434937,-0.3888321816921234
1768421549661656600,4.390656494140625,-1.1155835390090942,-1.0058103799819946,0.35392478108406067
1768421549671656700,4.40065673828125,-0.3745666742324829,-0.5265181064605713,0.7254831790924072
1768421549681656600,4.410656494140625,0.09668473154306412,-0.37550678849220276,0.44176915287971497
1768421549691657700,4.42065771484375,0.2724922299385071,-0.4966089725494385,-0.07449553906917572
1768421549701657900,4.430657958984375,0.3812517523765564,-0.5555223226547241,-0.3304862976074219
1768421549711657700,4.44065771484375,0.5067769289016724,-0.580473780632019,-0.0626886785030365
1768421549721657900,4.450657958984375,0.5514479875564575,-0.5997707843780518,0.3440511226654053
1768421549731657700,4.46065771484375,0.4235115945339203,-0.5558562874794006,0.5549114346504211
1768421549741657900,4.470657958984375,0.2584805488586426,-0.36671409010887146,0.39900916814804077
1768421549751657700,4.48065771484375,0.13131381571292877,-0.173177108168602,0.2028346061706543
1768421549761658600,4.49065869140625,-0.07597199827432632,-0.018935607746243477,0.18119801580905914
1768421549771658800,4.50065869140625,-0.3617318272590637,0.12097276002168655,0.3150644600391388
1768421549781658600,4.51065869140625,-0.6240979433059692,0.13857679069042206,0.5431631803512573
1768421549791658800,4.52065869140625,-0.7214005589485168,0.10238789021968842,0.7465000152587891
1768421549801658600,4.53065869140625,-0.7673709392547607,0.05745184049010277,0.8365646600723267
1768421549811658500,4.540658447265625,-0.8079548478126526,-0.06059011071920395,0.8020639419555664
1768421549821659600,4.55065966796875,-0.7722887396812439,-0.17446793615818024,0.6195958852767944
1768421549831659800,4.56065966796875,-0.6841237545013428,-0.23830045759677887,0.35020196437835693
1768421549841660000,4.570659912109375,-0.5990085601806641,-0.2523432970046997,0.07521459460258484
1768421549851659800,4.58065966796875,-0.5893381237983704,-0.3196648061275482,-0.10014364123344421
1768421549861659600,4.59065966796875,-0.6414604187011719,-0.4467383325099945,-0.1543959677219391
1768421549871659800,4.60065966796875,-0.6966001391410828,-0.5008439421653748,-0.14440006017684937
1768421549881659600,4.61065966796875,-0.7662617564201355,-0.4761100709438324,-0.13963326811790466
1768421549891659800,4.62065966796875,-0.8277543783187866,-0.39593401551246643,-0.19831335544586182
1768421549901660700,4.63066064453125,-0.8443464040756226,-0.2703816890716553,-0.30067700147628784
1768421549911660500,4.64066064453125,-0.8078089356422424,-0.19159260392189026,-0.3804807662963867
1768421549921660700,4.65066064453125,-0.7407947182655334,-0.1898767203092575,-0.4022238850593567
1768421549931660500,4.66066064453125,-0.6661285161972046,-0.23690974712371826,-0.37554246187210083
1768421549941660700,4.67066064453125,-0.6173601746559143,-0.32031887769699097,-0.3483169674873352
1768421549951660500,4.68066064453125,-0.5844687819480896,-0.4533640146255493,-0.31280025839805603
1768421549961661700,4.69066162109375,-0.5566036105155945,-0.5857753157615662,-0.24065415561199188
1768421549971661600,4.70066162109375,-0.48629215359687805,-0.6723312735557556,-0.14969894289970398
1768421549981661700,4.71066162109375,-0.30505526065826416,-0.6144554615020752,-0.02484303154051304
1768421549991661800,4.720661865234375,0.007245662156492472,-0.3954660892486572,0.30338969826698303
1768421550001661700,4.73066162109375,0.3729054033756256,-0.48861709237098694,1.0907466411590576
1768421550011661800,4.740661865234375,0.7776491641998291,-1.6417988538742065,1.3095839023590088
1768421550021661700,4.75066162109375,0.8483672738075256,-3.1392934322357178,-0.21397939324378967
1768421550031662600,4.76066259765625,0.5832237601280212,-0.9755550622940063,-1.2109622955322266
1768421550041662700,4.770662841796875,0.8940905332565308,0.1806803047657013,-0.7678764462471008
1768421550051662600,4.78066259765625,1.2829687595367432,-0.820401132106781,-0.323937326669693
1768421550061662700,4.790662841796875,1.0109721422195435,-1.0065521001815796,-0.33273640275001526
1768421550071662600,4.80066259765625,0.6496123671531677,-0.5133118033409119,-0.3510536253452301
1768421550081662700,4.810662841796875,0.34298744797706604,-0.175736665725708,-0.19244854152202606
1768421550091662600,4.82066259765625,0.035591017454862595,0.024867799133062363,0.08037819713354111
1768421550101663500,4.83066357421875,-0.17426393926143646,0.2213536947965622,0.40359488129615784
1768421550111663600,4.84066357421875,-0.2282310426235199,0.47449514269828796,0.649970293045044
1768421550121663500,4.85066357421875,-0.26000282168388367,0.7961578369140625,0.7418621182441711
1768421550131664000,4.860663818359375,-0.47720810770988464,1.10933518409729,0.5878262519836426
1768421550141663700,4.870663818359375,-0.7453596591949463,1.1353788375854492,0.22143198549747467
1768421550151663900,4.880663818359375,-0.9923305511474609,0.9727339744567871,-0.13582973182201385
1768421550161663700,4.890663818359375,-1.1060951948165894,0.873370349407196,-0.28403598070144653
1768421550171664600,4.90066455078125,-0.9952501654624939,0.7709617018699646,-0.20202474296092987
1768421550181664800,4.910664794921875,-0.7267420291900635,0.6185433864593506,-0.013769341632723808
1768421550191664600,4.92066455078125,-0.5158926248550415,0.45973536372184753,0.11835114657878876
1768421550201664800,4.930664794921875,-0.353269100189209,0.4187847375869751,0.12505298852920532
1768421550211664600,4.94066455078125,-0.18227127194404602,0.47232601046562195,0.05422062799334526
1768421550221664800,4.950664794921875,0.0015451660146936774,0.5633642673492432,-0.013350426219403744
1768421550231664600,4.96066455078125,0.16072842478752136,0.6493204832077026,-0.05355483666062355
1768421550241665500,4.97066552734375,0.28275659680366516,0.7337823510169983,-0.06607861816883087
1768421550251665700,4.980665771484375,0.3447267711162567,0.8905155062675476,-0.09596141427755356
1768421550261665500,4.99066552734375,0.35529232025146484,1.1152359247207642,-0.21254102885723114
1768421550271665700,5.000665771484375,0.3422801196575165,1.323621153831482,-0.4229171574115753
1768421550281665500,5.01066552734375,0.3144652545452118,1.4131801128387451,-0.6830411553382874
1768421550291666000,5.020666015625,0.26829031109809875,1.4234756231307983,-0.89653480052948
1768421550301665800,5.030665771484375,0.1847488135099411,1.4125385284423828,-0.9998116493225098
1768421550311666700,5.040666748046875,0.05711042508482933,1.4266047477722168,-0.9759010076522827
1768421550321666800,5.050666748046875,-0.1016954705119133,1.4733318090438843,-0.838485598564148
1768421550331666700,5.060666748046875,-0.23299117386341095,1.48858642578125,-0.6712316274642944
1768421550341666800,5.070666748046875,-0.3008706271648407,1.471318244934082,-0.5333672165870667
1768421550351666700,5.080666748046875,-0.338623046875,1.4417566061019897,-0.43046268820762634
1768421550361666600,5.09066650390625,-0.3465893864631653,1.5990729331970215,-0.30544885993003845
1768421550371666700,5.100666748046875,-0.23914040625095367,2.2015936374664307,-0.06382451951503754
1768421550381666600,5.11066650390625,0.029315277934074402,2.450827121734619,0.3402065634727478
1768421550391667700,5.120667724609375,0.363540381193161,1.246739149093628,0.8287528157234192
1768421550401667600,5.13066748046875,0.10940079391002655,-1.77096426486969,1.5288059711456299
1768421550411667700,5.140667724609375,-1.3721668720245361,-3.109903573989868,1.770285964012146
1768421550421667600,5.15066748046875,-3.0180249214172363,-0.8332615494728088,1.4318616390228271
1768421550431667500,5.16066748046875,-3.1416773796081543,0.2747788429260254,1.3452281951904297
1768421550441668000,5.170668212890625,-1.6477142572402954,0.9864135384559631,0.8104643821716309
1768421550451668000,5.18066796875,0.3002053499221802,2.0078163146972656,-0.19689202308654785
1768421550461668900,5.1906689453125,1.013323426246643,2.4354400634765625,-1.2011327743530273
1768421550471669000,5.2006689453125,0.8614020943641663,2.279344320297241,-1.4309388399124146
1768421550481668900,5.2106689453125,0.479761004447937,2.132138967514038,-0.6638557314872742
1768421550491669000,5.2206689453125,0.014279070310294628,1.9226385354995728,0.44439077377319336
1768421550501668900,5.2306689453125,-0.23742693662643433,1.5859107971191406,1.253912091255188
1768421550511669000,5.2406689453125,-0.32497063279151917,1.4400981664657593,1.7055240869522095
1768421550521668900,5.2506689453125,-0.24629685282707214,1.4428532123565674,1.7469511032104492
1768421550531670000,5.260669921875,-0.18088749051094055,1.6469606161117554,1.4602389335632324
1768421550541670100,5.270670166015625,-0.22455215454101562,1.979502558708191,0.9167524576187134
1768421550551670000,5.280669921875,-0.31444501876831055,2.390204429626465,0.350200891494751
1768421550561670100,5.290670166015625,-0.41936078667640686,2.6626687049865723,-0.00643765926361084
1768421550571670000,5.300669921875,-0.4846164882183075,2.695589542388916,-0.09987147152423859
1768421550581670100,5.310670166015625,-0.5634313821792603,2.574314594268799,-0.017643708735704422
1768421550591670000,5.320669921875,-0.6879845261573792,2.367414951324463,0.1292586475610733
1768421550601671000,5.3306708984375,-0.8267562389373779,2.1602272987365723,0.2636236548423767
1768421550611671000,5.340671142578125,-0.9183666110038757,2.003659963607788,0.3724689185619354
1768421550621671000,5.3506708984375,-0.9408503174781799,1.9322104454040527,0.48114025592803955
1768421550631671000,5.360671142578125,-0.9036438465118408,1.9052715301513672,0.5301378965377808
1768421550641671000,5.3706708984375,-0.8336067199707031,1.7379610538482666,0.4505186975002289
1768421550651671000,5.380671142578125,-0.8028697967529297,1.5178111791610718,0.3346024751663208
1768421550661671000,5.3906708984375,-0.7615218758583069,1.5245656967163086,0.23379412293434143
1768421550671672000,5.400672119140625,-0.6988688707351685,1.6740204095840454,0.13610218465328217
1768421550681672200,5.410672119140625,-0.6380662322044373,1.7260940074920654,0.04438583925366402
1768421550691672000,5.420672119140625,-0.6083429455757141,1.5969430208206177,-0.0869695171713829
1768421550701672200,5.430672119140625,-0.6054659485816956,1.3936489820480347,-0.23564660549163818
1768421550711672000,5.440672119140625,-0.6182355284690857,1.2370524406433105,-0.33878231048583984
1768421550721672000,5.450671875,-0.6738953590393066,1.116673231124878,-0.34511372447013855
1768421550731672000,5.460672119140625,-0.7459932565689087,1.0459951162338257,-0.3003310561180115
1768421550741672000,5.470671875,-0.8055351376533508,0.9865731000900269,-0.2599559426307678
1768421550751673000,5.480673095703125,-0.7859417200088501,1.067057490348816,-0.21734590828418732
1768421550761673000,5.4906728515625,-0.5873103737831116,1.31427001953125,-0.02521480992436409
1768421550771673000,5.500673095703125,-0.20684824883937836,1.7128770351409912,0.6920253038406372
1768421550781673000,5.5106728515625,0.3150002956390381,1.2962433099746704,1.1840736865997314
1768421550791672800,5.5206728515625,0.7062186598777771,0.30772665143013,0.13487951457500458
1768421550801673000,5.5306728515625,0.8259738087654114,1.0682812929153442,-1.2732727527618408
1768421550811672800,5.5406728515625,0.9509239792823792,2.5311925411224365,-1.0839552879333496
1768421550821674000,5.550674072265625,1.1271860599517822,2.3703982830047607,-0.3150290548801422
1768421550831674000,5.560674072265625,0.8590680956840515,1.666287899017334,-0.04370753467082977
1768421550841674000,5.570674072265625,0.3321246802806854,1.5191134214401245,-0.2581609785556793
1768421550851674000,5.580674072265625,-0.1379767805337906,1.4945769309997559,-0.26285240054130554
1768421550861674000,5.590674072265625,-0.26595792174339294,1.4517910480499268,0.2610071003437042
1768421550871674000,5.600674072265625,-0.1498613953590393,1.4282578229904175,0.8137416243553162
1768421550881674000,5.610674072265625,0.09791617840528488,1.3031749725341797,0.9621838331222534
1768421550891675000,5.6206748046875,0.2976473867893219,1.19247567653656,0.7345661520957947
1768421550901675000,5.630675048828125,0.3524232804775238,1.1661124229431152,0.4079667031764984
1768421550911675000,5.6406748046875,0.1801026612520218,1.1468710899353027,0.17202262580394745
1768421550921675000,5.650675048828125,-0.15569399297237396,1.1654613018035889,0.12750203907489777
1768421550931675000,5.6606748046875,-0.44192174077033997,1.0691081285476685,0.2475930154323578
1768421550941675000,5.670675048828125,-0.5439112186431885,0.9084540605545044,0.30860283970832825
1768421550951675000,5.6806748046875,-0.4901878237724304,0.7979933023452759,0.25396808981895447
1768421550961675000,5.690675048828125,-0.3579898476600647,0.8031489253044128,0.1504523605108261
1768421550971676200,5.70067626953125,-0.1864151507616043,0.9012797474861145,0.07599196583032608
1768421550981676000,5.710676025390625,0.003067961661145091,1.0354455709457397,0.10114552825689316
1768421550991676200,5.72067626953125,0.11386904120445251,1.1112287044525146,0.19902388751506805
1768421551001676000,5.730676025390625,0.10839731246232986,1.0869252681732178,0.26840031147003174
1768421551011676200,5.74067626953125,0.08446508646011353,1.0499211549758911,0.28394171595573425
1768421551021676000,5.750676025390625,0.14515559375286102,1.0348180532455444,0.23917290568351746
1768421551031676200,5.76067626953125,0.2591277062892914,0.9836702346801758,0.14623337984085083
1768421551041677000,5.770677001953125,0.3838885426521301,0.9749422669410706,0.01570679061114788
1768421551051677000,5.780677001953125,0.4984249770641327,0.9632911682128906,-0.13243074715137482
1768421551061677000,5.790677001953125,0.6197801828384399,0.9678976535797119,-0.320758581161499
1768421551071677000,5.800677001953125,0.7203975915908813,0.9446128606796265,-0.5131394863128662
1768421551081677000,5.810677001953125,0.8265788555145264,0.9833312034606934,-0.6149196028709412
1768421551091677000,5.820677001953125,0.8935118317604065,0.9950371384620667,-0.6427707076072693
1768421551101677000,5.830677001953125,0.8927360773086548,0.9859501719474792,-0.6438152194023132
1768421551111678200,5.84067822265625,0.8319116234779358,1.0071827173233032,-0.61679607629776
1768421551121678000,5.850677978515625,0.7397888898849487,0.9650022983551025,-0.5944066047668457
1768421551131678200,5.86067822265625,0.6284684538841248,0.8406481146812439,-0.6109145283699036
1768421551141678000,5.870677978515625,0.49107837677001953,0.6623574495315552,-0.6790850162506104
1768421551151678200,5.88067822265625,0.33834370970726013,0.5167392492294312,-0.7093795537948608
1768421551161678000,5.890677978515625,0.22535429894924164,0.6616165637969971,-0.5110499858856201
1768421551171678000,5.900677978515625,0.26531583070755005,1.1397581100463867,0.08934372663497925
1768421551181679000,5.91067919921875,0.4984332323074341,0.41398707032203674,0.8864001631736755
1768421551191679000,5.920678955078125,0.29370617866516113,-1.4068098068237305,1.237542748451233
1768421551201679000,5.93067919921875,-0.5293117761611938,-1.4484416246414185,0.3042709529399872
1768421551211679000,5.940678955078125,-1.245476245880127,-0.4522814452648163,-0.5783347487449646
1768421551221678800,5.950678955078125,-1.6062568426132202,0.19596923887729645,-0.44035422801971436
1768421551231679000,5.960678955078125,-0.9194217324256897,-0.011562113650143147,-0.11279472708702087
1768421551241678800,5.970678955078125,0.20614011585712433,-0.011987420730292797,0.23777234554290771
1768421551251679000,5.980678955078125,0.9272903203964233,0.40735924243927,0.3823780119419098
1768421551261680000,5.99068017578125,1.128907561302185,0.6484946608543396,0.06494118273258209
1768421551271680000,6.000679931640625,0.9668118953704834,0.4943716526031494,-0.3866651654243469
1768421551281680100,6.01068017578125,0.6343125104904175,-0.15650545060634613,-0.5840250849723816
1768421551291680000,6.020679931640625,0.37324920296669006,-0.9286503791809082,-0.3938479721546173
1768421551301680000,6.03068017578125,0.24141821265220642,-1.4752546548843384,-0.03893062099814415
1768421551311680000,6.040679931640625,0.2658732235431671,-1.571016550064087,0.19040963053703308
1768421551321680100,6.05068017578125,0.4482784569263458,-1.2913529872894287,0.2040010690689087
1768421551331681000,6.060680908203125,0.7071363925933838,-0.9258548617362976,0.059550147503614426
1768421551341681000,6.070680908203125,0.8288097977638245,-0.7541525959968567,-0.08312790840864182
1768421551351681000,6.080680908203125,0.7386658191680908,-0.7044971585273743,-0.13642682135105133
1768421551361681000,6.090680908203125,0.5691084861755371,-0.6815119981765747,-0.019577164202928543
1768421551371681000,6.100680908203125,0.4299793243408203,-0.6660371422767639,0.21249282360076904
1768421551381681000,6.110680908203125,0.25940918922424316,-0.6766163110733032,0.4230724275112152
1768421551391681000,6.120680908203125,0.09761284291744232,-0.7891334891319275,0.5606880784034729
1768421551401682000,6.130681884765625,-0.010735468938946724,-0.9355093836784363,0.589367687702179
1768421551411682000,6.14068212890625,-0.0763150081038475,-1.0711116790771484,0.5375462770462036
1768421551421682200,6.15068212890625,-0.11964011192321777,-1.1547048091888428,0.4716479480266571
1768421551431682000,6.16068212890625,-0.16038461029529572,-1.1163630485534668,0.3808591961860657
1768421551441681200,6.17068115234375,-0.203848734498024,-0.9959521889686584,0.27043095231056213
1768421551451681000,6.180680908203125,-0.2663235664367676,-0.8562384843826294,0.1454687863588333
1768421551461681200,6.19068115234375,-0.3326679766178131,-0.7677121162414551,0.05150047689676285
1768421551471682000,6.20068212890625,-0.37146249413490295,-0.7777029275894165,-0.014760570600628853
1768421551481682200,6.21068212890625,-0.3745483160018921,-0.8010149598121643,-0.07095087319612503
1768421551491682000,6.22068212890625,-0.30946382880210876,-0.736790120601654,-0.12429612129926682
1768421551501682000,6.230681884765625,-0.23054373264312744,-0.6173074245452881,-0.1988116353750229
1768421551511682000,6.24068212890625,-0.13496235013008118,-0.6823732256889343,-0.3294585943222046
1768421551521682000,6.250681884765625,-0.057194579392671585,-0.7921290397644043,-0.4041709005832672
1768421551531682000,6.26068212890625,0.060738448053598404,-0.8450828194618225,-0.28636011481285095
1768421551541682000,6.270681884765625,0.24508965015411377,-0.8794404864311218,0.10713604092597961
1768421551551683000,6.28068310546875,0.5455507040023804,-0.9455108642578125,0.5646740198135376
1768421551561683000,6.290682861328125,0.9923713207244873,-1.3156121969223022,0.3486570417881012
1768421551571683000,6.30068310546875,1.2727569341659546,-1.2290993928909302,-0.347627729177475
1768421551581683200,6.31068310546875,1.0371779203414917,-0.2130022794008255,-0.44045355916023254
1768421551591683000,6.32068310546875,0.864254891872406,-0.1306096762418747,-0.39838626980781555
1768421551601683200,6.33068310546875,0.7157455682754517,-0.7350659966468811,-0.40159162878990173
1768421551611683000,6.34068310546875,0.8140958547592163,-0.8977856636047363,-0.5719223618507385
1768421551621684000,6.35068408203125,0.8674386739730835,-0.7204045057296753,-0.7326340079307556
1768421551631684000,6.36068408203125,0.6610966920852661,-0.2670559287071228,-0.3597240746021271
1768421551641684000,6.37068408203125,0.5197126865386963,-0.08650186657905579,0.35817334055900574
1768421551651684000,6.38068408203125,0.4677022099494934,-0.09778914600610733,0.8259495496749878
1768421551661684000,6.39068408203125,0.41013026237487793,-0.0679076761007309,0.8940037488937378
1768421551671684000,6.40068408203125,0.3321459889411926,0.000009321063771494664,0.9041628837585449
1768421551681684000,6.41068408203125,0.19636738300323486,-0.12392088025808334,0.8207162022590637
1768421551691684900,6.420684814453125,-0.023150326684117317,-0.21813926100730896,0.6570804119110107
1768421551701685000,6.43068505859375,-0.18779094517230988,-0.1959037333726883,0.5940974354743958
1768421551711684900,6.440684814453125,-0.2288249284029007,-0.2551017999649048,0.6278796195983887
1768421551721685200,6.450685302734375,-0.21599647402763367,-0.334355890750885,0.7141700387001038
1768421551731685000,6.46068505859375,-0.21843592822551727,-0.3750316798686981,0.822191059589386
1768421551741685200,6.470685302734375,-0.2097063511610031,-0.39901262521743774,0.9387200474739075
1768421551751685000,6.48068505859375,-0.1630333960056305,-0.43247178196907043,0.9987576007843018
1768421551761685200,6.490685302734375,-0.0749453455209732,-0.4968832731246948,0.977080762386322
1768421551771686100,6.50068603515625,-0.0005616606795229018,-0.5515989661216736,0.9515013694763184
1768421551781686000,6.51068603515625,0.07709771394729614,-0.5743213295936584,0.9532713294029236
1768421551791686100,6.52068603515625,0.15747271478176117,-0.5733852386474609,0.950777530670166
1768421551801686000,6.53068603515625,0.2287498265504837,-0.47222453355789185,0.8747895359992981
1768421551811686100,6.54068603515625,0.31590574979782104,-0.2450329214334488,0.6976557970046997
1768421551821686000,6.55068603515625,0.4757465720176697,0.05901458486914635,0.47577160596847534
1768421551831686100,6.56068603515625,0.6243054270744324,0.325323224067688,0.2818026542663574
1768421551841687000,6.57068701171875,0.6821284890174866,0.43361347913742065,0.16606833040714264
1768421551851687000,6.58068701171875,0.6513290405273438,0.3654176592826843,0.1302456259727478
1768421551861687000,6.59068701171875,0.529524564743042,0.1910354644060135,0.1708519011735916
1768421551871687200,6.600687255859375,0.3468961715698242,0.09619790315628052,0.33955809473991394
1768421551881687000,6.61068701171875,0.12055810540914536,0.08160591125488281,0.6444165110588074
1768421551891687200,6.620687255859375,-0.05853787809610367,0.071037158370018,1.017719030380249
1768421551901687000,6.63068701171875,-0.14560140669345856,0.10398099571466446,1.3245843648910522
1768421551911687200,6.640687255859375,-0.09479628503322601,0.16969342529773712,1.4673434495925903
1768421551921688000,6.65068798828125,0.06109477952122688,0.3854723274707794,1.4684441089630127
1768421551931688200,6.660688232421875,0.20268359780311584,0.7758110165596008,1.2163881063461304
1768421551941688000,6.67068798828125,0.3296428918838501,1.080950140953064,0.7414333820343018
1768421551951688000,6.68068798828125,0.39139679074287415,1.0900752544403076,0.34517309069633484
1768421551961688000,6.69068798828125,0.3243248164653778,0.8804532885551453,0.3218581974506378
1768421551971688000,6.70068798828125,0.06196350231766701,0.5632787942886353,0.6755222678184509
1768421551981688000,6.71068798828125,-0.06849836558103561,0.2800835967063904,1.162166953086853
1768421551991689000,6.72068896484375,-0.09234964102506638,0.11199657618999481,1.602317452430725
1768421552001688800,6.730688720703125,-0.14652445912361145,0.0994056835770607,1.9077540636062622
1768421552011689000,6.74068896484375,-0.11009427905082703,0.1982305347919464,1.9500595331192017
1768421552021688800,6.750688720703125,0.15572355687618256,0.3205958604812622,1.7564860582351685
1768421552031689200,6.760689208984375,0.521084725856781,0.4588695764541626,1.527594804763794
1768421552041689000,6.770689208984375,0.6691889762878418,0.4675288498401642,1.3521076440811157
1768421552051689200,6.780689208984375,0.5738920569419861,0.4198364317417145,1.304497480392456
1768421552061690000,6.790690185546875,0.3858659267425537,0.4931899905204773,1.3540823459625244
1768421552071690000,6.80068994140625,0.2668338119983673,0.667604923248291,1.4398598670959473
1768421552081690000,6.810690185546875,0.32146456837654114,0.8454487323760986,1.561208963394165
1768421552091690000,6.82068994140625,0.4293942451477051,1.0134955644607544,1.686141848564148
1768421552101690000,6.830690185546875,0.5223875641822815,1.1939427852630615,1.8468595743179321
1768421552111690000,6.84068994140625,0.618515133857727,1.3515914678573608,1.9193774461746216
1768421552121690000,6.850690185546875,0.6969963908195496,1.4144532680511475,1.852006196975708
1768421552131690000,6.86068994140625,0.7161823511123657,1.472312569618225,1.6972697973251343
1768421552141691000,6.87069091796875,0.6823647022247314,1.5493509769439697,1.5755140781402588
1768421552151691000,6.88069091796875,0.6510211825370789,1.5840346813201904,1.6731195449829102
1768421552161691000,6.89069091796875,0.6520512700080872,1.551364541053772,1.943751573562622
1768421552171691000,6.90069091796875,0.7254467010498047,1.496524453163147,2.11791729927063
1768421552181691100,6.910691162109375,0.8254856467247009,1.371801733970642,1.9725635051727295
1768421552191691300,6.920691162109375,0.9360209703445435,1.3035571575164795,1.803532361984253
1768421552201691100,6.930691162109375,1.0962433815002441,1.3128234148025513,1.8358210325241089
1768421552211692000,6.940692138671875,1.198023796081543,1.2166420221328735,1.979560375213623
1768421552221692200,6.950692138671875,1.1902167797088623,0.9709509611129761,2.2069573402404785
1768421552231692000,6.960692138671875,1.126139760017395,0.7385081648826599,2.509755849838257
1768421552241692200,6.970692138671875,1.1029396057128906,0.5105569958686829,2.745683431625366
1768421552251692000,6.980692138671875,1.1048121452331543,0.20169450342655182,2.7685799598693848
1768421552261692200,6.990692138671875,1.1140564680099487,-0.1667109578847885,2.696967840194702
1768421552271692000,7.000692138671875,1.1287339925765991,-0.43760156631469727,2.6680665016174316
1768421552281692000,7.01069189453125,1.192341685295105,-0.6630706191062927,2.73655104637146
1768421552291693000,7.020693115234375,1.3006939888000488,-0.8413876295089722,2.9359748363494873
1768421552301693000,7.03069287109375,1.3617349863052368,-0.8465778827667236,3.1958415508270264
1768421552311693000,7.040693115234375,1.307468295097351,-0.8972445130348206,3.349116802215576
1768421552321693000,7.05069287109375,1.1721863746643066,-1.132417917251587,3.2440500259399414
1768421552331693000,7.060693115234375,0.9779108762741089,-1.4520443677902222,3.1772263050079346
1768421552341693200,7.070693115234375,0.723119854927063,-1.7382742166519165,3.1748688220977783
1768421552351693000,7.080693115234375,0.5254136919975281,-1.8342514038085938,2.9678802490234375
1768421552361693200,7.090693115234375,0.5639054775238037,-1.7373675107955933,2.567744493484497
1768421552371694000,7.100694091796875,0.6437736749649048,-1.7795144319534302,2.153947114944458
1768421552381694000,7.11069384765625,0.7242929935455322,-1.9683423042297363,1.862634539604187
1768421552391694000,7.120694091796875,0.7973632216453552,-1.8659204244613647,1.756603717803955
1768421552401694000,7.13069384765625,0.6530731320381165,-0.7527291774749756,1.7581065893173218
1768421552411694000,7.140694091796875,0.33291590213775635,0.7048321962356567,1.611112356185913
1768421552421694000,7.15069384765625,0.1621875762939453,2.645531415939331,1.4147241115570068
1768421552431694000,7.160694091796875,0.24301718175411224,5.065530300140381,1.4329696893692017
1768421552441695700,7.17069580078125,0.6812640428543091,6.828344821929932,1.5300792455673218
1768421552451695900,7.18069580078125,1.0892075300216675,7.273115158081055,1.4383759498596191
1768421552461696000,7.190696044921875,0.8897448182106018,7.255241394042969,1.5169527530670166
1768421552471696000,7.20069580078125,0.4666239023208618,6.964421272277832,1.6370136737823486
1768421552481696000,7.210696044921875,0.266774445772171,6.556521415710449,1.501686453819275
1768421552491695900,7.22069580078125,0.35766518115997314,6.539300441741943,1.240012764930725
1768421552501695700,7.23069580078125,0.460410475730896,6.139462947845459,1.0838232040405273
1768421552511696000,7.24069580078125,0.7427005171775818,5.090925216674805,1.1366733312606812
1768421552521696800,7.25069677734375,1.0170271396636963,3.889657497406006,1.393784761428833
1768421552531697000,7.26069677734375,0.8947933316230774,3.257995367050171,1.7041945457458496
1768421552541696800,7.27069677734375,0.4309055805206299,2.4247825145721436,2.0628442764282227
1768421552551697000,7.28069677734375,0.1687951385974884,2.253715991973877,2.01021146774292
1768421552561696800,7.29069677734375,1.0782201290130615,2.639911651611328,1.7749356031417847
1768421552571696600,7.300696533203125,2.157632827758789,3.444323778152466,1.3262358903884888
1768421552581696800,7.31069677734375,2.3204522132873535,2.9828109741210938,1.2216644287109375
1768421552591697700,7.32069775390625,1.6154534816741943,2.2813072204589844,1.188093900680542
1768421552601698000,7.330697998046875,0.6488800048828125,1.1106665134429932,0.5831688642501831
1768421552611698000,7.340697998046875,-0.1468786597251892,-0.8420901894569397,-0.33029961585998535
1768421552621697800,7.35069775390625,-0.394096702337265,-2.2374491691589355,-0.6292261481285095
1768421552631698000,7.360697998046875,-0.34796223044395447,-2.2902045249938965,-0.1695277839899063
1768421552641697800,7.37069775390625,-0.07692194730043411,-2.018838882446289,0.08064637333154678
1768421552651698000,7.380697998046875,0.32307764887809753,-2.233555316925049,-0.14708025753498077
1768421552661697800,7.39069775390625,0.5308979749679565,-2.4043121337890625,-0.24419482052326202
1768421552671698700,7.40069873046875,0.6304045915603638,-2.7263715267181396,-0.16993124783039093
1768421552681698800,7.41069873046875,0.7015045881271362,-3.0849204063415527,-0.06281039118766785
1768421552691698700,7.42069873046875,0.8066675066947937,-2.947542190551758,-0.07103103399276733
1768421552701698800,7.43069873046875,0.9584349393844604,-2.8229668140411377,-0.18764926493167877
1768421552711698700,7.44069873046875,1.0827083587646484,-2.7736198902130127,-0.24409495294094086
1768421552721698800,7.45069873046875,1.0592012405395508,-2.8683199882507324,-0.18339192867279053
1768421552731698700,7.46069873046875,0.9216902256011963,-2.9661331176757812,-0.055933840572834015
1768421552741698800,7.47069873046875,0.8313534259796143,-2.964104413986206,0.09525754302740097
1768421552751700000,7.480699951171875,0.7545891404151917,-2.763455629348755,0.19197529554367065
1768421552761699800,7.490699951171875,0.7682023644447327,-2.7087392807006836,0.27139341831207275
1768421552771700000,7.500699951171875,0.8734920620918274,-2.541506767272949,0.3407714366912842
1768421552781699800,7.510699951171875,1.0169730186462402,-2.3447391986846924,0.3655849099159241
1768421552791700000,7.520699951171875,0.9994339942932129,-2.1970901489257812,0.3100593388080597
1768421552801699800,7.530699951171875,0.8770601749420166,-1.9721970558166504,0.1689767688512802
1768421552811700000,7.540699951171875,0.793506920337677,-1.7563300132751465,0.017737984657287598
1768421552821699800,7.550699951171875,0.6223530173301697,-1.6686959266662598,-0.0649678111076355
1768421552831700700,7.56070068359375,0.42595183849334717,-1.7175966501235962,-0.12309316545724869
1768421552841700900,7.570700927734375,0.1524694263935089,-1.701236367225647,-0.22870855033397675
1768421552851700700,7.58070068359375,-0.03857428953051567,-1.61995267868042,-0.34242552518844604
1768421552861700900,7.590700927734375,-0.03518408536911011,-1.6036170721054077,-0.39271825551986694
1768421552871700700,7.60070068359375,0.08466961234807968,-1.6470074653625488,-0.4079456627368927
1768421552881700900,7.610700927734375,0.10660287737846375,-1.688834309577942,-0.4404468834400177
1768421552891700700,7.62070068359375,-0.01637577824294567,-1.6494005918502808,-0.4227485954761505
1768421552901700600,7.63070068359375,-0.10233835875988007,-1.4801527261734009,-0.40081292390823364
1768421552911702000,7.640701904296875,-0.15401460230350494,-1.244550347328186,-0.37579840421676636
1768421552921702000,7.650701904296875,-0.17045988142490387,-1.011823296546936,-0.3085311949253082
1768421552931702000,7.660701904296875,-0.18135115504264832,-0.7910690903663635,-0.22109776735305786
1768421552941702000,7.670701904296875,-0.18708866834640503,-0.6121765971183777,-0.13701963424682617
1768421552951701800,7.68070166015625,-0.1672193557024002,-0.46071407198905945,-0.06710952520370483
1768421552961702000,7.690701904296875,-0.13860873878002167,-0.3309510350227356,-0.008932242169976234
1768421552971701800,7.70070166015625,-0.10432960093021393,-0.20446312427520752,0.05307067558169365
1768421552981703000,7.710702880859375,-0.07414453476667404,-0.1123097613453865,0.11351431161165237
1768421552991702800,7.720702880859375,-0.04356558620929718,-0.04189338907599449,0.16587205231189728
1768421553001703000,7.730702880859375,-0.01792440563440323,0.009166067466139793,0.1956390142440796
1768421553011702800,7.740702880859375,-0.003593403147533536,0.04862426221370697,0.21381054818630219
1768421553021702700,7.75070263671875,-0.013370666652917862,0.09888769686222076,0.2621786296367645
1768421553031702800,7.760702880859375,0.005607551895081997,0.05932111293077469,0.24146375060081482
1768421553041702700,7.77070263671875,0.0057532270438969135,0.06678701937198639,0.22422324120998383
1768421553051702800,7.780702880859375,0.0239572636783123,0.0016892430139705539,0.16171486675739288
1768421553061704000,7.790703857421875,0.028599953278899193,-0.04138925299048424,0.1303606629371643
1768421553071703800,7.800703857421875,0.029290776699781418,-0.095740906894207,0.11509250104427338
1768421553081704000,7.810703857421875,0.028901955112814903,-0.1531677097082138,0.0971774160861969
1768421553091703800,7.820703857421875,0.021510884165763855,-0.1924368292093277,0.09009101241827011
1768421553101704000,7.830703857421875,0.01107422262430191,-0.27491119503974915,0.12264043092727661
1768421553111703800,7.840703857421875,0.015682822093367577,-0.3322114944458008,0.06440162658691406
1768421553121704000,7.850703857421875,0.005847236607223749,-0.38561347126960754,0.028545092791318893
1768421553131703800,7.860703857421875,-0.017175259068608284,-0.4662449359893799,0.019107913598418236
1768421553141704700,7.87070458984375,-0.03831276670098305,-0.5609487891197205,-0.021878400817513466
1768421553151704800,7.880704833984375,-0.05487789586186409,-0.6261197924613953,-0.08346133679151535
1768421553161704700,7.89070458984375,-0.05561905354261398,-0.6924303770065308,-0.14984329044818878
1768421553171704800,7.900704833984375,-0.05451410636305809,-0.7367666959762573,-0.19761426746845245
1768421553181704700,7.91070458984375,-0.052564140409231186,-0.7822002172470093,-0.22123411297798157
1768421553191704800,7.920704833984375,-0.054113566875457764,-0.8344423770904541,-0.2244080752134323
1768421553201704700,7.93070458984375,-0.05008101090788841,-0.873673677444458,-0.2298387885093689
1768421553211704800,7.940704833984375,-0.05967797711491585,-0.8615136742591858,-0.19231751561164856
1768421553221706000,7.9507060546875,-0.04206915572285652,-0.9446735382080078,-0.24346671998500824
1768421553231705900,7.960705810546875,-0.03544560819864273,-0.9418258666992188,-0.25822463631629944
1768421553241706000,7.9707060546875,-0.033244505524635315,-0.9322198033332825,-0.2537238895893097
1768421553251705900,7.980705810546875,-0.02707582525908947,-0.9197061657905579,-0.24497273564338684
1768421553261706000,7.9907060546875,-0.020023776218295097,-0.9024131894111633,-0.23689377307891846
1768421553271705900,8.000705810546876,-0.015018098056316376,-0.8840197920799255,-0.22672076523303986
1768421553281706000,8.0107060546875,-0.012210859917104244,-0.8655619621276855,-0.2163349688053131
1768421553291705900,8.020705810546875,-0.0037907434161752462,-0.8445656299591064,-0.20621921122074127
1768421553301706800,8.030706787109375,0.003946538548916578,-0.8141403198242188,-0.19721826910972595
1768421553311707000,8.040706787109375,0.010701912455260754,-0.7743292450904846,-0.1844494640827179
1768421553321706800,8.050706787109375,0.016918528825044632,-0.725055992603302,-0.17081888020038605
1768421553331707000,8.060706787109375,0.021313544362783432,-0.667071521282196,-0.15598800778388977
1768421553341706800,8.070706787109375,0.024632375687360764,-0.589216411113739,-0.13559271395206451
1768421553351706600,8.08070654296875,0.027292607352137566,-0.5059428215026855,-0.1101217120885849
1768421553361706800,8.090706787109376,0.029953638091683388,-0.4263100326061249,-0.08922361582517624
1768421553371706600,8.10070654296875,0.03230440989136696,-0.3616514205932617,-0.06402052938938141
1768421553381708000,8.1107080078125,0.034811243414878845,-0.30840417742729187,-0.04313521832227707
1768421553391708000,8.1207080078125,0.03971146047115326,-0.2621794044971466,-0.021752700209617615
1768421553401707800,8.130707763671875,0.03899133950471878,-0.21797920763492584,-0.002239984693005681
1768421553411708000,8.1407080078125,0.0371423102915287,-0.17658649384975433,0.015801332890987396
1768421553421707800,8.150707763671875,0.032885245978832245,-0.13161422312259674,0.02684199996292591
1768421553431708000,8.1607080078125,0.028504345566034317,-0.09100740402936935,0.03254435956478119
1768421553441707000,8.17070703125,0.023663783445954323,-0.057076070457696915,0.030952855944633484
1768421553451707100,8.18070703125,0.02201395481824875,-0.027393274009227753,0.035342808812856674
1768421553461708000,8.1907080078125,0.02117506042122841,0.002147306688129902,0.03946937993168831
1768421553471708200,8.200708251953126,0.023021696135401726,0.023297598585486412,0.04199538752436638
1768421553481708000,8.2107080078125,0.021760156378149986,0.03332599997520447,0.039627302438020706
1768421553491708200,8.220708251953125,0.018677281215786934,0.034978754818439484,0.0357273705303669
1768421553501708000,8.2307080078125,0.01787327229976654,0.026553846895694733,0.031863123178482056
1768421553511708000,8.2407080078125,0.017102288082242012,0.013966682367026806,0.025611620396375656
1768421553521708300,8.250708251953125,0.013016998767852783,-0.004683967679738998,0.011589810252189636
1768421553531708200,8.260708251953124,0.00947978813201189,-0.024416392669081688,0.00043276368523947895
1768421553541709300,8.270709228515624,0.0073774890042841434,-0.04601569473743439,-0.011994611471891403
1768421553551709200,8.280709228515626,0.0030368026345968246,-0.06953167170286179,-0.02664785645902157
1768421553561709000,8.290708984375,0.0010932276491075754,-0.09255816042423248,-0.036552418023347855
1768421553571709200,8.300709228515625,-0.0024684839881956577,-0.11425520479679108,-0.04320765659213066
1768421553581709000,8.310708984375,-0.004493285436183214,-0.13292182981967926,-0.05018327385187149
1768421553591709200,8.320709228515625,-0.004066380672156811,-0.1453462690114975,-0.053294114768505096
1768421553601709000,8.330708984375,-0.00538331363350153,-0.15914490818977356,-0.057431068271398544
1768421553611709200,8.340709228515625,-0.008788431994616985,-0.16312794387340546,-0.059721119701862335
1768421553621710000,8.3507099609375,-0.010332798585295677,-0.15904824435710907,-0.05982578173279762
1768421553631710000,8.3607099609375,-0.011506454087793827,-0.15066833794116974,-0.06054430454969406
1768421553641710000,8.3707099609375,-0.01332699041813612,-0.13944818079471588,-0.056963417679071426
1768421553651710000,8.3807099609375,-0.0135067543014884,-0.12519094347953796,-0.05059286952018738
1768421553661710000,8.3907099609375,-0.015586149878799915,-0.10604840517044067,-0.04266916587948799
1768421553671710200,8.400710205078125,-0.01703810505568981,-0.08592475950717926,-0.039741288870573044
1768421553681710300,8.41071044921875,-0.018822157755494118,-0.06256404519081116,-0.0392395481467247
1768421553691710200,8.420710205078125,-0.01889006793498993,-0.04712117463350296,-0.03323438763618469
1768421553701711000,8.430711181640625,-0.014969095587730408,-0.0332181416451931,-0.0242582019418478
1768421553711711200,8.440711181640625,-0.013368802145123482,-0.02207867056131363,-0.01721653714776039
1768421553721711000,8.450711181640624,-0.01366441324353218,-0.01937449723482132,-0.015657790005207062
1768421553731711200,8.460711181640624,-0.012369051575660706,-0.0044264402240514755,-0.015513446182012558
1768421553741711000,8.470711181640626,-0.011156780645251274,0.0031039142049849033,-0.017046628519892693
1768421553751711200,8.480711181640626,-0.009576461277902126,-0.004372377879917622,-0.023391608148813248
1768421553761711000,8.490711181640625,-0.006569752003997564,-0.020555075258016586,-0.014673484489321709
1768421553771711200,8.500711181640625,-0.0019478360190987587,-0.029709426686167717,-0.00711809704080224
1768421553781712100,8.510712158203125,0.00045140579459257424,-0.03398832678794861,-0.00034887410583905876
1768421553791712000,8.5207119140625,0.003212837502360344,-0.031323835253715515,0.00022610237647313625
1768421553801712000,8.530712158203125,0.0009153284481726587,-0.027112310752272606,-0.0023928501177579165
1768421553811712000,8.5407119140625,0.0005728459218516946,-0.026247849687933922,-0.010040650144219398
1768421553821712100,8.550712158203124,0.0020668793004006147,-0.031248733401298523,-0.014756308868527412
1768421553831712300,8.560712158203126,0.003427488263696432,-0.04085315763950348,-0.017580857500433922
1768421553841712000,8.570712158203126,0.004220045171678066,-0.0496186837553978,-0.018503643572330475
1768421553851712300,8.580712158203125,0.004526042379438877,-0.0566377118229866,-0.019094333052635193
1768421553861713200,8.590713134765625,0.0033510555513203144,-0.05794612318277359,-0.020129237323999405
1768421553871713300,8.60071337890625,0.004942560568451881,-0.05668884515762329,-0.01901310496032238
1768421553881713200,8.610713134765625,0.0036618465092033148,-0.05506911128759384,-0.01853613369166851
1768421553891713000,8.620713134765625,0.003976631909608841,-0.05384725332260132,-0.01949939876794815
1768421553901713200,8.630713134765625,0.003177417442202568,-0.04916834458708763,-0.021855231374502182
1768421553911713000,8.640713134765624,0.003168629016727209,-0.043417248874902725,-0.020909275859594345
1768421553921713200,8.650713134765626,0.0019321233266964555,-0.0399351641535759,-0.022732742130756378
1768421553931713000,8.660713134765626,0.0001507349224993959,-0.03639049828052521,-0.022456573322415352
1768421553941713200,8.670713134765625,0.0004679173871409148,-0.03447834774851799,-0.02245018072426319
1768421553951714000,8.680714111328125,-0.0009265137487091124,-0.0317147858440876,-0.02261556312441826
1768421553961714000,8.6907138671875,-0.0021576930303126574,-0.02538578398525715,-0.020845627412199974
1768421553971714300,8.70071435546875,-0.0008673915872350335,-0.021228322759270668,-0.01847008801996708
1768421553981714200,8.710714111328125,-0.003293531248345971,-0.018690597265958786,-0.01817421056330204
1768421553991714300,8.72071435546875,-0.0028447885997593403,-0.015532087534666061,-0.017167534679174423
1768421554001714200,8.730714111328124,-0.004050401505082846,-0.011057178489863873,-0.014796522445976734
1768421554011714300,8.74071435546875,-0.005054146982729435,-0.009673133492469788,-0.013459349982440472
1768421554021714200,8.750714111328126,-0.0033846113365143538,-0.011775699444115162,-0.012649215757846832
1768421554031715000,8.760715087890626,-0.005352154839783907,-0.01465590763837099,-0.010370083153247833
1768421554041715200,8.770715087890625,-0.00424214918166399,-0.016289491206407547,-0.01005076989531517
1768421554051715000,8.780715087890625,-0.003528422210365534,-0.01913134939968586,-0.008922388777136803
1768421554061715200,8.790715087890625,-0.0049617355689406395,-0.017225058749318123,-0.008111988194286823
1768421554071715000,8.800715087890625,-0.0036045885644853115,-0.016320649534463882,-0.010396447964012623
1768421554081715200,8.810715087890625,-0.00478303711861372,-0.016709737479686737,-0.013909956440329552
1768421554091715000,8.820715087890624,-0.002198439557105303,-0.01641732268035412,-0.014177071861922741
1768421554101715200,8.830715087890624,-0.003733751829713583,-0.017463145777583122,-0.01233229972422123
1768421554111716000,8.840716064453124,-0.0021614215802401304,-0.017311878502368927,-0.010056628845632076
1768421554121716000,8.850716064453126,-0.00236195744946599,-0.01757712848484516,-0.011024687439203262
1768421554131716400,8.86071630859375,-0.0017233315156772733,-0.01804930716753006,-0.01233336515724659
1768421554141716200,8.87071630859375,0.0005065332516096532,-0.019240539520978928,-0.014881744049489498
1768421554151716400,8.88071630859375,-0.000922519015148282,-0.014278803952038288,-0.014108095318078995
1768421554161716200,8.89071630859375,-0.0005052016349509358,-0.012358132749795914,-0.016411995515227318
1768421554171716000,8.900716064453125,-0.00022317290131468326,-0.010522948578000069,-0.017471667379140854
1768421554181716200,8.91071630859375,0.000841825210954994,-0.011384746991097927,-0.018755311146378517
1768421554191716000,8.920716064453124,-0.00046152580762282014,-0.013545902445912361,-0.01919340156018734
1768421554201717200,8.93071728515625,-0.0009723200928419828,-0.014756042510271072,-0.01883707009255886
1768421554211717000,8.940717041015626,0.001181378262117505,-0.01275494322180748,-0.019290873780846596
1768421554221717000,8.950717041015626,0.0009984191274270415,-0.012091283686459064,-0.0182261411100626
1768421554231717000,8.960717041015625,0.001984054921194911,-0.01019617822021246,-0.016823189333081245
1768421554241717000,8.970717041015625,0.0010373012628406286,-0.01242284756153822,-0.018139056861400604
1768421554251717000,8.980717041015625,0.0007691209320910275,-0.015548067167401314,-0.017971010878682137
1768421554261717000,8.990717041015625,-0.0003736414946615696,-0.016148077324032784,-0.01780349761247635
1768421554271717000,9.000717041015625,0.0011627360945567489,-0.02081926167011261,-0.01625407114624977
1768421554281718300,9.01071826171875,0.0013792511308565736,-0.024803616106510162,-0.018267953768372536
1768421554291718100,9.02071826171875,0.0006801713607273996,-0.02714320458471775,-0.018005631864070892
1768421554301718300,9.03071826171875,0.00011345066013745964,-0.02744494006037712,-0.01956225000321865
1768421554311718100,9.04071826171875,0.0015717976493760943,-0.022544190287590027,-0.019942548125982285
1768421554321718300,9.05071826171875,-0.00058323226403445,-0.018875153735280037,-0.02178998477756977
1768421554331718100,9.06071826171875,-0.0017116136150434613,-0.01792627014219761,-0.021389178931713104
1768421554341718300,9.07071826171875,-0.001663410454057157,-0.012688897550106049,-0.021890385076403618
1768421554351718100,9.08071826171875,-0.004599012900143862,-0.007968710735440254,-0.020446419715881348
1768421554361719000,9.090718994140625,-0.005393700208514929,-0.0035393410362303257,-0.019206184893846512
1768421554371719200,9.10071923828125,-0.005723133217543364,0.0012665993999689817,-0.01715927943587303
1768421554381719000,9.110718994140624,-0.004727643448859453,0.001847701147198677,-0.01648709736764431
1768421554391719200,9.12071923828125,-0.002353968098759651,0.005514075048267841,-0.015093998052179813
1768421554401719000,9.130718994140626,-0.0035691685043275356,0.005095692351460457,-0.013643640093505383
1768421554411719200,9.14071923828125,-0.0038301581516861916,0.003459446132183075,-0.012286759912967682
1768421554421719000,9.150718994140625,-0.003952131140977144,0.0021784657146781683,-0.007864048704504967
1768421554431719200,9.16071923828125,-0.002700445242226124,0.0005406216951087117,-0.008166583254933357
1768421554441719600,9.170719482421875,-0.002810966456308961,-0.0002689792599994689,-0.004541222471743822
1768421554451720700,9.180720703125,-0.0019331886433064938,0.00016165387933142483,-0.004039749037474394
1768421554461720800,9.190720947265625,-0.0024525050539523363,-0.0008423578692600131,-0.0034000577870756388
1768421554471720700,9.200720703125,-0.0018133464036509395,-0.000030360035452758893,-0.0020540961995720863
1768421554481720600,9.210720458984374,-0.0015835155500099063,0.00008175904804375023,-0.0007523429812863469
1768421554491720700,9.220720703125,0.00016431703988928348,0.00040480049210600555,-0.0006673881434835494
1768421554501720600,9.230720458984376,0.0012636699248105288,-0.0009528790251351893,-0.0008764463127590716
1768421554511720700,9.240720703125,0.0031055121216923,0.0002735066518653184,-0.001888980157673359
1768421554521720600,9.250720458984375,0.0010924286907538772,0.0034581145737320185,-0.0019979034550487995
1768421554531721500,9.260721435546875,0.0010604707058519125,0.0033593112602829933,-0.001439971150830388
1768421554541721600,9.2707216796875,0.0038043255917727947,0.0034115093294531107,0.000330231967382133
1768421554551721500,9.280721435546875,0.00472631212323904,0.0031726236920803785,0.0008024104172363877
1768421554561721600,9.2907216796875,0.0020511667244136333,0.001059139147400856,-0.00014913702034391463
1768421554571721500,9.300721435546874,0.003573429537937045,-0.003236273303627968,-0.0007459514308720827
1768421554581721600,9.3107216796875,0.0036506610922515392,-0.003478088416159153,-0.0015755260828882456
1768421554591721500,9.320721435546876,0.004129497334361076,-0.005850432440638542,-0.0030067088082432747
1768421554601721600,9.3307216796875,0.003966245800256729,-0.0049095372669398785,-0.004009122494608164
1768421554611722800,9.34072265625,0.0037262949626892805,-0.00512924836948514,-0.000360059377271682
1768421554621722600,9.35072265625,0.0051739891059696674,-0.0007968177669681609,0.003689543344080448
1768421554631722800,9.36072265625,0.005882123950868845,0.0008801747462712228,0.0025835325941443443
1768421554641722600,9.37072265625,0.004108725115656853,0.00005965480886516161,-0.001255946815945208
1768421554651722800,9.38072265625,0.0021379857789725065,-0.00236275652423501,-0.005012601613998413
1768421554661722600,9.39072265625,0.0010719223646447062,-0.0049217878840863705,-0.005090632475912571
1768421554671722800,9.40072265625,0.0011092065833508968,-0.0021134845446795225,-0.005020591430366039
1768421554681722600,9.41072265625,-0.0009523464250378311,0.0018378474051132798,-0.003573163179680705
1768421554691722800,9.42072265625,0.0017193368403241038,0.00990136619657278,0.0009049421059899032
1768421554701723600,9.4307236328125,0.0005478122038766742,0.01744317263364792,0.0064927865751087666
1768421554711723500,9.4407236328125,0.0005850964807905257,0.025053154677152634,0.004345746245235205
1768421554721723600,9.4507236328125,-0.001184041379019618,0.02195669710636139,-0.00515854312106967
1768421554731723500,9.4607236328125,-0.0016074840677902102,0.01883946731686592,-0.004680239129811525
1768421554741723600,9.4707236328125,0.00036911413189955056,0.02153565175831318,0.002745985286310315
1768421554751723500,9.4807236328125,-0.00015472965606022626,0.027881432324647903,0.006951116491109133
1768421554761723600,9.4907236328125,0.00018988338706549257,0.034562237560749054,0.005548962391912937
1768421554771723800,9.500723876953124,-0.0005419532535597682,0.038303714245557785,0.005862682592123747
1768421554781724700,9.510724609375,-0.0008759136544540524,0.03817082196474075,0.0038253646343946457
1768421554791724800,9.520724853515626,0.0008085357258096337,0.038240063935518265,0.0026498453225940466
1768421554801724700,9.530724609375,-0.001100950757972896,0.037037111818790436,0.004340686369687319
1768421554811724500,9.540724609375,-0.0010309095960110426,0.03738678619265556,0.0046386937610805035
1768421554821724700,9.550724609375,-0.002168612089008093,0.0342828705906868,0.00330231967382133
1768421554831724500,9.560724609375,-0.0015443670563399792,0.03382507339119911,0.0022034994326531887
1768421554841724700,9.570724609375,-0.001133707701228559,0.03170173615217209,0.0032799490727484226
1768421554851724500,9.580724609375,-0.003310841741040349,0.03133714944124222,0.004244812298566103
1768421554861725700,9.5907255859375,-0.0027382622938603163,0.03145645931363106,0.0022772690281271935
1768421554871725600,9.6007255859375,-0.0015864450251683593,0.03159894049167633,0.002366218715906143
1768421554881725400,9.610725341796876,-0.0017302557826042175,0.03188309818506241,0.0023217438720166683
1768421554891725600,9.6207255859375,-0.0022626216523349285,0.03130492568016052,-0.00005512743518920615
1768421554901725400,9.630725341796875,-0.0034176346380263567,0.0305765513330698,0.00044022052315995097
1768421554911725600,9.6407255859375,-0.001898301183246076,0.03093820810317993,0.0014026869321241975
1768421554921725700,9.6507255859375,-0.001832787413150072,0.027666514739394188,0.0018527611391618848
1768421554931725800,9.660725830078125,-0.0008697884040884674,0.02478710561990738,0.003924700431525707
1768421554941725700,9.6707255859375,0.0014524880098178983,0.02106187492609024,0.004829642828553915
1768421554951726600,9.6807265625,0.00010865696822293103,0.01793905347585678,0.0029814087320119143
1768421554961726700,9.690726806640624,-0.00339126936160028,0.013481453992426395,0.0028663603588938713
1768421554971726600,9.7007265625,-0.001303084660321474,0.012006063014268875,0.0026056368369609118
1768421554981726700,9.710726806640626,0.00034940673504024744,0.010490457527339458,0.003242931328713894
1768421554991726600,9.7207265625,0.0002055960358120501,0.007662180811166763,0.0015835155500099063
1768421555001726700,9.730726806640625,-0.00042290997225791216,0.009492038749158382,0.002752643311396241
1768421555011726600,9.7407265625,-0.0003382214636076242,0.011148258112370968,0.004029628820717335
1768421555021726700,9.750726806640625,0.0036495958920568228,0.014296380802989006,0.0031076427549123764
1768421555031727600,9.7607275390625,0.0019265307346358895,0.015497466549277306,0.004817924462258816
1768421555041727500,9.7707275390625,0.0009558085002936423,0.015269500203430653,0.0044077979400753975
1768421555051727600,9.7807275390625,0.0010748518398031592,0.015720373019576073,0.0019598202779889107
1768421555061727500,9.7907275390625,-0.00013528858835343271,0.014875618740916252,0.0014628743520006537
1768421555071727900,9.800727783203126,0.002383529208600521,0.014416489750146866,0.002433330286294222
1768421555081727700,9.810727783203125,0.0017259946325793862,0.016165919601917267,0.00424268189817667
1768421555091727600,9.8207275390625,0.001332645770162344,0.015421300195157528,0.005061071366071701
1768421555101727700,9.830727783203125,0.0016753945965319872,0.016155799850821495,0.004869856406003237
1768421555111728600,9.840728759765625,0.0008977515972219408,0.014607705175876617,0.0028551749419420958
1768421555121728800,9.850728759765625,0.001421861699782312,0.014524081721901894,0.002919090911746025
1768421555131728600,9.860728759765625,0.0010495517635717988,0.015420501120388508,0.001945705502294004
1768421555141728500,9.870728515625,-0.0002466087171342224,0.01531690452247858,0.0006974819116294384
1768421555151728600,9.880728759765624,0.0007949535502120852,0.014582404866814613,0.0009179916232824326
1768421555161728500,9.890728515625,-0.0005099953268654644,0.013230850920081139,0.0016178702935576439
1768421555171728600,9.900728759765625,0.0002902845444623381,0.015065236017107964,0.0012567456578835845
1768421555181728500,9.910728515625,0.00039494677912443876,0.014127270318567753,0.003010969841852784
1768421555191728600,9.920728759765625,-0.00145222176797688,0.015126488171517849,0.004281830508261919
1768421555201729500,9.9307294921875,-0.0006985471700318158,0.016232233494520187,0.0027747475542128086
1768421555211729400,9.9407294921875,-0.0015614113071933389,0.01848100684583187,0.002630670554935932
1768421555221729800,9.950729736328125,0.0005201153689995408,0.018936406821012497,0.002241050126031041
1768421555231729700,9.960729736328124,-0.002805906580761075,0.019626431167125702,0.004127100575715303
1768421555241729800,9.970729736328124,-0.00004261057620169595,0.018262360244989395,0.0051537491381168365
1768421555251729700,9.980729736328126,-0.0008743157959543169,0.018318021669983864,0.004814994987100363
1768421555261729800,9.990729736328126,0.00028628981090150774,0.01991059072315693,0.005708485841751099
1768421555271729700,10.000729736328125,0.00003914846820407547,0.019568108022212982,0.005456018261611462
1768421555281730600,10.01073046875,0.0015568839153274894,0.020015519112348557,0.005933522712439299
1768421555291730700,10.020730712890625,0.0001728391507640481,0.02009355090558529,0.005252552684396505
1768421555301730600,10.03073046875,-0.001612011343240738,0.021037107333540916,0.005791310220956802
1768421555311730700,10.040730712890625,0.0007693872321397066,0.023907730355858803,0.006595584563910961
1768421555321730600,10.05073046875,0.002372077666223049,0.024636104702949524,0.008445416577160358
1768421555331730700,10.060730712890624,0.0023640880826860666,0.02496393956243992,0.011953865177929401
1768421555341730600,10.07073046875,0.0026881948579102755,0.023919980973005295,0.010218548588454723
1768421555351730700,10.080730712890626,0.004165183752775192,0.021409951150417328,0.008640093728899956
1768421555361730600,10.09073046875,0.004267715383321047,0.020748687908053398,0.006957774516195059
1768421555371731700,10.100731689453125,0.003469033632427454,0.019904199987649918,0.004821120295673609
1768421555381731800,10.11073193359375,0.0043894220143556595,0.017101222649216652,0.0027049726340919733
1768421555391731700,10.120731689453125,0.0032642364967614412,0.014713166281580925,0.0013009541435167193
1768421555401731800,10.13073193359375,0.004539357963949442,0.01333071943372488,0.004347610287368298
1768421555411731700,10.140731689453125,0.0036770266015082598,0.013577328063547611,0.008768191561102867
1768421555421731600,10.150731689453124,0.0035534559283405542,0.011269432492554188,0.0052144695073366165
1768421555431731700,10.160731689453126,0.003358512418344617,0.008861402049660683,-0.0030027141328901052
1768421555441732000,10.170732177734376,-0.0014082795241847634,0.005106877535581589,-0.009967146441340446
1768421555451733200,10.180733154296876,-0.0006103964988142252,0.0019497001776471734,-0.010530139319598675
1768421555461733400,10.1907333984375,-0.00301656243391335,0.000024234765078290366,-0.007710383739322424
1768421555471733200,10.200733154296875,-0.002397377509623766,0.0012365056900307536,-0.009103749878704548
1768421555481733400,10.2107333984375,-0.002511094557121396,0.0030123014003038406,-0.006960171274840832
1768421555491733200,10.220733154296875,0.0007161240209825337,0.0070555126294493675,-0.00433029979467392
1768421555501733400,10.2307333984375,-0.0005499427788890898,0.010629475116729736,-0.0007560714147984982
1768421555511733200,10.240733154296874,-0.0014229270163923502,0.006557235028594732,-0.010722152888774872
1768421555521733400,10.2507333984375,-0.002348109148442745,0.001680454588495195,-0.015987489372491837
1768421555531733200,10.260733154296876,-0.005224322900176048,0.0007427555974572897,-0.010584200732409954
1768421555541734100,10.270734130859376,-0.0011656655697152019,0.005636313930153847,-0.006959639023989439
1768421555551734300,10.280734375,-0.0022477079182863235,0.008812133222818375,-0.0023845944087952375
1768421555561734100,10.290734130859375,-0.0022181468084454536,0.00842863880097866,-0.005714877508580685
1768421555571734300,10.300734375,-0.0029577065724879503,0.00809228140860796,-0.006304501090198755
1768421555581734100,10.310734130859375,-0.0025979136116802692,0.005812615156173706,-0.006932208314538002
1768421555591734300,10.320734375,-0.004127100575715303,0.001969940261915326,-0.007699731271713972
1768421555601734100,10.330734130859375,-0.004832305945456028,0.00003382214708835818,-0.007493069861084223
1768421555611734300,10.340734375,-0.0032834112644195557,-0.0017755294684320688,-0.010760768316686153
1768421555621735400,10.3507353515625,-0.004225105047225952,-0.007312507834285498,-0.012599681504070759
1768421555631735300,10.3607353515625,-0.0036242958158254623,-0.010540525428950787,-0.011215636506676674
1768421555641735400,10.3707353515625,-0.00412363838404417,-0.012914733029901981,-0.012120045721530914
1768421555651735300,10.3807353515625,-0.003713245503604412,-0.014150706119835377,-0.013160010799765587
1768421555661735400,10.3907353515625,-0.003948402591049671,-0.014615694060921669,-0.013902765698730946
1768421555671735300,10.4007353515625,-0.0038400120101869106,-0.016025571152567863,-0.015218367800116539
1768421555681735200,10.410735107421875,-0.003766775131225586,-0.01882961392402649,-0.01643303595483303
1768421555691735300,10.4207353515625,-0.004047205671668053,-0.0196091216057539,-0.015414375811815262
1768421555701735200,10.430735107421874,-0.002796585438773036,-0.024337830021977425,-0.013398629613220692
1768421555711736300,10.440736328125,-0.002365952357649803,-0.02630430832505226,-0.011712316423654556
1768421555721736200,10.450736083984374,-0.003480751533061266,-0.028509672731161118,-0.010726946406066418
1768421555731736000,10.460736083984376,-0.00321843009442091,-0.027837224304676056,-0.012548016384243965
1768421555741736200,10.470736083984375,-0.004005660768598318,-0.025952238589525223,-0.01164813432842493
1768421555751736000,10.480736083984375,-0.0008375641773454845,-0.02431519329547882,-0.009449427947402
1768421555761736200,10.490736083984375,-0.00011904330312972888,-0.02388349547982216,-0.006935670506209135
1768421555771736300,10.500736328125,-0.0005483448621816933,-0.02172553539276123,-0.007362042553722858
1768421555781736400,10.510736328125,-0.0025031049735844135,-0.02154231071472168,-0.007788414601236582
1768421555791737300,10.5207373046875,-0.0023582291323691607,-0.01678883284330368,-0.007181746419519186
1768421555801737200,10.5307373046875,-0.0013454289874061942,-0.015659919008612633,-0.006942328065633774
1768421555811737300,10.5407373046875,0.0001597896625753492,-0.010517888702452183,-0.005302353762090206
1768421555821737200,10.5507373046875,-0.0011544802691787481,-0.00857378076761961,-0.00782489962875843
1768421555831737300,10.5607373046875,-0.001668736687861383,-0.00751970149576664,-0.009257947094738483
1768421555841737200,10.5707373046875,-0.0012721919920295477,-0.00618039770051837,-0.010883806273341179
1768421555851737300,10.5807373046875,-0.0023454460315406322,-0.006339388433843851,-0.01065104641020298
1768421555861737200,10.5907373046875,-0.0021558289881795645,-0.007226487621665001,-0.010181797668337822
1768421555871738000,10.600738037109375,-0.0005781722720712423,-0.004579305648803711,-0.00878150761127472
1768421555881738200,10.61073828125,-0.002144643571227789,-0.003766775131225586,-0.008258196525275707
1768421555891738000,10.620738037109374,-0.002840793924406171,-0.0019257317762821913,-0.007651794236153364
1768421555901738200,10.63073828125,-0.0023220102302730083,-0.0008514125947840512,-0.007577492389827967
1768421555911738000,10.640738037109376,-0.002395513467490673,-0.0012900352012366056,-0.00815060455352068
1768421555921738200,10.65073828125,-0.002273540711030364,-0.0008934905636124313,-0.009756490588188171
1768421555931738400,10.66073828125,-0.003885019337758422,0.000035686356568476185,-0.00860201008617878
1768421555941738200,10.67073828125,-0.003308444982394576,0.001597630325704813,-0.007179882377386093
1768421555951738400,10.68073828125,-0.0029558425303548574,0.002043709857389331,-0.006366286426782608
1768421555961739300,10.6907392578125,-0.0033190976828336716,0.0018847191240638494,-0.005815012380480766
1768421555971739400,10.700739501953125,-0.0033369408920407295,0.003941211849451065,-0.0057012951001524925
1768421555981739300,10.7107392578125,-0.004314321093261242,0.004743888974189758,-0.005861883983016014
1768421555991739400,10.720739501953124,-0.004283694550395012,0.0056980992667376995,-0.004467719234526157
1768421556001739300,10.7307392578125,-0.0038778288289904594,0.005137504078447819,-0.0035603800788521767
1768421556011739100,10.7407392578125,-0.0041369544342160225,0.005565473809838295,-0.0026493126060813665
1768421556021739300,10.7507392578125,-0.0021587584633380175,0.008439024910330772,-0.0033007217571139336
1768421556031739100,10.7607392578125,-0.002304965863004327,0.007964183576405048,-0.004571049474179745
1768421556041740300,10.770740234375,-0.002838397165760398,0.0073111760430037975,-0.006317817140370607
1768421556051740200,10.780740234375,-0.0029467877466231585,0.004992095287889242,-0.005711948033422232
1768421556061740000,10.790739990234375,-0.0004511394945438951,0.005078648217022419,-0.004484763368964195
1768421556071740200,10.800740234375,-0.000595216522924602,0.0029087045695632696,-0.0028216191567480564
1768421556081740300,10.810740234375,-0.0011174624087288976,-0.0007368966471403837,-0.002266349969431758
1768421556091740400,10.820740478515624,-0.0011262508342042565,-0.0007741809240542352,-0.0033633061684668064
1768421556101740300,10.830740234375,0.0005382248782552779,-0.0014197311829775572,-0.004519117996096611
1768421556111740400,10.840740478515626,0.0005097290268167853,-0.0014303837670013309,-0.0057164751924574375
1768421556121741300,10.8507412109375,0.0005025385180488229,-0.0020666129421442747,-0.006491987966001034
1768421556131741200,10.8607412109375,-0.0006434197421185672,-0.003751062322407961,-0.00577959232032299
1768421556141741300,10.8707412109375,-0.00048602689639665186,-0.004849083721637726,-0.0051931641064584255
1768421556151741200,10.8807412109375,0.0003001382574439049,-0.003058374160900712,-0.005317800212651491
1768421556161741300,10.8907412109375,0.00003488740912871435,-0.0012274509062990546,-0.00523577444255352
1768421556171741200,10.9007412109375,-0.00072597770486027,-0.0007550061563961208,-0.011401791125535965
1768421556181741300,10.9107412109375,-0.003528155852109194,-0.005359877832233906,-0.0170865748077631
1768421556191741200,10.9207412109375,-0.0038005972746759653,-0.00875913631170988,-0.01679682359099388
1768421556201741300,10.9307412109375,-0.004481567535549402,-0.010702445171773434,-0.009778860956430435
1768421556211742200,10.9407421875,-0.003343865042552352,-0.008044078014791012,-0.009429188445210457
1768421556221742000,10.9507421875,-0.003768639173358679,-0.0057471017353236675,-0.011413509026169777
1768421556231742500,10.960742431640625,-0.003983023576438427,0.000222373942960985,-0.00953997578471899
1768421556241742300,10.970742431640625,-0.0037084517534822226,0.00464694993570447,-0.00762915750965476
1768421556251742500,10.980742431640625,-0.001975532853975892,0.003466104157269001,-0.010644388385117054
1768421556261742300,10.990742431640625,-0.005912750028073788,-0.0030008498579263687,-0.01805063895881176
1768421556271742500,11.000742431640624,-0.006170810665935278,-0.0049127331003546715,-0.01486310176551342
1768421556281742300,11.010742431640624,-0.0052267201244831085,-0.0018953717080876231,-0.010192450135946274
1768421556291743200,11.0207431640625,-0.003460511565208435,0.0043894220143556595,-0.008963667787611485
1768421556301743400,11.030743408203126,-0.004298874642699957,0.00415319949388504,-0.009362342767417431
1768421556311743200,11.0407431640625,-0.004891161806881428,0.0020578245166689157,-0.010815097019076347
1768421556321743400,11.050743408203125,-0.005645368713885546,0.00003462109452812001,-0.012073973193764687
1768421556331743200,11.0607431640625,-0.0044014062732458115,-0.002095108851790428,-0.010189786553382874
1768421556341743000,11.0707431640625,-0.0032147017773240805,-0.0021204089280217886,-0.010339456610381603
1768421556351743200,11.0807431640625,-0.002415753435343504,-0.0015313175972551107,-0.011845207773149014
1768421556361743000,11.0907431640625,-0.003428020980209112,0.00013662016135640442,-0.010143447667360306
1768421556371744300,11.100744140625,-0.0016932378057390451,-0.0014804512029513717,-0.009038768708705902
1768421556381744000,11.110744140625,-0.0021518340799957514,-0.000019707391402334906,-0.010708037763834
1768421556391744300,11.120744140625,-0.0013366405619308352,-0.0007267766632139683,-0.010275274515151978
1768421556401744400,11.130744384765626,-0.0022711437195539474,0.0002748382103163749,-0.009823336265981197
1768421556411744300,11.140744140625,-0.0032048479188233614,0.001710548298433423,-0.01067741122096777
1768421556421744400,11.150744384765625,-0.0031198931392282248,0.0013757890556007624,-0.008353270590305328
1768421556431744300,11.160744140625,-0.0017004283145070076,-0.00005379585491027683,-0.009492837823927402
1768421556441744000,11.170743896484375,-0.0010104032699018717,0.00009028115891851485,-0.008838232606649399
1768421556451744800,11.180744873046875,-0.0021816615480929613,-0.001758218975737691,-0.00785739067941904
1768421556461745000,11.190744873046874,-0.0036943370942026377,-0.004999286029487848,-0.008770322427153587
1768421556471744800,11.200744873046874,-0.0020516992080956697,-0.005315136630088091,-0.009736516512930393
1768421556481745000,11.210744873046876,-0.003093527862802148,-0.00509995361790061,-0.01139966119080782
1768421556491745000,11.2207451171875,-0.0030045784078538418,-0.006684267893433571,-0.00911733228713274
1768421556501745000,11.230744873046875,-0.0007613977650180459,-0.004600876942276955,-0.00902811624109745
1768421556511745000,11.2407451171875,-0.003316700691357255,-0.004978513345122337,-0.008066714741289616
1768421556521745000,11.250744873046875,-0.002129729837179184,-0.005050152540206909,-0.00954077485948801
1768421556531745800,11.260745849609375,-0.002409894485026598,-0.004850149154663086,-0.00875114742666483
1768421556541746000,11.270745849609375,-0.0030189594253897667,-0.0043625240214169025,-0.008358331397175789
1768421556551745800,11.280745849609374,-0.002540389308705926,-0.001862348522990942,-0.007480819243937731
1768421556561746000,11.290745849609374,-0.002826679265126586,0.0004982774262316525,-0.009728527627885342
1768421556571745800,11.300745849609376,-0.0035744947381317616,0.0003712446487043053,-0.009321862831711769
1768421556581746000,11.310745849609376,-0.0023957795929163694,0.0003115898580290377,-0.010760235600173473
1768421556591745800,11.320745849609375,-0.0035902075469493866,-0.0009957558941096067,-0.012518188916146755
1768421556601746000,11.330745849609375,-0.0029433255549520254,-0.002216815249994397,-0.0129336416721344
1768421556611745800,11.340745849609375,-0.004543086513876915,-0.003403253620490432,-0.011831891722977161
1768421556621746700,11.35074658203125,-0.001157143502496183,-0.003251719754189253,-0.010973555035889149
1768421556631747000,11.3607470703125,-0.0023286680225282907,-0.0027680895291268826,-0.011987420730292797
1768421556641747000,11.370746826171874,-0.0030711572617292404,-0.0033481260761618614,-0.010704576037824154
1768421556651747000,11.3807470703125,-0.0029521139804273844,-0.0020101540721952915,-0.012612464837729931
1768421556661747000,11.390746826171876,-0.0025158883072435856,-0.0010719223646447062,-0.011262508109211922
1768421556671747000,11.4007470703125,-0.004971056245267391,-0.003454119898378849,-0.011864915490150452
1768421556681747000,11.410746826171875,-0.0030192257836461067,-0.0036136433482170105,-0.014504107646644115
1768421556691747000,11.4207470703125,-0.003168362658470869,-0.002710032742470503,-0.01420396938920021
1768421556701748000,11.430748046875,-0.0032408006954938173,-0.001710548298433423,-0.013424462638795376
1768421556711747800,11.440747802734375,-0.002061819192022085,-0.002288188086822629,-0.012398612685501575
1768421556721748000,11.450748046875,-0.0031526500824838877,-0.0012708604335784912,-0.012592224404215813
1768421556731747800,11.460747802734375,-0.0038900794461369514,-0.000287088769255206,-0.013020993210375309
1768421556741748000,11.470748046875,-0.003826962551102042,-0.002127599436789751,-0.012250807136297226
1768421556751747800,11.480747802734374,-0.003355050226673484,-0.0006988134700804949,-0.011975969187915325
1768421556761747700,11.490747802734376,-0.003299922915175557,0.0005581985460594296,-0.01124919205904007
1768421556771747800,11.500747802734375,-0.0035209653433412313,0.0034043188206851482,-0.010688597336411476
1768421556781748700,11.510748779296875,-0.0019350528018549085,0.0044352286495268345,-0.009020925499498844
1768421556791749000,11.5207490234375,-0.0034171019215136766,0.004070109222084284,-0.01071229949593544
1768421556801749000,11.5307490234375,-0.00336090917699039,0.0049673281610012054,-0.01110484916716814
1768421556811748900,11.540748779296875,-0.0018634138396009803,0.004989165812730789,-0.011156247928738594
1768421556821749000,11.5507490234375,-0.0013728595804423094,0.005311142187565565,-0.009724798612296581
1768421556831748900,11.560748779296874,-0.0033388049341738224,0.003919107839465141,-0.008950085379183292
1768421556841749000,11.5707490234375,-0.001511876587755978,0.005316734779626131,-0.008975652046501637
1768421556851748900,11.580748779296876,-0.0012980246683582664,0.0030533140525221825,-0.009828129783272743
1768421556861749800,11.590749755859376,-0.001995772821828723,0.001793905277736485,-0.01002307329326868
1768421556871750000,11.60075,-0.004291417542845011,0.0003885551996063441,-0.011600996367633343
1768421556881749800,11.610749755859375,-0.001990979304537177,0.00043223105603829026,-0.014275075867772102
1768421556891750000,11.62075,-0.0013528858544304967,0.0019387812353670597,-0.011544803157448769
1768421556901749800,11.630749755859375,-0.0013012205017730594,0.004532167688012123,-0.008166583254933357
1768421556911750000,11.64075,-0.0017952368361875415,0.005564408842474222,-0.0057015614584088326
1768421556921749800,11.650749755859374,-0.0006330333999358118,0.005885319784283638,-0.006854710169136524
1768421556931750000,11.66075,-0.002671416848897934,0.005675995256751776,-0.01206784788519144
1768421556941751000,11.6707509765625,-0.0034615767654031515,0.004135889001190662,-0.01555472519248724
1768421556951751000,11.6807509765625,-0.004048537462949753,0.0008050735923461616,-0.016218917444348335
1768421556961751000,11.6907509765625,-0.005790511146187782,-0.001880191732198,-0.01601518504321575
1768421556971751000,11.7007509765625,-0.005395830608904362,-0.002555303042754531,-0.015931561589241028
1768421556981751000,11.7107509765625,-0.005824599415063858,0.0015611450653523207,-0.014644988812506199
1768421556991751000,11.7207509765625,-0.0037702370900660753,0.005588377360254526,-0.011502725072205067
1768421557001751000,11.7307509765625,-0.002665824256837368,0.009875534102320671,-0.007767109200358391
1768421557011751000,11.7407509765625,-0.0041060615330934525,0.008623315952718258,-0.012929380871355534
1768421557021751800,11.750751708984374,-0.0057558901607990265,0.0012218583142384887,-0.020251741632819176
1768421557031752000,11.760751953125,-0.006500243674963713,-0.001383778522722423,-0.017911355942487717
1768421557041751800,11.770751708984376,-0.0059931776486337185,0.0007893609581515193,-0.016751550137996674
1768421557051752000,11.780751953125,-0.005561745725572109,0.0013696637470275164,-0.014615427702665329
1768421557061751800,11.790751708984375,-0.005101284943521023,0.0010295780375599861,-0.014974688179790974
1768421557071752000,11.800751953125,-0.004494084510952234,-0.00037950044497847557,-0.01695927605032921
1768421557081751800,11.810751708984375,-0.004026167094707489,-0.0027419906109571457,-0.018515361472964287
1768421557091752000,11.820751953125,-0.004717523697763681,-0.0018133464036509395,-0.01595206931233406
1768421557101753000,11.830753173828125,-0.003322825999930501,-0.0021640846971422434,-0.013498764485120773
1768421557111753000,11.8407529296875,-0.00458756135776639,-0.0021065603941679,-0.013875601813197136
1768421557121753000,11.850753173828124,-0.003288205014541745,-0.001383512164466083,-0.013439642265439034
1768421557131753000,11.8607529296875,-0.0021821942646056414,-0.0023811322171241045,-0.013904630206525326
1768421557141752800,11.8707529296875,-0.003465837799012661,-0.000431432097684592,-0.011287275701761246
1768421557151753000,11.8807529296875,-0.004447478801012039,0.0014831144362688065,-0.01215653121471405
1768421557161752800,11.8907529296875,-0.003748399205505848,0.005313538946211338,-0.011230549775063992
1768421557171753000,11.9007529296875,-0.002255431143566966,0.009726929478347301,-0.010270747356116772
1768421557181753900,11.91075390625,-0.003590473672375083,0.012001534923911095,-0.009980995208024979
1768421557191754000,11.92075390625,-0.003067695302888751,0.013831659220159054,-0.01104226429015398
1768421557201753900,11.93075390625,-0.002002697205170989,0.014187724329531193,-0.0059846555814146996
1768421557211753700,11.940753662109374,-0.0028479844331741333,0.016657274216413498,-0.0036967338528484106
1768421557221753900,11.95075390625,-0.004436293616890907,0.021690381690859795,-0.00387303507886827
1768421557231753700,11.960753662109376,-0.005648298189043999,0.033956900238990784,-0.009884322062134743
1768421557241753900,11.97075390625,-0.0062515041790902615,0.05054067075252533,-0.01176557969301939
1768421557251753700,11.980753662109375,-0.005363073665648699,0.0633733794093132,-0.014386395923793316
1768421557261755000,11.9907548828125,-0.0049734534695744514,0.07004832476377487,-0.01744663529098034
1768421557271755000,12.000755126953125,-0.006129265297204256,0.0682552233338356,-0.015619173645973206
1768421557281755000,12.0107548828125,-0.0054450989700853825,0.06156961992383003,-0.01210113801062107
1768421557291755000,12.020755126953125,-0.0037734329234808683,0.05722227692604065,-0.005915945861488581
1768421557301755000,12.0307548828125,-0.0046426886692643166,0.054544735699892044,-0.000937166390940547
1768421557311755000,12.040755126953124,-0.0043718451634049416,0.05485792085528374,0.0014602112350985408
1768421557321755000,12.0507548828125,-0.004890096373856068,0.05716501921415329,0.0008210525847971439
1768421557331755000,12.060755126953126,-0.0035388083197176456,0.06411533802747726,-0.0009800433181226254
1768421557341756000,12.070755859375,-0.005760683678090572,0.07422203570604324,-0.003251187037676573
1768421557351755800,12.080755859375,-0.00586774293333292,0.08581983298063278,-0.005938583053648472
1768421557361756000,12.090755859375,-0.006871222052723169,0.0964309349656105,-0.004857872147113085
1768421557371755800,12.100755859375,-0.007013434544205666,0.10200173407793045,-0.002674079965800047
1768421557381756000,12.110755859375,-0.006318349856883287,0.10521217435598373,0.0006407565670087934
1768421557391755800,12.120755859375,-0.006730873137712479,0.10838239639997482,0.0019409117521718144
1768421557401756000,12.130755859375,-0.006086388137191534,0.11055447161197662,0.0018756643403321505
1768421557411755800,12.140755859375,-0.006883738562464714,0.11450207978487015,0.002159290947020054
1768421557421756000,12.150755859375,-0.006992129608988762,0.1149100735783577,0.0015164038632065058
1768421557431757000,12.160757080078126,-0.005814479663968086,0.11593379080295563,0.0006045375484973192
1768421557441756000,12.170755859375,-0.006866694428026676,0.11723528057336807,0.0018732674652710557
1768421557451756000,12.180756103515625,-0.006469883490353823,0.11951441317796707,0.0020594224333763123
1768421557461756000,12.190755859375,-0.00675217853859067,0.11865847557783127,0.0006053365068510175
1768421557471756000,12.200756103515625,-0.005622465629130602,0.11554870009422302,0.0009944243356585503
