time,seconds_elapsed,z,y,x
1767708902719721000,0.043720947265625,-0.0098419189453125,0.0099334716796875,0.996185302734375
1767708902729720800,0.053720947265625,-0.0080413818359375,0.0092010498046875,0.9982147216796875
1767708902739720700,0.063720703125,-0.0090179443359375,0.008270263671875,0.9996795654296875
1767708902749721900,0.073721923828125,-0.0069732666015625,0.0048675537109375,0.9998321533203125
1767708902759721700,0.0837216796875,-0.00433349609375,0.0068359375,1.004302978515625
1767708902769721900,0.093721923828125,-0.007720947265625,0.005950927734375,1.0072784423828125
1767708902779721700,0.1037216796875,-0.0139007568359375,0.006378173828125,1.0047607421875
1767708902789722600,0.11372265625,-0.013427734375,0.009735107421875,1.00299072265625
1767708902799722800,0.12372265625,-0.0093994140625,0.0112152099609375,0.9995574951171875
1767708902809722600,0.13372265625,-0.0064544677734375,0.0088653564453125,1.0016021728515625
1767708902819722800,0.14372265625,-0.0083770751953125,0.00909423828125,1.0015411376953125
1767708902829722600,0.15372265625,-0.0021820068359375,0.0085601806640625,1.001556396484375
1767708902839723800,0.163723876953125,-0.00115966796875,0.0094146728515625,1.000030517578125
1767708902849724000,0.173723876953125,-0.0074615478515625,0.007781982421875,0.9970245361328125
1767708902859723800,0.183723876953125,-0.0131378173828125,0.0084991455078125,0.9947509765625
1767708902869724000,0.193723876953125,-0.0074462890625,0.0082244873046875,0.9999237060546875
1767708902879724800,0.203724853515625,-0.0027923583984375,0.00567626953125,1.0006103515625
1767708902889724700,0.213724609375,-0.0058441162109375,0.007904052734375,1.002105712890625
1767708902899724800,0.223724853515625,-0.0060577392578125,0.0083160400390625,1.0019378662109375
1767708902909724700,0.233724609375,-0.007080078125,0.01092529296875,1.000701904296875
1767708902919724800,0.243724853515625,-0.008941650390625,0.0120391845703125,0.9997100830078125
1767708902929725700,0.2537255859375,-0.00897216796875,0.0099639892578125,0.999786376953125
1767708902939725600,0.2637255859375,-0.0082550048828125,0.0114288330078125,0.999969482421875
1767708902949725700,0.2737255859375,-0.01220703125,0.0106353759765625,0.99945068359375
1767708902959725600,0.2837255859375,-0.011138916015625,0.007781982421875,0.9959564208984375
1767708902969726000,0.293725830078125,-0.0101776123046875,0.0097808837890625,0.9953155517578125
1767708902979726800,0.303726806640625,-0.0076751708984375,0.0105438232421875,0.99072265625
1767708902989726700,0.313726806640625,-0.00152587890625,0.009429931640625,0.9904937744140625
1767708902999726800,0.323726806640625,0.0003509521484375,0.0067596435546875,0.9983673095703125
1767708903009726700,0.333726806640625,-0.0009002685546875,0.0055084228515625,1.00604248046875
1767708903019727600,0.3437275390625,-0.0054473876953125,0.00555419921875,1.0096435546875
1767708903029727700,0.353727783203125,-0.0093231201171875,0.006561279296875,1.01055908203125
1767708903039727600,0.3637275390625,-0.00628662109375,0.008758544921875,1.0093231201171875
1767708903049727700,0.373727783203125,0.00518798828125,0.0086669921875,1.00994873046875
1767708903059727600,0.3837275390625,0.0044403076171875,0.0093841552734375,1.01031494140625
1767708903069728500,0.393728515625,-0.009765625,0.0131988525390625,1.0066070556640625
1767708903079729000,0.40372900390625,-0.01251220703125,0.01519775390625,1.0034027099609375
1767708903089728800,0.413728759765625,-0.01123046875,0.01702880859375,0.99749755859375
1767708903099729000,0.42372900390625,-0.0075836181640625,0.0155181884765625,0.992706298828125
1767708903109729800,0.433729736328125,-0.0012359619140625,0.0142669677734375,0.9939422607421875
1767708903119729700,0.443729736328125,0.005615234375,0.01092529296875,0.9966888427734375
1767708903129729800,0.453729736328125,0.0072784423828125,0.00653076171875,0.9975128173828125
1767708903139729700,0.463729736328125,0.0049896240234375,0.00543212890625,1.0001678466796875
1767708903149729800,0.473729736328125,0.0052947998046875,0.0032806396484375,1.0028533935546875
1767708903159730700,0.483730712890625,0.004791259765625,0.008758544921875,1.0055694580078125
1767708903169730600,0.49373046875,-0.001220703125,0.016448974609375,1.0109405517578125
1767708903179730700,0.503730712890625,-0.003814697265625,0.01519775390625,1.011444091796875
1767708903189730600,0.51373046875,-0.007232666015625,0.0179901123046875,1.0096435546875
1767708903199731700,0.523731689453125,-0.00103759765625,-0.0030517578125,1.0046539306640625
1767708903209731800,0.53373193359375,0.009674072265625,-0.0011444091796875,0.9993133544921875
1767708903219731700,0.543731689453125,0.0139007568359375,0.009857177734375,0.995819091796875
1767708903229731800,0.55373193359375,0.0124969482421875,0.0094146728515625,0.99505615234375
1767708903239731700,0.563731689453125,0.0032958984375,0.0070953369140625,0.9971160888671875
1767708903249732600,0.573732666015625,-0.0052642822265625,0.0035247802734375,0.997650146484375
1767708903259732700,0.583732666015625,-0.0106048583984375,0.006622314453125,1.0025482177734375
1767708903269732600,0.593732666015625,0.0002899169921875,0.008453369140625,1.00494384765625
1767708903279732700,0.603732666015625,0.024139404296875,0.0058135986328125,1.0023193359375
1767708903289732600,0.613732666015625,0.038055419921875,0.0023193359375,0.999969482421875
1767708903299733800,0.623733642578125,0.0415191650390625,0.0007171630859375,0.99737548828125
1767708903309733600,0.633733642578125,0.02105712890625,0.0095672607421875,0.998809814453125
1767708903319733500,0.6437333984375,0.001373291015625,0.0111236572265625,0.99786376953125
1767708903329734000,0.65373388671875,-0.00146484375,0.0071258544921875,1.00408935546875
1767708903339734800,0.66373486328125,-0.0057373046875,0.0069732666015625,1.0007781982421875
1767708903349734700,0.673734619140625,-0.001373291015625,0.0050201416015625,1.001861572265625
1767708903359734800,0.68373486328125,0.008056640625,0.0055999755859375,1.005401611328125
1767708903369734700,0.693734619140625,0.0213165283203125,0.0072479248046875,1.0111541748046875
1767708903379734800,0.70373486328125,0.0268402099609375,0.005828857421875,1.0121917724609375
1767708903389736000,0.71373583984375,0.0259857177734375,0.0026397705078125,1.0046844482421875
1767708903399735800,0.72373583984375,0.03192138671875,0.00054931640625,1.002777099609375
1767708903409736000,0.73373583984375,0.0232391357421875,-0.0031585693359375,1.0001220703125
1767708903419735800,0.74373583984375,0.0171661376953125,-0.00238037109375,1.0007171630859375
1767708903429737000,0.753737060546875,0.0124359130859375,-0.0030517578125,0.999908447265625
1767708903439736800,0.76373681640625,0.0108489990234375,-0.0056304931640625,0.9953765869140625
1767708903449737000,0.773737060546875,0.0032806396484375,-0.0023040771484375,0.990814208984375
1767708903459736800,0.78373681640625,-0.0022430419921875,0.00640869140625,0.9873199462890625
1767708903469736700,0.79373681640625,-0.0035858154296875,0.0077362060546875,0.9855194091796875
1767708903479737900,0.80373779296875,-0.002960205078125,0.007080078125,0.9869842529296875
1767708903489737700,0.81373779296875,0.0070648193359375,0.00689697265625,0.9934844970703125
1767708903499737900,0.82373779296875,0.01171875,0.0059814453125,1.0034942626953125
1767708903509738000,0.833738037109375,0.0055084228515625,0.0081939697265625,1.0103302001953125
1767708903519739000,0.84373876953125,0.002685546875,0.0084075927734375,1.013702392578125
1767708903529739000,0.853739013671875,0.0081329345703125,0.0094757080078125,1.01470947265625
1767708903539739000,0.86373876953125,0.01226806640625,0.0095367431640625,1.0119781494140625
1767708903549739000,0.873739013671875,0.01007080078125,0.00830078125,1.004364013671875
1767708903559739000,0.88373876953125,0.0118560791015625,0.0080718994140625,1.00445556640625
1767708903569739800,0.89373974609375,0.010284423828125,0.0059051513671875,1.0058441162109375
1767708903579740000,0.903739990234375,0.0050048828125,0.003662109375,1.0059051513671875
1767708903589739800,0.91373974609375,-0.0027313232421875,0.005126953125,1.0041656494140625
1767708903599740000,0.923739990234375,-0.0001373291015625,0.004150390625,1.0034637451171875
1767708903609741000,0.933740966796875,0.0005035400390625,0.0039825439453125,0.99920654296875
1767708903619741000,0.943740966796875,-0.0026397705078125,0.00628662109375,0.9947967529296875
1767708903629741000,0.953740966796875,-0.004486083984375,0.00616455078125,0.9970550537109375
1767708903639741000,0.963740966796875,0.0001220703125,0.0019683837890625,0.9994049072265625
1767708903649741000,0.973740966796875,0.0005950927734375,-0.0004730224609375,1.000213623046875
1767708903659742000,0.983741943359375,-0.0029754638671875,-0.0001220703125,0.999237060546875
1767708903669741800,0.993741943359375,0.0001983642578125,0.00177001953125,1.0043792724609375
1767708903679742000,1.003741943359375,-0.0058441162109375,0.003875732421875,1.007110595703125
1767708903689741800,1.013741943359375,-0.006500244140625,0.00274658203125,1.003570556640625
1767708903699742700,1.02374267578125,-0.00494384765625,0.004852294921875,1.00372314453125
1767708903709742800,1.033742919921875,-0.001251220703125,0.0048828125,1.006927490234375
1767708903719742700,1.04374267578125,-0.002899169921875,0.00408935546875,1.0040283203125
1767708903729742800,1.053742919921875,-0.010498046875,0.0055999755859375,1.0020294189453125
1767708903739742700,1.06374267578125,-0.0135040283203125,0.0087127685546875,1.0013427734375
1767708903749743900,1.073743896484375,-0.0155181884765625,0.0086822509765625,0.9990692138671875
1767708903759744000,1.083743896484375,-0.0153961181640625,0.007110595703125,0.9977874755859375
1767708903769744000,1.093743896484375,-0.017486572265625,0.0074462890625,0.9979095458984375
1767708903779744000,1.103743896484375,-0.0203094482421875,0.0096282958984375,0.9991912841796875
1767708903789743900,1.113743896484375,-0.0216064453125,0.010223388671875,0.9957733154296875
1767708903799744800,1.123744873046875,-0.020721435546875,0.0088043212890625,0.99847412109375
1767708903809745000,1.133744873046875,-0.0203094482421875,0.0086517333984375,1.0058746337890625
1767708903819744800,1.143744873046875,-0.0219573974609375,0.0082855224609375,1.0085601806640625
1767708903829745000,1.153744873046875,-0.0179290771484375,0.0121002197265625,1.001983642578125
1767708903839745800,1.163745849609375,0.0004730224609375,0.0122222900390625,0.9989013671875
1767708903849745700,1.17374560546875,0.008453369140625,0.0145416259765625,0.996978759765625
1767708903859745800,1.183745849609375,0.0125579833984375,0.0149688720703125,0.9972381591796875
1767708903869746000,1.193745849609375,-0.0006561279296875,0.009124755859375,0.998687744140625
1767708903879746000,1.20374609375,-0.024810791015625,0.0081329345703125,0.9993438720703125
1767708903889747000,1.213746826171875,-0.0028228759765625,0.0229034423828125,1.0068511962890625
1767708903899746800,1.223746826171875,0.0330963134765625,0.0253753662109375,1.0125885009765625
1767708903909747000,1.233746826171875,0.0279693603515625,0.0255126953125,1.0001373291015625
1767708903919746800,1.243746826171875,0.0299530029296875,0.0272216796875,0.9860687255859375
1767708903929747700,1.253747802734375,0.0347137451171875,0.0256500244140625,0.979461669921875
1767708903939747800,1.263747802734375,0.0259246826171875,0.019927978515625,0.9861602783203125
1767708903949747700,1.273747802734375,0.007598876953125,0.0112457275390625,1.009613037109375
1767708903959747800,1.283747802734375,-0.0020599365234375,0.006866455078125,1.024993896484375
1767708903969747700,1.293747802734375,-0.00469970703125,0.0052642822265625,1.02545166015625
1767708903979748900,1.303748779296875,-0.0088958740234375,0.0053558349609375,1.0214080810546875
1767708903989749000,1.3137490234375,-0.0058135986328125,0.0058135986328125,1.0080413818359375
1767708903999748900,1.323748779296875,0.00653076171875,0.013031005859375,0.99603271484375
1767708904009749000,1.3337490234375,0.0134429931640625,0.01507568359375,0.99041748046875
1767708904019750000,1.34375,0.0159759521484375,0.014801025390625,0.9926910400390625
1767708904029749800,1.353749755859375,0.00628662109375,0.0201416015625,0.993927001953125
1767708904039750000,1.36375,0.004486083984375,0.0223388671875,0.9961395263671875
1767708904049749800,1.373749755859375,0.0138397216796875,0.022064208984375,0.9981231689453125
1767708904059750000,1.38375,0.014862060546875,0.0291900634765625,1.025543212890625
1767708904069750800,1.393750732421875,-0.0562896728515625,0.018463134765625,1.0142364501953125
1767708904079750700,1.403750732421875,-0.01995849609375,0.025115966796875,0.9871978759765625
1767708904089750800,1.413750732421875,-0.01031494140625,0.0216217041015625,0.9968109130859375
1767708904099750700,1.423750732421875,-0.0257568359375,0.0234832763671875,0.997650146484375
1767708904109752000,1.433751953125,-0.037689208984375,0.0262908935546875,1.0020751953125
1767708904119752000,1.443751953125,-0.0102996826171875,0.0262451171875,1.001922607421875
1767708904129751800,1.453751708984375,-0.0108184814453125,0.0206298828125,0.9950714111328125
1767708904139752000,1.463751953125,-0.0252227783203125,0.0165863037109375,0.9884033203125
1767708904149751800,1.473751708984375,-0.02880859375,0.015350341796875,0.9793243408203125
1767708904159753000,1.4837529296875,-0.018890380859375,0.0120697021484375,0.976165771484375
1767708904169752800,1.4937529296875,-0.007720947265625,0.009307861328125,0.9744720458984375
1767708904179752700,1.503752685546875,-0.0089874267578125,0.0089874267578125,0.994110107421875
1767708904189752800,1.5137529296875,0.00042724609375,0.0109100341796875,1.0118255615234375
1767708904199753700,1.523753662109375,-0.0091552734375,0.01708984375,1.0207366943359375
1767708904209753900,1.53375390625,-0.0160369873046875,0.0156707763671875,1.026947021484375
1767708904219753700,1.543753662109375,-0.0234375,0.0189361572265625,1.017333984375
1767708904229753900,1.55375390625,-0.0174102783203125,0.0232696533203125,1.0206298828125
1767708904239754000,1.56375390625,0.01373291015625,0.033843994140625,1.0191650390625
1767708904249755000,1.5737548828125,-0.0170135498046875,0.0208892822265625,0.9923553466796875
1767708904259755000,1.583755126953125,-0.057037353515625,0.0315399169921875,1.0069580078125
1767708904269755000,1.5937548828125,-0.0349273681640625,0.0328826904296875,1.025360107421875
1767708904279754800,1.603754638671875,-0.0249176025390625,0.0325775146484375,1.017608642578125
1767708904289756000,1.613755859375,-0.0220947265625,0.0338897705078125,1.0128936767578125
1767708904299755800,1.623755859375,-0.0249786376953125,0.02471923828125,1.0074310302734375
1767708904309756000,1.633755859375,-0.0316162109375,0.024871826171875,1.0040740966796875
1767708904319755800,1.643755859375,-0.0311737060546875,0.0230712890625,1.0000457763671875
1767708904329756000,1.653755859375,-0.03118896484375,0.0208282470703125,0.994903564453125
1767708904339757000,1.663757080078125,-0.01861572265625,0.0196380615234375,1.001007080078125
1767708904349757400,1.67375732421875,-0.0117034912109375,0.015869140625,1.0106048583984375
1767708904359757300,1.68375732421875,-0.021575927734375,0.016754150390625,1.0033111572265625
1767708904369757400,1.69375732421875,-0.03460693359375,0.0172271728515625,0.9999542236328125
1767708904379758300,1.70375830078125,-0.0243377685546875,0.02008056640625,1.0043182373046875
1767708904389758500,1.713758544921875,-0.0200042724609375,0.0217742919921875,1.0058441162109375
1767708904399758300,1.72375830078125,-0.0318450927734375,0.02056884765625,0.9986572265625
1767708904409758200,1.73375830078125,-0.03802490234375,0.025146484375,0.997467041015625
1767708904419759400,1.74375927734375,-0.032562255859375,0.0236358642578125,0.995574951171875
1767708904429759200,1.75375927734375,-0.0384521484375,0.02117919921875,0.983917236328125
1767708904439759400,1.76375927734375,-0.040130615234375,0.0189056396484375,0.980499267578125
1767708904449759200,1.77375927734375,-0.0438079833984375,0.0211181640625,0.9782867431640625
1767708904459759400,1.78375927734375,-0.051116943359375,0.020599365234375,0.9713897705078125
1767708904469760500,1.793760498046875,-0.055999755859375,0.035186767578125,0.9481658935546875
1767708904479760400,1.803760498046875,-0.0565032958984375,0.0053558349609375,0.972869873046875
1767708904489760500,1.813760498046875,-0.0303802490234375,-0.0105133056640625,1.0208282470703125
1767708904499760400,1.823760498046875,-0.0307769775390625,0.0062713623046875,1.0320892333984375
1767708904509761300,1.83376123046875,-0.0240631103515625,0.0135498046875,1.037811279296875
1767708904519761400,1.843761474609375,-0.011871337890625,0.018402099609375,1.024169921875
1767708904529761300,1.85376123046875,-0.016815185546875,0.021881103515625,1.0150604248046875
1767708904539761400,1.863761474609375,-0.02789306640625,0.0181732177734375,1.0084228515625
1767708904549761300,1.87376123046875,-0.043731689453125,0.0169830322265625,0.9989776611328125
1767708904559762200,1.88376220703125,-0.0400848388671875,0.0198516845703125,0.9970550537109375
1767708904569762300,1.89376220703125,-0.03277587890625,0.0157318115234375,0.9928436279296875
1767708904579762200,1.90376220703125,-0.0281829833984375,0.010589599609375,0.993011474609375
1767708904589762300,1.91376220703125,-0.0375518798828125,0.0120697021484375,0.992767333984375
1767708904599763500,1.923763427734375,-0.05023193359375,0.0147247314453125,0.989654541015625
1767708904609763300,1.933763427734375,-0.051361083984375,0.0168914794921875,0.9904327392578125
1767708904619763500,1.943763427734375,-0.044158935546875,0.019622802734375,0.993988037109375
1767708904629763300,1.953763427734375,-0.0400543212890625,0.0200653076171875,0.996337890625
1767708904639763500,1.963763427734375,-0.0429534912109375,0.0173797607421875,0.995208740234375
1767708904649764400,1.973764404296875,-0.04693603515625,0.0182647705078125,0.9946136474609375
1767708904659764200,1.98376416015625,-0.0532684326171875,0.01898193359375,0.997039794921875
1767708904669764400,1.993764404296875,-0.0494232177734375,0.0169830322265625,0.9964599609375
1767708904679764200,2.00376416015625,-0.049774169921875,0.016510009765625,1.00433349609375
1767708904689765000,2.01376513671875,-0.04205322265625,0.01513671875,1.009124755859375
1767708904699765200,2.02376513671875,-0.0326080322265625,0.0150146484375,1.0141448974609375
1767708904709765000,2.03376513671875,-0.0365142822265625,0.0152740478515625,1.00628662109375
1767708904719765500,2.043765625,-0.0467987060546875,0.0152740478515625,1.000640869140625
1767708904729765400,2.053765380859375,-0.0510406494140625,0.015228271484375,1.002105712890625
1767708904739766300,2.063766357421875,-0.0555572509765625,0.01470947265625,1.004150390625
1767708904749766400,2.073766357421875,-0.0537109375,0.011077880859375,1.001708984375
1767708904759766300,2.083766357421875,-0.05413818359375,0.01080322265625,0.9981842041015625
1767708904769766400,2.093766357421875,-0.0553741455078125,0.0130157470703125,0.9922027587890625
1767708904779767300,2.103767333984375,-0.0585479736328125,0.016204833984375,0.9894866943359375
1767708904789767200,2.11376708984375,-0.0567169189453125,0.0172882080078125,0.990264892578125
1767708904799767300,2.123767333984375,-0.049652099609375,0.015869140625,0.996429443359375
1767708904809767200,2.13376708984375,-0.0507965087890625,0.014007568359375,1.00323486328125
1767708904819767300,2.143767333984375,-0.0548248291015625,0.0141143798828125,1.0020751953125
1767708904829768400,2.1537685546875,-0.0584564208984375,0.016387939453125,1.000213623046875
1767708904839768300,2.163768310546875,-0.0562591552734375,0.01739501953125,1.004730224609375
1767708904849768400,2.1737685546875,-0.05157470703125,0.0167083740234375,1.0041656494140625
1767708904859768300,2.183768310546875,-0.0554046630859375,0.0166015625,1.0003509521484375
1767708904869769200,2.193769287109375,-0.055938720703125,0.016082763671875,0.9986572265625
1767708904879769300,2.203769287109375,-0.04766845703125,0.01641845703125,0.999786376953125
1767708904889769200,2.213769287109375,-0.045074462890625,0.0176544189453125,0.9996337890625
1767708904899769300,2.223769287109375,-0.0500640869140625,0.0168609619140625,0.9980621337890625
1767708904909770200,2.233770263671875,-0.053375244140625,0.015869140625,0.9993133544921875
1767708904919770400,2.243770263671875,-0.0427093505859375,0.014495849609375,1.0037841796875
1767708904929770200,2.253770263671875,-0.0510711669921875,0.0119781494140625,1.0042572021484375
1767708904939770000,2.26377001953125,-0.0561676025390625,0.010528564453125,1.000274658203125
1767708904949770200,2.273770263671875,-0.0543212890625,0.015899658203125,1.001251220703125
1767708904959771400,2.283771484375,-0.050994873046875,0.0159912109375,1.001190185546875
1767708904969771300,2.293771240234375,-0.0474700927734375,0.0151214599609375,0.9990386962890625
1767708904979771400,2.303771484375,-0.0499725341796875,0.0141143798828125,0.9963531494140625
1767708904989771300,2.313771240234375,-0.050201416015625,0.01507568359375,0.996917724609375
1767708904999772400,2.3237724609375,-0.04986572265625,0.0163116455078125,0.9957275390625
1767708905009772300,2.333772216796875,-0.04840087890625,0.0157928466796875,0.9980621337890625
1767708905019772400,2.3437724609375,-0.049285888671875,0.015228271484375,1.000244140625
1767708905029772300,2.353772216796875,-0.05230712890625,0.0137176513671875,1.0006866455078125
1767708905039772200,2.363772216796875,-0.054473876953125,0.0143280029296875,0.9985504150390625
1767708905049773300,2.373773193359375,-0.0536956787109375,0.0167694091796875,0.999176025390625
1767708905059773200,2.383773193359375,-0.0526885986328125,0.01800537109375,0.9991912841796875
1767708905069773300,2.393773193359375,-0.05535888671875,0.0195159912109375,0.998809814453125
1767708905079773400,2.4037734375,-0.0541229248046875,0.021484375,0.99847412109375
1767708905089774300,2.4137744140625,-0.0536346435546875,0.021331787109375,0.99932861328125
1767708905099774500,2.4237744140625,-0.051025390625,0.0187835693359375,1.0030059814453125
1767708905109774300,2.4337744140625,-0.0548858642578125,0.01788330078125,1.0040740966796875
1767708905119774500,2.4437744140625,-0.0529937744140625,0.01788330078125,1.0045166015625
1767708905129774300,2.4537744140625,-0.04913330078125,0.02081298828125,1.0008697509765625
1767708905139775200,2.463775146484375,-0.0535430908203125,0.0241546630859375,0.9978790283203125
1767708905149775400,2.473775390625,-0.0557403564453125,0.0236663818359375,0.9941864013671875
1767708905159775200,2.483775146484375,-0.058013916015625,0.0205841064453125,0.9935150146484375
1767708905169775400,2.493775390625,-0.0592498779296875,0.018402099609375,0.9954986572265625
1767708905179776500,2.503776611328125,-0.0561676025390625,0.0156097412109375,0.9997100830078125
1767708905189776400,2.5137763671875,-0.0432586669921875,0.014251708984375,1.0042572021484375
1767708905199776500,2.523776611328125,-0.0443267822265625,0.016693115234375,1.0050506591796875
1767708905209776400,2.5337763671875,-0.05145263671875,0.0182342529296875,0.9985809326171875
1767708905219777300,2.54377734375,-0.056488037109375,0.0198211669921875,0.998626708984375
1767708905229777400,2.55377734375,-0.06103515625,0.0181884765625,1.00030517578125
1767708905239777300,2.56377734375,-0.0603179931640625,0.0167236328125,0.998291015625
1767708905249777400,2.57377734375,-0.0603485107421875,0.01495361328125,0.9963531494140625
1767708905259777300,2.58377734375,-0.0569305419921875,0.014617919921875,0.996002197265625
1767708905269778200,2.593778076171875,-0.0590667724609375,0.016815185546875,0.9974212646484375
1767708905279778300,2.6037783203125,-0.0579986572265625,0.01934814453125,1.0008697509765625
1767708905289778200,2.613778076171875,-0.0551300048828125,0.0193939208984375,1.0030059814453125
1767708905299778300,2.6237783203125,-0.0550689697265625,0.0193023681640625,1.00335693359375
1767708905309779500,2.633779541015625,-0.057281494140625,0.0193328857421875,1.0014801025390625
1767708905319779300,2.643779296875,-0.0572357177734375,0.0187225341796875,1.0005340576171875
1767708905329779500,2.653779541015625,-0.0578460693359375,0.01806640625,1.00140380859375
1767708905339779300,2.663779296875,-0.057403564453125,0.017486572265625,1.000762939453125
1767708905349780500,2.673780517578125,-0.0534820556640625,0.0175323486328125,1.002899169921875
1767708905359780600,2.683780517578125,-0.0548248291015625,0.018096923828125,0.9997100830078125
1767708905369780500,2.693780517578125,-0.0551910400390625,0.0187225341796875,0.999908447265625
1767708905379780600,2.703780517578125,-0.057098388671875,0.018798828125,0.99969482421875
1767708905389780500,2.713780517578125,-0.05615234375,0.017974853515625,0.999114990234375
1767708905399781400,2.723781494140625,-0.06024169921875,0.0183868408203125,0.999908447265625
1767708905409781500,2.733781494140625,-0.059967041015625,0.019439697265625,0.9964447021484375
1767708905419781400,2.743781494140625,-0.0576934814453125,0.0182037353515625,0.9960174560546875
1767708905429781800,2.75378173828125,-0.0566558837890625,0.01983642578125,0.99664306640625
1767708905439782700,2.76378271484375,-0.0576171875,0.0202789306640625,1.0003509521484375
1767708905449782500,2.773782470703125,-0.0594635009765625,0.0236358642578125,1.00042724609375
1767708905459782700,2.78378271484375,-0.0535736083984375,0.0206298828125,0.9979705810546875
1767708905469782500,2.793782470703125,-0.0519866943359375,0.02044677734375,0.999542236328125
1767708905479783400,2.803783447265625,-0.058837890625,0.02081298828125,1.00189208984375
1767708905489783600,2.813783447265625,-0.059478759765625,0.02008056640625,0.9984588623046875
1767708905499783400,2.823783447265625,-0.0555877685546875,0.019775390625,1.0001220703125
1767708905509783600,2.833783447265625,-0.053558349609375,0.021697998046875,1.0009918212890625
1767708905519783400,2.843783447265625,-0.0547027587890625,0.020050048828125,0.9990692138671875
1767708905529784600,2.85378466796875,-0.056488037109375,0.019805908203125,0.99932861328125
1767708905539784700,2.86378466796875,-0.056549072265625,0.0193939208984375,1.0002288818359375
1767708905549784600,2.87378466796875,-0.0623931884765625,0.0189208984375,0.999359130859375
1767708905559784700,2.88378466796875,-0.0592041015625,0.01947021484375,0.9990081787109375
1767708905569785600,2.89378564453125,-0.0594940185546875,0.0188446044921875,0.999114990234375
1767708905579785500,2.903785400390625,-0.0622406005859375,0.018646240234375,0.998077392578125
1767708905589785600,2.91378564453125,-0.0615386962890625,0.02008056640625,0.99786376953125
1767708905599785500,2.923785400390625,-0.0611572265625,0.02130126953125,0.9986572265625
1767708905609786600,2.93378662109375,-0.0595855712890625,0.019012451171875,1.0012664794921875
1767708905619786500,2.943786376953125,-0.0592803955078125,0.0198974609375,1.0013580322265625
1767708905629786400,2.953786376953125,-0.061065673828125,0.0205535888671875,1.000579833984375
1767708905639786500,2.963786376953125,-0.0569915771484375,0.01953125,0.9982452392578125
1767708905649786400,2.973786376953125,-0.0565948486328125,0.0202484130859375,0.994384765625
1767708905659787800,2.983787841796875,-0.058837890625,0.0191650390625,0.9951629638671875
1767708905669787600,2.99378759765625,-0.0580596923828125,0.0186309814453125,0.9975738525390625
1767708905679787500,3.00378759765625,-0.0554046630859375,0.017822265625,0.998260498046875
1767708905689787600,3.01378759765625,-0.0594635009765625,0.0171051025390625,0.9996185302734375
1767708905699788500,3.02378857421875,-0.058990478515625,0.0181884765625,1.0029449462890625
1767708905709788700,3.03378857421875,-0.0597381591796875,0.0197296142578125,1.001251220703125
1767708905719788500,3.04378857421875,-0.058990478515625,0.020904541015625,1.0011138916015625
1767708905729788400,3.053788330078125,-0.057037353515625,0.021148681640625,1.00140380859375
1767708905739788500,3.06378857421875,-0.05584716796875,0.018798828125,0.999267578125
1767708905749789400,3.07378955078125,-0.0550994873046875,0.01617431640625,1.0001983642578125
1767708905759789600,3.08378955078125,-0.0542144775390625,0.015899658203125,1.0018157958984375
1767708905769789400,3.09378955078125,-0.0533294677734375,0.016265869140625,1.0001220703125
1767708905779789600,3.10378955078125,-0.0518341064453125,0.015899658203125,0.9983673095703125
1767708905789790700,3.113790771484375,-0.0533599853515625,0.014434814453125,0.9990081787109375
1767708905799790600,3.12379052734375,-0.0542449951171875,0.0139923095703125,0.9976654052734375
1767708905809790700,3.133790771484375,-0.0589752197265625,0.01287841796875,0.996124267578125
1767708905819790600,3.14379052734375,-0.058258056640625,0.0137786865234375,1.0014495849609375
1767708905829791500,3.15379150390625,-0.04534912109375,0.0138702392578125,1.00531005859375
1767708905839791600,3.16379150390625,-0.0441436767578125,0.0165557861328125,1.0042572021484375
1767708905849791500,3.17379150390625,-0.0530548095703125,0.0198516845703125,0.999542236328125
1767708905859791600,3.18379150390625,-0.056243896484375,0.0194549560546875,0.9972686767578125
1767708905869792500,3.19379248046875,-0.059661865234375,0.0179595947265625,0.9961700439453125
1767708905879792400,3.20379248046875,-0.0615386962890625,0.0171661376953125,0.9980316162109375
1767708905889792800,3.213792724609375,-0.0596771240234375,0.0167694091796875,0.996612548828125
1767708905899792600,3.223792724609375,-0.0595703125,0.018310546875,0.99334716796875
1767708905909792800,3.233792724609375,-0.056976318359375,0.018707275390625,0.996002197265625
1767708905919793700,3.243793701171875,-0.054351806640625,0.0189056396484375,0.996795654296875
1767708905929793500,3.25379345703125,-0.0574493408203125,0.0184326171875,0.9963226318359375
1767708905939793700,3.263793701171875,-0.055084228515625,0.0179595947265625,0.9983978271484375
1767708905949793500,3.27379345703125,-0.0545501708984375,0.0167999267578125,1.00164794921875
1767708905959794400,3.28379443359375,-0.0557861328125,0.0177154541015625,1.00042724609375
1767708905969794600,3.293794677734375,-0.054443359375,0.0171051025390625,1.000244140625
1767708905979794400,3.30379443359375,-0.0530853271484375,0.0162200927734375,1.0035552978515625
1767708905989794600,3.313794677734375,-0.053375244140625,0.0158538818359375,1.0031280517578125
1767708905999795700,3.323795654296875,-0.05279541015625,0.0191497802734375,1.0007171630859375
1767708906009795600,3.333795654296875,-0.045928955078125,0.0173187255859375,1.000213623046875
1767708906019795700,3.343795654296875,-0.0489044189453125,0.0159454345703125,0.9962615966796875
1767708906029795600,3.353795654296875,-0.0511627197265625,0.0159759521484375,0.9973907470703125
1767708906039796500,3.36379638671875,-0.0522918701171875,0.012939453125,1.001007080078125
1767708906049796600,3.373796630859375,-0.0539093017578125,0.013275146484375,1.0016326904296875
1767708906059796500,3.38379638671875,-0.057403564453125,0.0157623291015625,1.001068115234375
1767708906069796600,3.393796630859375,-0.0572052001953125,0.0183563232421875,1
1767708906079796500,3.40379638671875,-0.0586090087890625,0.0210113525390625,0.9991912841796875
1767708906089797400,3.41379736328125,-0.0550537109375,0.022613525390625,0.9971771240234375
1767708906099797500,3.423797607421875,-0.053863525390625,0.021392822265625,0.9992828369140625
1767708906109797400,3.43379736328125,-0.0552978515625,0.022003173828125,0.9999847412109375
1767708906119797500,3.443797607421875,-0.0563507080078125,0.02020263671875,1.0009918212890625
1767708906129798700,3.453798583984375,-0.055419921875,0.01849365234375,1.0015716552734375
1767708906139798500,3.463798583984375,-0.0531463623046875,0.018096923828125,1.0014190673828125
1767708906149798700,3.473798583984375,-0.0555419921875,0.0176239013671875,1.0019073486328125
1767708906159798500,3.483798583984375,-0.0555267333984375,0.0174407958984375,1.000518798828125
1767708906169799700,3.493799560546875,-0.0516204833984375,0.01641845703125,1.003082275390625
1767708906179799600,3.503799560546875,-0.05352783203125,0.0145721435546875,0.9983367919921875
1767708906189799400,3.51379931640625,-0.054290771484375,0.0135345458984375,0.99700927734375
1767708906199799600,3.523799560546875,-0.0530242919921875,0.0137481689453125,0.99993896484375
1767708906209799400,3.53379931640625,-0.0472259521484375,0.013916015625,0.999847412109375
1767708906219800600,3.543800537109375,-0.043487548828125,0.013031005859375,0.9996337890625
1767708906229800400,3.553800537109375,-0.0434112548828125,0.01141357421875,1.0002899169921875
1767708906239800600,3.563800537109375,-0.0475921630859375,0.0121307373046875,0.99884033203125
1767708906249800700,3.57380078125,-0.0523529052734375,0.0147705078125,0.998504638671875
1767708906259801600,3.583801513671875,-0.051788330078125,0.0177154541015625,0.9998016357421875
1767708906269801700,3.5938017578125,-0.0513763427734375,0.018524169921875,0.999542236328125
1767708906279801600,3.603801513671875,-0.050323486328125,0.0185089111328125,0.999908447265625
1767708906289801500,3.613801513671875,-0.053375244140625,0.0189361572265625,0.9982757568359375
1767708906299802600,3.623802734375,-0.052703857421875,0.0215301513671875,0.99920654296875
1767708906309802500,3.633802490234375,-0.0447540283203125,0.02056884765625,0.997406005859375
1767708906319802600,3.643802734375,-0.0435791015625,0.0191192626953125,0.997222900390625
1767708906329802500,3.653802490234375,-0.0459747314453125,0.01953125,0.996856689453125
1767708906339803400,3.663803466796875,-0.0475921630859375,0.0185546875,0.996917724609375
1767708906349803300,3.67380322265625,-0.050201416015625,0.0186004638671875,0.994384765625
1767708906359803100,3.68380322265625,-0.05023193359375,0.016510009765625,0.9955902099609375
1767708906369803300,3.69380322265625,-0.049530029296875,0.016693115234375,0.997894287109375
1767708906379803100,3.70380322265625,-0.0445709228515625,0.01727294921875,0.99786376953125
1767708906389804000,3.713803955078125,-0.04345703125,0.0147705078125,1.0004730224609375
1767708906399804200,3.72380419921875,-0.0432586669921875,0.01727294921875,0.9997406005859375
1767708906409804000,3.733803955078125,-0.047119140625,0.0202484130859375,0.99591064453125
1767708906419804200,3.74380419921875,-0.0484619140625,0.022003173828125,0.99420166015625
1767708906429805000,3.75380517578125,-0.04534912109375,0.0198211669921875,0.9958038330078125
1767708906439805000,3.763804931640625,-0.0368804931640625,0.01568603515625,1.003143310546875
1767708906449805000,3.77380517578125,-0.035919189453125,0.0083770751953125,1.0032958984375
1767708906459805000,3.783804931640625,-0.0395355224609375,0.0067138671875,1.0082855224609375
1767708906469806000,3.79380615234375,-0.0372467041015625,0.0085906982421875,1.009979248046875
1767708906479806200,3.80380615234375,-0.041015625,0.0135650634765625,1.00927734375
1767708906489806000,3.81380615234375,-0.0458984375,0.0153961181640625,1.0044708251953125
1767708906499806200,3.82380615234375,-0.0512542724609375,0.0178680419921875,1.0017852783203125
1767708906509807000,3.83380712890625,-0.0547332763671875,0.018707275390625,0.9992523193359375
1767708906519807000,3.843806884765625,-0.0504608154296875,0.0183258056640625,0.9953155517578125
1767708906529807000,3.85380712890625,-0.042816162109375,0.01873779296875,0.995941162109375
1767708906539807000,3.863806884765625,-0.0337677001953125,0.0181732177734375,0.99957275390625
1767708906549807000,3.87380712890625,-0.0329132080078125,0.0163726806640625,1.0025634765625
1767708906559808000,3.88380810546875,-0.04144287109375,0.020416259765625,1.006134033203125
1767708906569808100,3.89380810546875,-0.0432586669921875,0.01959228515625,1.009429931640625
1767708906579808000,3.90380810546875,-0.0420379638671875,0.020050048828125,1.008331298828125
1767708906589807900,3.913807861328125,-0.040771484375,0.018157958984375,1.0064849853515625
1767708906599809300,3.923809326171875,-0.0406951904296875,0.0153045654296875,1.0016021728515625
1767708906609809200,3.93380908203125,-0.03717041015625,0.0164337158203125,0.99615478515625
1767708906619809000,3.94380908203125,-0.0358428955078125,0.0167388916015625,0.999603271484375
1767708906629809200,3.95380908203125,-0.0293731689453125,0.015869140625,1.0062103271484375
1767708906639810000,3.96381005859375,-0.0335693359375,0.014373779296875,1.00787353515625
1767708906649810200,3.97381005859375,-0.03509521484375,0.0142974853515625,1.0054168701171875
1767708906659810000,3.98381005859375,-0.0361785888671875,0.0155487060546875,1.0071868896484375
1767708906669810200,3.99381005859375,-0.0390777587890625,0.014007568359375,1.00213623046875
1767708906679811000,4.00381103515625,-0.0384521484375,0.014007568359375,0.997467041015625
1767708906689811000,4.01381103515625,-0.03778076171875,0.0168914794921875,0.997100830078125
1767708906699811300,4.023811279296875,-0.0352325439453125,0.015777587890625,1.000579833984375
1767708906709811200,4.033811279296875,-0.029083251953125,0.0142822265625,1.001922607421875
1767708906719811300,4.043811279296875,-0.03973388671875,0.0144195556640625,0.9987640380859375
1767708906729812200,4.053812255859375,-0.0743865966796875,0.02374267578125,1.0044403076171875
1767708906739812000,4.06381201171875,-0.0018310546875,0.0246429443359375,0.99761962890625
1767708906749812200,4.073812255859375,-0.028900146484375,0.01483154296875,0.9929962158203125
1767708906759812000,4.08381201171875,-0.0440826416015625,0.02294921875,1.0070343017578125
1767708906769813000,4.09381298828125,-0.03814697265625,0.0155792236328125,1.0006103515625
1767708906779813000,4.103813232421875,-0.0310211181640625,0.0180206298828125,1.002105712890625
1767708906789813000,4.11381298828125,-0.025604248046875,0.014068603515625,1.005035400390625
1767708906799813000,4.123813232421875,-0.0348358154296875,0.01287841796875,0.9991912841796875
1767708906809814300,4.133814208984375,-0.0427703857421875,0.0162506103515625,0.996734619140625
1767708906819814100,4.143814208984375,-0.043609619140625,0.01849365234375,0.9962005615234375
1767708906829814300,4.153814208984375,-0.0745391845703125,0.019256591796875,0.9935302734375
1767708906839814100,4.163814208984375,-0.0244598388671875,0.02435302734375,1.001312255859375
1767708906849815000,4.17381494140625,-0.027740478515625,0.0144500732421875,0.993865966796875
1767708906859815200,4.183815185546875,-0.04998779296875,0.019561767578125,1.0035400390625
1767708906869815000,4.19381494140625,-0.043975830078125,0.0147247314453125,0.99932861328125
1767708906879815200,4.203815185546875,-0.043548583984375,0.0157470703125,0.998382568359375
1767708906889816000,4.213816162109375,-0.045013427734375,0.0148468017578125,0.998382568359375
1767708906899816000,4.22381591796875,-0.0701751708984375,0.0140380859375,0.9921722412109375
1767708906909816000,4.233816162109375,-0.0347747802734375,0.0228271484375,1.0048370361328125
1767708906919816000,4.24381591796875,-0.026092529296875,0.008331298828125,0.9967803955078125
1767708906929816000,4.253816162109375,-0.0426177978515625,0.01629638671875,1.002197265625
1767708906939817200,4.263817138671875,-0.045806884765625,0.0115203857421875,0.9980621337890625
1767708906949817000,4.273817138671875,-0.05535888671875,0.0144500732421875,0.99261474609375
1767708906959817200,4.283817138671875,-0.0537261962890625,0.0139617919921875,0.99884033203125
1767708906969817000,4.293817138671875,-0.0503997802734375,0.0140228271484375,1.00238037109375
1767708906979818000,4.30381787109375,-0.046356201171875,0.0166473388671875,1.00054931640625
1767708906989818000,4.313818115234375,-0.0434417724609375,0.0172576904296875,1.00225830078125
1767708906999818000,4.32381787109375,-0.0423583984375,0.01654052734375,1.000762939453125
1767708907009818000,4.333818115234375,-0.0438690185546875,0.013671875,0.9993438720703125
1767708907019819000,4.343819091796875,-0.0478973388671875,0.011932373046875,0.997467041015625
1767708907029819100,4.353819091796875,-0.047271728515625,0.0120697021484375,0.992919921875
1767708907039819000,4.363819091796875,-0.0489959716796875,0.0153656005859375,0.9927978515625
1767708907049819000,4.37381884765625,-0.04302978515625,0.01495361328125,0.99993896484375
1767708907059820300,4.3838203125,-0.0409088134765625,0.012359619140625,1.000244140625
1767708907069820200,4.393820068359375,-0.048919677734375,0.0109100341796875,0.9970855712890625
1767708907079820000,4.403820068359375,-0.0530548095703125,0.0107421875,0.9982147216796875
1767708907089820200,4.413820068359375,-0.0428924560546875,0.0084991455078125,1.004150390625
1767708907099821000,4.423821044921875,-0.0364990234375,0.0106658935546875,1.0052490234375
1767708907109821200,4.4338212890625,-0.043060302734375,0.013885498046875,1.0007781982421875
1767708907119821000,4.443821044921875,-0.04754638671875,0.015594482421875,0.998626708984375
1767708907129821200,4.4538212890625,-0.05078125,0.01800537109375,0.9983978271484375
1767708907139822000,4.463822021484375,-0.052703857421875,0.0196990966796875,0.998809814453125
1767708907149822000,4.473822021484375,-0.0540618896484375,0.0179443359375,0.9981689453125
1767708907159822000,4.483822021484375,-0.0535125732421875,0.0172271728515625,0.99957275390625
1767708907169822200,4.493822265625,-0.0520782470703125,0.0178375244140625,1.0020599365234375
1767708907179822000,4.503822021484375,-0.0460968017578125,0.017303466796875,1.00372314453125
1767708907189823200,4.5138232421875,-0.043853759765625,0.0192108154296875,1.0011444091796875
1767708907199823000,4.523822998046875,-0.049041748046875,0.0194244384765625,0.9982757568359375
1767708907209823200,4.5338232421875,-0.0530853271484375,0.0198974609375,0.9970550537109375
1767708907219823000,4.543822998046875,-0.0539093017578125,0.020355224609375,0.9999847412109375
1767708907229824000,4.553823974609375,-0.0555877685546875,0.0204620361328125,1.000518798828125
1767708907239824100,4.56382421875,-0.0531768798828125,0.020233154296875,1.0019073486328125
1767708907249824000,4.573823974609375,-0.0494537353515625,0.0201568603515625,1.0018157958984375
1767708907259824000,4.58382421875,-0.0460968017578125,0.0195465087890625,1.002105712890625
1767708907269825300,4.5938251953125,-0.041839599609375,0.0172271728515625,0.9959564208984375
1767708907279825200,4.6038251953125,-0.0427703857421875,0.01483154296875,0.9919586181640625
1767708907289825300,4.6138251953125,-0.051055908203125,0.0182647705078125,0.992645263671875
1767708907299825200,4.6238251953125,-0.05645751953125,0.0159149169921875,0.992950439453125
1767708907309826000,4.633825927734375,-0.056488037109375,0.015472412109375,0.9950408935546875
1767708907319826200,4.643826171875,-0.04290771484375,0.012176513671875,1.0029144287109375
1767708907329826000,4.653825927734375,-0.0439605712890625,0.0097198486328125,1.0043487548828125
1767708907339826200,4.663826171875,-0.0529022216796875,0.01470947265625,1.000946044921875
1767708907349827600,4.67382763671875,-0.0579376220703125,0.016082763671875,0.9986572265625
1767708907359827500,4.683827392578125,-0.060943603515625,0.0186309814453125,0.9958038330078125
1767708907369827600,4.69382763671875,-0.05712890625,0.022216796875,0.9956207275390625
1767708907379827500,4.703827392578125,-0.054107666015625,0.021636962890625,0.998931884765625
1767708907389828600,4.71382861328125,-0.04962158203125,0.0229949951171875,1.0005950927734375
1767708907399828700,4.723828857421875,-0.0429534912109375,0.0210113525390625,1.0036163330078125
1767708907409828600,4.73382861328125,-0.04425048828125,0.0197906494140625,1.006011962890625
1767708907419828700,4.743828857421875,-0.05426025390625,0.0198211669921875,1.003509521484375
1767708907429829600,4.75382958984375,-0.0546875,0.0192718505859375,1.0024566650390625
1767708907439829500,4.76382958984375,-0.0516357421875,0.0169830322265625,1.0013275146484375
1767708907449829600,4.77382958984375,-0.0501556396484375,0.015289306640625,1.0008697509765625
1767708907459829500,4.78382958984375,-0.052734375,0.0155487060546875,0.999755859375
1767708907469829600,4.79382958984375,-0.0528564453125,0.0133056640625,0.999237060546875
1767708907479830500,4.80383056640625,-0.0539398193359375,0.01483154296875,0.9989166259765625
1767708907489830400,4.813830322265625,-0.053558349609375,0.016082763671875,0.9983978271484375
1767708907499830800,4.823830810546875,-0.0530548095703125,0.015594482421875,1.0005645751953125
1767708907509830700,4.83383056640625,-0.0509033203125,0.018463134765625,1.0006866455078125
1767708907519831600,4.84383154296875,-0.0473480224609375,0.0187835693359375,1.0058441162109375
1767708907529831700,4.853831787109375,-0.0506439208984375,0.0187835693359375,1.0069732666015625
1767708907539831600,4.86383154296875,-0.0537872314453125,0.018646240234375,1.003509521484375
1767708907549831700,4.873831787109375,-0.052093505859375,0.0179290771484375,1.0021209716796875
1767708907559832600,4.88383251953125,-0.05487060546875,0.0179901123046875,1.0005645751953125
1767708907569832400,4.89383251953125,-0.0531463623046875,0.0153656005859375,0.997528076171875
1767708907579832600,4.90383251953125,-0.0533599853515625,0.01776123046875,0.9950103759765625
1767708907589832400,4.91383251953125,-0.053375244140625,0.0192718505859375,0.9934234619140625
1767708907599833600,4.92383349609375,-0.0498809814453125,0.019683837890625,0.997100830078125
1767708907609833700,4.933833740234375,-0.047027587890625,0.017242431640625,1.0013885498046875
1767708907619833600,4.94383349609375,-0.04608154296875,0.012542724609375,1.003814697265625
1767708907629833700,4.953833740234375,-0.04620361328125,0.0107269287109375,1.0037841796875
1767708907639834600,4.963834716796875,-0.044097900390625,0.0116729736328125,0.99957275390625
1767708907649834800,4.973834716796875,-0.0431671142578125,0.01385498046875,0.9997406005859375
1767708907659834600,4.983834716796875,-0.0462493896484375,0.014404296875,0.999420166015625
1767708907669834500,4.99383447265625,-0.0493621826171875,0.0142822265625,0.9977569580078125
1767708907679835600,5.003835693359375,-0.0492706298828125,0.011383056640625,0.99969482421875
1767708907689835500,5.01383544921875,-0.0408935546875,0.0107574462890625,1.00372314453125
1767708907699835600,5.023835693359375,-0.033355712890625,0.010894775390625,1.0022735595703125
1767708907709835500,5.03383544921875,-0.0342559814453125,0.01513671875,0.9988250732421875
1767708907719836700,5.043836669921875,-0.0417327880859375,0.0193328857421875,0.996063232421875
1767708907729836800,5.0538369140625,-0.0467376708984375,0.0202178955078125,0.9935455322265625
1767708907739836700,5.063836669921875,-0.051544189453125,0.0195770263671875,0.99273681640625
1767708907749836800,5.0738369140625,-0.0431976318359375,0.015625,0.9960784912109375
1767708907759837700,5.083837646484375,-0.0427703857421875,0.0130462646484375,0.9994049072265625
1767708907769837600,5.093837646484375,-0.0411834716796875,0.0144195556640625,1.001190185546875
1767708907779837700,5.103837646484375,-0.03948974609375,0.0148162841796875,1.0013275146484375
1767708907789837600,5.113837646484375,-0.034393310546875,0.015228271484375,0.999786376953125
1767708907799838500,5.12383837890625,-0.027069091796875,0.0193939208984375,1.0004425048828125
1767708907809838600,5.133838623046875,-0.033447265625,0.0188140869140625,0.998199462890625
1767708907819838500,5.14383837890625,-0.037353515625,0.0197296142578125,0.996673583984375
1767708907829838600,5.153838623046875,-0.038299560546875,0.0158233642578125,1.0007476806640625
1767708907839839700,5.16383984375,-0.0433197021484375,0.01226806640625,1.0008392333984375
1767708907849839600,5.173839599609375,-0.04425048828125,0.0090484619140625,0.9998626708984375
1767708907859839700,5.18383984375,-0.039825439453125,0.0095367431640625,1.001617431640625
1767708907869839600,5.193839599609375,-0.045989990234375,0.01422119140625,0.9991302490234375
1767708907879839700,5.20383984375,-0.048797607421875,0.0164642333984375,0.9994964599609375
1767708907889840600,5.213840576171875,-0.0479888916015625,0.0183258056640625,0.9989013671875
1767708907899840500,5.223840576171875,-0.0455169677734375,0.019927978515625,0.9932098388671875
1767708907909840600,5.233840576171875,-0.0488128662109375,0.023529052734375,0.99139404296875
1767708907919840500,5.243840576171875,-0.040374755859375,0.0279388427734375,0.9923553466796875
1767708907929841400,5.25384130859375,-0.0380859375,0.027008056640625,0.99603271484375
1767708907939841500,5.263841552734375,-0.0402069091796875,0.0258941650390625,0.99639892578125
1767708907949841400,5.27384130859375,-0.037261962890625,0.0261077880859375,0.9945831298828125
1767708907959841500,5.283841552734375,-0.0394439697265625,0.0242462158203125,0.9957733154296875
1767708907969842700,5.2938427734375,-0.0399169921875,0.0236663818359375,0.9993896484375
1767708907979842600,5.303842529296875,-0.0402984619140625,0.0231475830078125,1.0031585693359375
1767708907989842700,5.3138427734375,-0.0440826416015625,0.0227813720703125,1.0040130615234375
1767708907999842600,5.323842529296875,-0.041290283203125,0.0209503173828125,0.9989471435546875
1767708908009843700,5.33384375,-0.0359954833984375,0.0205841064453125,0.99993896484375
1767708908019843600,5.343843505859375,-0.038604736328125,0.0214080810546875,1.005218505859375
1767708908029843500,5.353843505859375,-0.0352020263671875,0.0160980224609375,1.0122833251953125
1767708908039843600,5.363843505859375,-0.0389251708984375,0.015869140625,1.0167999267578125
1767708908049844500,5.373844482421875,-0.0389251708984375,0.01397705078125,1.02227783203125
1767708908059844600,5.3838447265625,-0.031219482421875,0.014129638671875,1.0210723876953125
1767708908069844700,5.3938447265625,-0.0326080322265625,0.0178680419921875,1.0158538818359375
1767708908079844600,5.4038447265625,-0.0400543212890625,0.023529052734375,1.0074005126953125
1767708908089845800,5.413845703125,-0.037933349609375,0.0243988037109375,1.0037689208984375
1767708908099845600,5.423845703125,-0.04339599609375,0.026611328125,0.9985198974609375
1767708908109845800,5.433845703125,-0.0414886474609375,0.0214996337890625,0.9958953857421875
1767708908119845600,5.443845703125,-0.0399017333984375,0.0170135498046875,0.989410400390625
1767708908129846500,5.453846435546875,-0.0361785888671875,0.0142822265625,0.9866790771484375
1767708908139846700,5.4638466796875,-0.03265380859375,0.010711669921875,0.99066162109375
1767708908149846500,5.473846435546875,-0.0336151123046875,0.0122222900390625,0.9876556396484375
1767708908159846700,5.4838466796875,-0.02862548828125,0.012237548828125,0.989776611328125
1767708908169847600,5.49384765625,-0.0197601318359375,0.0118408203125,0.997222900390625
1767708908179847700,5.50384765625,-0.0170440673828125,0.0143280029296875,1.002899169921875
1767708908189847800,5.513847900390625,-0.0233154296875,0.016021728515625,1.0045166015625
1767708908199847700,5.52384765625,-0.0251007080078125,0.018646240234375,1.002685546875
1767708908209848600,5.5338486328125,-0.02825927734375,0.0210418701171875,0.9964447021484375
1767708908219848700,5.5438486328125,-0.030303955078125,0.0203399658203125,0.994415283203125
1767708908229848600,5.5538486328125,-0.0303192138671875,0.0201568603515625,0.9959869384765625
1767708908239848700,5.5638486328125,-0.02459716796875,0.0191802978515625,1.0009613037109375
1767708908249849600,5.573849609375,-0.0112762451171875,0.021270751953125,0.99969482421875
1767708908259849500,5.583849365234375,-0.0094757080078125,0.020599365234375,0.998992919921875
1767708908269849600,5.593849609375,-0.01507568359375,0.01763916015625,0.9971923828125
1767708908279849500,5.603849365234375,-0.01806640625,0.0178070068359375,0.9974822998046875
1767708908289850600,5.6138505859375,-0.01153564453125,0.0167236328125,1.00201416015625
1767708908299850800,5.623850830078125,0.0007781982421875,0.01458740234375,0.999114990234375
1767708908309850600,5.6338505859375,0.0127716064453125,0.016448974609375,1.0023345947265625
1767708908319850800,5.643850830078125,0.020782470703125,0.014862060546875,1.0080108642578125
1767708908329851600,5.6538515625,0.017547607421875,0.01409912109375,1.0108795166015625
1767708908339851500,5.6638515625,0.0056915283203125,0.01708984375,1.0112762451171875
1767708908349851100,5.67385107421875,-0.0006561279296875,0.016845703125,1.010284423828125
1767708908359851000,5.68385107421875,-0.0013427734375,0.015289306640625,1.0103759765625
1767708908369852200,5.69385205078125,-0.0058746337890625,0.013763427734375,1.009674072265625
1767708908379852000,5.70385205078125,-0.0060882568359375,0.0155487060546875,1.00836181640625
1767708908389852200,5.71385205078125,-0.0042572021484375,0.0177459716796875,1.005218505859375
1767708908399852000,5.72385205078125,-0.0059661865234375,0.014801025390625,1.000885009765625
1767708908409853000,5.73385302734375,0.001861572265625,0.016448974609375,0.996551513671875
1767708908419853000,5.74385302734375,0.004852294921875,0.01397705078125,0.9914398193359375
1767708908429853000,5.75385302734375,0.0066375732421875,0.0121917724609375,0.993743896484375
1767708908439853000,5.76385302734375,0.00750732421875,0.0131072998046875,0.998504638671875
1767708908449854200,5.773854248046875,0.006500244140625,0.0130615234375,1.0042724609375
1767708908459854000,5.78385400390625,0.004119873046875,0.012664794921875,1.0067596435546875
1767708908469854200,5.793854248046875,0.0073089599609375,0.013946533203125,1.0092926025390625
1767708908479854000,5.80385400390625,0.007354736328125,0.0142364501953125,1.008392333984375
1767708908489855000,5.81385498046875,0.0019683837890625,0.01544189453125,1.0017852783203125
1767708908499855000,5.823855224609375,-0.00262451171875,0.01422119140625,0.999786376953125
1767708908509855000,5.83385498046875,-0.0033416748046875,0.0135345458984375,0.994964599609375
1767708908519855000,5.843855224609375,0.0025787353515625,0.0147247314453125,0.9925994873046875
1767708908529855000,5.85385498046875,0.0068817138671875,0.0201416015625,1.0007476806640625
1767708908539856000,5.86385595703125,0.005859375,0.01947021484375,1.005828857421875
1767708908549856000,5.87385595703125,0.002716064453125,0.0208740234375,1.008026123046875
1767708908559856000,5.883856201171875,0.0019989013671875,0.022369384765625,1.0062255859375
1767708908569856300,5.893856201171875,0.0065155029296875,0.02325439453125,1.003875732421875
1767708908579857200,5.903857177734375,0.006561279296875,0.0227508544921875,1.000457763671875
1767708908589857000,5.91385693359375,0.0052947998046875,0.02313232421875,0.997772216796875
1767708908599857200,5.923857177734375,0.007049560546875,0.022491455078125,1.0007781982421875
1767708908609857000,5.93385693359375,0.004241943359375,0.021881103515625,1.0053558349609375
1767708908619858000,5.94385791015625,0.0070953369140625,0.02105712890625,1.009765625
1767708908629858000,5.953858154296875,0.012908935546875,0.0191802978515625,1.011566162109375
1767708908639858000,5.96385791015625,0.0095977783203125,0.0172576904296875,1.0095977783203125
1767708908649858000,5.973858154296875,0.0098114013671875,0.017364501953125,1.00634765625
1767708908659859200,5.983859130859375,0.0092620849609375,0.0153656005859375,1.002655029296875
1767708908669859000,5.993859130859375,0.00897216796875,0.017974853515625,1.0016632080078125
1767708908679859200,6.003859130859375,0.0147705078125,0.017120361328125,1.002899169921875
1767708908689859000,6.013859130859375,0.022186279296875,0.0150146484375,1.004302978515625
1767708908699860000,6.02385986328125,0.01824951171875,0.016265869140625,1.00299072265625
1767708908709860000,6.033860107421875,0.0060577392578125,0.0187530517578125,0.9991607666015625
1767708908719860000,6.04385986328125,0.000701904296875,0.0197601318359375,0.9997100830078125
1767708908729860000,6.053860107421875,0.0051116943359375,0.017242431640625,1.0003509521484375
1767708908739861000,6.063861083984375,0.0122222900390625,0.0174560546875,1.0004730224609375
1767708908749861000,6.073861083984375,0.013702392578125,0.0165557861328125,0.99810791015625
1767708908759861000,6.083861083984375,0.0132293701171875,0.021087646484375,0.9988250732421875
1767708908769860900,6.09386083984375,0.0186309814453125,0.021240234375,1.00335693359375
1767708908779862300,6.1038623046875,0.020751953125,0.020172119140625,1.000762939453125
1767708908789862100,6.113862060546875,0.016326904296875,0.01898193359375,0.997161865234375
1767708908799862300,6.1238623046875,0.00885009765625,0.0177154541015625,0.99554443359375
1767708908809862100,6.133862060546875,0.0032196044921875,0.0161895751953125,0.9903564453125
1767708908819863000,6.143863037109375,0.005889892578125,0.01666259765625,0.986968994140625
1767708908829863200,6.15386328125,0.0153656005859375,0.0153656005859375,0.9907684326171875
1767708908839863000,6.163863037109375,0.018096923828125,0.0139312744140625,0.9961090087890625
1767708908849863200,6.17386328125,0.01190185546875,0.014862060546875,0.9997100830078125
1767708908859864000,6.183864013671875,0.0074615478515625,0.0180816650390625,1.00390625
1767708908869864000,6.193864013671875,0.00640869140625,0.01800537109375,1.00531005859375
1767708908879864000,6.203864013671875,0.0052337646484375,0.019775390625,1.0055389404296875
1767708908889864000,6.213864013671875,0.007568359375,0.0184173583984375,1.006500244140625
1767708908899865000,6.223864990234375,0.0061798095703125,0.0146026611328125,1.0072479248046875
1767708908909865200,6.233865234375,0.0033111572265625,0.013275146484375,1.0071563720703125
1767708908919865000,6.243864990234375,0.0069580078125,0.013092041015625,1.0088958740234375
1767708908929865200,6.253865234375,0.01116943359375,0.01409912109375,1.005035400390625
1767708908939866000,6.2638662109375,0.00750732421875,0.01715087890625,1.0026702880859375
1767708908949866000,6.273865966796875,0.0085906982421875,0.017913818359375,1.005859375
1767708908959866000,6.2838662109375,0.0045318603515625,0.01739501953125,1.002899169921875
1767708908969866000,6.293865966796875,-0.00244140625,0.0175628662109375,1.0017242431640625
1767708908979867000,6.303866943359375,-0.003692626953125,0.019500732421875,1.002655029296875
1767708908989867000,6.313866943359375,-0.003204345703125,0.0180206298828125,1.0001678466796875
1767708908999867000,6.323866943359375,-0.0049896240234375,0.01995849609375,0.99725341796875
1767708909009868000,6.333867919921875,0.001312255859375,0.0217742919921875,0.9932098388671875
1767708909019868200,6.3438681640625,0.0060577392578125,0.0207672119140625,0.994964599609375
1767708909029868000,6.353867919921875,0.00262451171875,0.020599365234375,0.998504638671875
1767708909039868200,6.3638681640625,0.0048065185546875,0.0209197998046875,0.9998931884765625
1767708909049869000,6.373869140625,0.0078125,0.018157958984375,0.99908447265625
1767708909059869000,6.383868896484375,0.0072174072265625,0.015045166015625,0.998382568359375
1767708909069869000,6.393869140625,0.0047149658203125,0.0152740478515625,1.0036468505859375
1767708909079869000,6.403868896484375,0.0096588134765625,0.0124664306640625,1.0033416748046875
1767708909089870000,6.4138701171875,0.00579833984375,0.0131378173828125,1.0021820068359375
1767708909099870000,6.423869873046875,0.001953125,0.0133514404296875,1.003021240234375
1767708909109870000,6.4338701171875,-0.00286865234375,0.0167236328125,1.002349853515625
1767708909119870000,6.443869873046875,-0.0015411376953125,0.0192413330078125,0.999969482421875
1767708909129871000,6.45387109375,0.0043792724609375,0.0163116455078125,0.9990997314453125
1767708909139871200,6.463871337890625,0.0041351318359375,0.014862060546875,1.00140380859375
1767708909149871000,6.47387109375,0.0027313232421875,0.0146484375,1.0018157958984375
1767708909159871000,6.48387109375,0.0031280517578125,0.0154876708984375,1.0027008056640625
1767708909169872100,6.4938720703125,0.0023651123046875,0.01788330078125,1.00396728515625
1767708909179872000,6.5038720703125,0.0066070556640625,0.01922607421875,1.0062255859375
1767708909189872000,6.5138720703125,0.00518798828125,0.021148681640625,1.00433349609375
1767708909199872000,6.5238720703125,0.0036468505859375,0.024078369140625,1.0059051513671875
1767708909209873000,6.533872802734375,0.00518798828125,0.02294921875,1.005859375
1767708909219873000,6.543873046875,0.005767822265625,0.0204010009765625,1.0089263916015625
1767708909229873200,6.553873046875,0.0094451904296875,0.014862060546875,1.007537841796875
1767708909239873300,6.563873291015625,0.00714111328125,0.0121307373046875,1.0030975341796875
1767708909249874200,6.573874267578125,0.005401611328125,0.012054443359375,0.9975128173828125
1767708909259874000,6.5838740234375,0.00970458984375,0.0118865966796875,0.9956512451171875
1767708909269874200,6.593874267578125,0.0098114013671875,0.0116424560546875,0.9952545166015625
1767708909279874000,6.6038740234375,0.00335693359375,0.01348876953125,0.9924468994140625
1767708909289875000,6.613875,0.0033111572265625,0.0145416259765625,0.9940643310546875
1767708909299875000,6.623875,0.0053863525390625,0.0139007568359375,0.9969024658203125
1767708909309875000,6.633875,0.0043487548828125,0.0167999267578125,0.9965667724609375
1767708909319875000,6.643875,0.004791259765625,0.01312255859375,1.000946044921875
1767708909329876000,6.6538759765625,0.006011962890625,0.0140380859375,1.002166748046875
1767708909339876000,6.6638759765625,0.005767822265625,0.0127410888671875,1.000152587890625
1767708909349875700,6.673875732421875,-0.0016326904296875,0.013397216796875,1.002227783203125
1767708909359875600,6.68387548828125,-0.004119873046875,0.0152435302734375,1.0014801025390625
1767708909369876700,6.693876708984375,-0.005950927734375,0.0179443359375,0.9982757568359375
1767708909379876600,6.703876708984375,-0.0041046142578125,0.0189056396484375,0.9969482421875
1767708909389876700,6.713876708984375,-0.0023040771484375,0.01824951171875,1.000030517578125
1767708909399876900,6.723876953125,-0.0029296875,0.0197296142578125,0.998687744140625
1767708909409877800,6.733877685546875,-0.0030517578125,0.0203399658203125,0.9985504150390625
1767708909419878000,6.7438779296875,0.0011138916015625,0.0207977294921875,1.0034027099609375
1767708909429877800,6.753877685546875,-0.0024871826171875,0.018890380859375,1.0016021728515625
1767708909439877600,6.763877685546875,-0.0026702880859375,0.01776123046875,1.0040130615234375
1767708909449878800,6.773878662109375,0.0004119873046875,0.016937255859375,1.003631591796875
1767708909459878700,6.783878662109375,-0.0001373291015625,0.016387939453125,0.9989776611328125
1767708909469878800,6.793878662109375,-0.0010833740234375,0.017242431640625,0.9998626708984375
1767708909479878700,6.803878662109375,-0.000579833984375,0.0166168212890625,1.0019989013671875
1767708909489879800,6.8138798828125,-0.0028076171875,0.0163421630859375,1.000244140625
1767708909499880000,6.8238798828125,-0.0085601806640625,0.0142364501953125,1.0032958984375
1767708909509879800,6.8338798828125,-0.0102386474609375,0.010833740234375,1.0069427490234375
1767708909519880000,6.8438798828125,-0.0043792724609375,0.0102081298828125,1.008209228515625
1767708909529880800,6.853880859375,-0.0019683837890625,0.01104736328125,1.007568359375
1767708909539880700,6.863880615234375,0.0005340576171875,0.0147705078125,1.0063934326171875
1767708909549880800,6.873880859375,-0.0041351318359375,0.016448974609375,1.0040283203125
1767708909559880700,6.883880615234375,-0.01092529296875,0.016082763671875,1.0025634765625
1767708909569881600,6.893881591796875,-0.01104736328125,0.01580810546875,1.00543212890625
1767708909579881700,6.9038818359375,-0.01043701171875,0.0163726806640625,1.0059967041015625
1767708909589881600,6.913881591796875,-0.0099334716796875,0.0160675048828125,1.0054168701171875
1767708909599881700,6.9238818359375,-0.0052642822265625,0.0156707763671875,1.00323486328125
1767708909609883000,6.9338828125,-0.0040740966796875,0.016876220703125,0.9989166259765625
1767708909619882800,6.9438828125,-0.00311279296875,0.015899658203125,0.9965362548828125
1767708909629883000,6.9538828125,-0.002655029296875,0.0172271728515625,0.99224853515625
1767708909639882800,6.9638828125,-0.0013580322265625,0.016845703125,0.9916229248046875
1767708909649883600,6.973883544921875,-0.000946044921875,0.016357421875,0.99456787109375
1767708909659883800,6.9838837890625,-0.0027008056640625,0.0176849365234375,0.9989013671875
1767708909669883600,6.993883544921875,-0.0027313232421875,0.017425537109375,1.0012054443359375
1767708909679883800,7.0038837890625,0.0005035400390625,0.0144500732421875,1.00244140625
1767708909689884700,7.013884765625,-0.0035400390625,0.0151824951171875,1.0012969970703125
1767708909699884500,7.023884521484375,-0.0030975341796875,0.0159912109375,1.00091552734375
1767708909709884700,7.033884765625,-0.00396728515625,0.0137176513671875,1.0030059814453125
1767708909719884500,7.043884521484375,-0.00738525390625,0.014617919921875,1.0010833740234375
1767708909729885700,7.0538857421875,-0.0080718994140625,0.017181396484375,0.99993896484375
1767708909739885800,7.0638857421875,-0.0045166015625,0.01641845703125,1.0015106201171875
1767708909749885700,7.0738857421875,-0.006591796875,0.0182037353515625,1.0003662109375
1767708909759885800,7.0838857421875,-0.010040283203125,0.018463134765625,0.997589111328125
1767708909769886700,7.09388671875,-0.00946044921875,0.01861572265625,1.000091552734375
1767708909779886800,7.103886962890625,-0.0070343017578125,0.018310546875,0.9996337890625
1767708909789886700,7.11388671875,-0.0101318359375,0.0189971923828125,0.9971771240234375
1767708909799886600,7.123886474609375,-0.0084381103515625,0.021942138671875,0.9999847412109375
1767708909809887700,7.1338876953125,-0.0017242431640625,0.022216796875,1.0015411376953125
1767708909819887600,7.1438876953125,0.004608154296875,0.01971435546875,1.0020904541015625
1767708909829887700,7.1538876953125,0.0040130615234375,0.01922607421875,1.0032196044921875
1767708909839889000,7.163888916015625,-0.0016021728515625,0.0170440673828125,1.0050811767578125
1767708909849888800,7.173888671875,-0.00909423828125,0.0186614990234375,1.000946044921875
1767708909859889000,7.183888916015625,-0.00836181640625,0.017974853515625,1.0005950927734375
1767708909869888800,7.193888671875,-0.00469970703125,0.015838623046875,1.00177001953125
1767708909879889700,7.2038896484375,-0.010284423828125,0.0149993896484375,0.996978759765625
1767708909889889800,7.213889892578125,-0.0096588134765625,0.0133056640625,0.99774169921875
1767708909899889700,7.2238896484375,-0.0090484619140625,0.010589599609375,0.999542236328125
1767708909909889800,7.233889892578125,-0.00640869140625,0.0108795166015625,0.99951171875
1767708909919890700,7.243890625,-0.0027618408203125,0.0127105712890625,1.0015106201171875
1767708909929890600,7.253890625,-0.003662109375,0.0141448974609375,1.003387451171875
1767708909939890700,7.263890625,-0.005340576171875,0.015899658203125,1.0012664794921875
1767708909949890600,7.273890625,-0.0081329345703125,0.0172882080078125,0.9992523193359375
1767708909959891700,7.2838916015625,-0.010406494140625,0.0177459716796875,0.996185302734375
1767708909969891800,7.293891845703125,-0.007720947265625,0.01727294921875,0.9966583251953125
1767708909979891700,7.3038916015625,-0.0030975341796875,0.0171356201171875,1.0031890869140625
1767708909989891800,7.313891845703125,0.0002593994140625,0.018341064453125,1.0113677978515625
1767708909999892700,7.323892822265625,-0.0043182373046875,0.018218994140625,1.010101318359375
1767708910009892600,7.333892578125,-0.00946044921875,0.0219879150390625,1.004608154296875
1767708910019892700,7.343892822265625,-0.0104217529296875,0.0234527587890625,1.00091552734375
1767708910029892600,7.353892578125,-0.0021209716796875,0.02252197265625,0.99981689453125
1767708910039893500,7.3638935546875,0.0035400390625,0.0165252685546875,1.004669189453125
1767708910049893600,7.3738935546875,0.0078582763671875,0.0160675048828125,1.0040435791015625
1767708910059893800,7.383893798828125,0.00311279296875,0.018035888671875,0.9999542236328125
1767708910069894000,7.393893798828125,0.0041656494140625,0.0188446044921875,0.9978179931640625
1767708910079894800,7.403894775390625,0.0006561279296875,0.0206298828125,0.9952850341796875
1767708910089894700,7.413894775390625,-0.006195068359375,0.0199737548828125,0.9976348876953125
1767708910099894800,7.423894775390625,-0.010711669921875,0.019256591796875,1.003143310546875
1767708910109894700,7.433894775390625,-0.00537109375,0.0178375244140625,1.008056640625
1767708910119895800,7.443895751953125,0.00811767578125,0.015899658203125,1.0098114013671875
1767708910129895700,7.453895751953125,0.0135650634765625,0.015350341796875,1.00640869140625
1767708910139895600,7.4638955078125,0.00811767578125,0.015380859375,1.0006561279296875
1767708910149895700,7.473895751953125,0.0031890869140625,0.01934814453125,1.0008392333984375
1767708910159896600,7.483896484375,-0.0015411376953125,0.01776123046875,1.002655029296875
1767708910169897000,7.49389697265625,-0.0023651123046875,0.01678466796875,1.001739501953125
1767708910179896800,7.503896728515625,-0.0091400146484375,0.018646240234375,1.0020294189453125
1767708910189897700,7.513897705078125,-0.0079345703125,0.0174560546875,0.9954071044921875
1767708910199897900,7.52389794921875,-0.008056640625,0.020904541015625,0.99700927734375
1767708910209897700,7.533897705078125,-0.0047454833984375,0.0212860107421875,0.997161865234375
1767708910219897900,7.54389794921875,-0.0028076171875,0.0192413330078125,0.993896484375
1767708910229898800,7.553898681640625,-0.005096435546875,0.0228118896484375,0.993438720703125
1767708910239898600,7.563898681640625,-0.003753662109375,0.02264404296875,0.9947662353515625
1767708910249898800,7.573898681640625,-0.0014495849609375,0.022918701171875,1.0004730224609375
1767708910259898600,7.583898681640625,0.0011138916015625,0.0184478759765625,1.006072998046875
1767708910269899800,7.593899658203125,-0.000823974609375,0.0187835693359375,1.006134033203125
1767708910279900000,7.60389990234375,-0.00146484375,0.017486572265625,1.000885009765625
1767708910289899800,7.613899658203125,0.0047454833984375,0.017333984375,1.001312255859375
1767708910299900000,7.62389990234375,0.0084686279296875,0.013427734375,1.0081787109375
1767708910309900800,7.63390087890625,0.0068817138671875,0.0103607177734375,1.0041961669921875
1767708910319900700,7.643900634765625,0.0025482177734375,0.0117034912109375,0.9985809326171875
1767708910329900800,7.65390087890625,0.0005340576171875,0.0131988525390625,1.0000457763671875
1767708910339900700,7.663900634765625,-0.0023345947265625,0.0146636962890625,0.9980316162109375
1767708910349902300,7.67390234375,-0.004730224609375,0.0183258056640625,0.997589111328125
1767708910359902500,7.68390234375,-0.00244140625,0.0198516845703125,1.00018310546875
1767708910369902300,7.69390234375,0.002960205078125,0.0182952880859375,1.0004119873046875
1767708910379902500,7.70390234375,0.0009765625,0.0191192626953125,1.00042724609375
1767708910389903600,7.713903564453125,-0.004486083984375,0.0184478759765625,1.0003814697265625
1767708910399903500,7.723903564453125,-0.0030517578125,0.018951416015625,1.0022125244140625
1767708910409903600,7.733903564453125,-0.002349853515625,0.02069091796875,1.001251220703125
1767708910419903500,7.743903564453125,-0.00390625,0.019805908203125,1.0041046142578125
1767708910429904400,7.753904296875,-0.00787353515625,0.02069091796875,1.0014495849609375
1767708910439904500,7.763904541015625,-0.007537841796875,0.0242767333984375,1.002044677734375
1767708910449904400,7.773904296875,-0.0034637451171875,0.0245361328125,1.0033111572265625
1767708910459904500,7.783904541015625,0.0010833740234375,0.0233154296875,1.00433349609375
1767708910469905400,7.793905517578125,-0.0006256103515625,0.0194091796875,1.002410888671875
1767708910479905300,7.8039052734375,-0.002166748046875,0.0190277099609375,1.0018463134765625
1767708910489905700,7.81390576171875,-0.0032958984375,0.01739501953125,1.0010528564453125
1767708910499906600,7.823906494140625,-0.0002899169921875,0.0181884765625,0.9997100830078125
1767708910509906400,7.833906494140625,0.001251220703125,0.01885986328125,0.998046875
1767708910519906600,7.843906494140625,0.0034332275390625,0.018951416015625,0.9994049072265625
1767708910529906400,7.853906494140625,0.001220703125,0.02020263671875,1.000274658203125
1767708910539907300,7.8639072265625,-0.0000762939453125,0.023651123046875,0.999298095703125
1767708910549907500,7.873907470703125,0.001434326171875,0.025543212890625,1.0030364990234375
1767708910559907300,7.8839072265625,0.001434326171875,0.0264434814453125,1.00469970703125
1767708910569907500,7.893907470703125,0.005828857421875,0.0260467529296875,1.0038909912109375
1767708910579908400,7.903908447265625,0.0000152587890625,0.026031494140625,1.0008544921875
1767708910589908500,7.913908447265625,-0.00274658203125,0.0263671875,0.998809814453125
1767708910599908600,7.92390869140625,-0.0011444091796875,0.0244903564453125,0.9991302490234375
1767708910609908500,7.933908447265625,-0.005523681640625,0.02557373046875,1.00091552734375
1767708910619909600,7.94390966796875,-0.012115478515625,0.027862548828125,0.999969482421875
1767708910629909500,7.953909423828125,-0.0134429931640625,0.0291290283203125,0.9963531494140625
1767708910639909600,7.96390966796875,-0.0072021484375,0.0282440185546875,0.9962615966796875
1767708910649909500,7.973909423828125,-0.0019683837890625,0.0261688232421875,0.9984130859375
1767708910659910400,7.983910400390625,-0.000335693359375,0.0266876220703125,1.0029449462890625
1767708910669910500,7.99391064453125,0.0007171630859375,0.0268402099609375,0.9998779296875
1767708910679910400,8.003910400390625,0.0072174072265625,0.02740478515625,0.9991607666015625
1767708910689910500,8.01391064453125,0.009429931640625,0.0235595703125,1.0069580078125
1767708910699911700,8.02391162109375,0.007354736328125,0.02044677734375,1.010772705078125
1767708910709911600,8.03391162109375,0.002227783203125,0.01666259765625,1.013336181640625
1767708910719911700,8.04391162109375,0.0035552978515625,0.01416015625,1.00640869140625
1767708910729912600,8.05391259765625,0.00872802734375,0.0196990966796875,0.996734619140625
1767708910739912400,8.063912353515626,0.00885009765625,0.025421142578125,1.0038909912109375
1767708910749912600,8.07391259765625,0.0037841796875,0.026458740234375,1.0042724609375
1767708910759912400,8.083912353515625,-0.001800537109375,0.02923583984375,0.996795654296875
1767708910769913300,8.093913330078125,0.0002899169921875,0.0282135009765625,0.9927215576171875
1767708910779913500,8.10391357421875,0.002655029296875,0.0276947021484375,0.99700927734375
1767708910789913300,8.113913330078125,-0.0024871826171875,0.0263671875,1.002593994140625
1767708910799913500,8.12391357421875,-0.0113372802734375,0.027740478515625,0.996612548828125
1767708910809914600,8.13391455078125,-0.0106048583984375,0.03057861328125,0.994140625
1767708910819914500,8.14391455078125,-0.005462646484375,0.0307769775390625,0.995513916015625
1767708910829914600,8.15391455078125,-0.00775146484375,0.03118896484375,1.0032806396484375
1767708910839914500,8.16391455078125,-0.00543212890625,0.029541015625,1.0026397705078125
1767708910849915400,8.173915283203126,0.002105712890625,0.0294342041015625,1.0043182373046875
1767708910859915500,8.18391552734375,0.0053863525390625,0.025970458984375,1.0060577392578125
1767708910869915400,8.193915283203125,0.00042724609375,0.0260162353515625,1.0084991455078125
1767708910879916500,8.20391650390625,-0.0023040771484375,0.0279693603515625,1.01129150390625
1767708910889916400,8.21391650390625,-0.000518798828125,0.0276641845703125,1.0093231201171875
1767708910899916300,8.223916259765625,-0.0070343017578125,0.0246429443359375,1.0014495849609375
1767708910909916400,8.23391650390625,-0.0133514404296875,0.0279541015625,0.996978759765625
1767708910919917600,8.24391748046875,-0.0152740478515625,0.0302581787109375,1.0002899169921875
1767708910929917700,8.253917724609375,-0.01300048828125,0.0276336669921875,1.000640869140625
1767708910939917600,8.26391748046875,-0.005828857421875,0.0286712646484375,0.99774169921875
1767708910949917400,8.27391748046875,-0.00091552734375,0.0306396484375,1.0032958984375
1767708910959918600,8.283918701171874,-0.0032958984375,0.0296173095703125,1.0016632080078125
1767708910969918500,8.29391845703125,-0.005279541015625,0.027984619140625,0.9963531494140625
1767708910979918600,8.303918701171876,-0.0095672607421875,0.030731201171875,0.9985198974609375
1767708910989918500,8.31391845703125,-0.010833740234375,0.0301361083984375,0.998779296875
1767708910999919400,8.32391943359375,-0.0057525634765625,0.0301666259765625,1.0014801025390625
1767708911009919500,8.33391943359375,-0.0061187744140625,0.03192138671875,1.0030975341796875
1767708911019919400,8.34391943359375,-0.0043182373046875,0.0314788818359375,1.00390625
1767708911029919500,8.35391943359375,-0.0057830810546875,0.028564453125,1.00341796875
1767708911039920600,8.363920654296875,-0.0072784423828125,0.0289459228515625,0.9972076416015625
1767708911049920500,8.37392041015625,-0.005401611328125,0.0302886962890625,0.995849609375
1767708911059920600,8.383920654296874,-0.0052337646484375,0.0287322998046875,0.999237060546875
1767708911069920500,8.39392041015625,-0.008514404296875,0.0294952392578125,0.9999847412109375
1767708911079921400,8.40392138671875,-0.0117645263671875,0.0276947021484375,1.0019683837890625
1767708911089921500,8.413921630859376,-0.011505126953125,0.0293121337890625,1.0009613037109375
1767708911099921400,8.42392138671875,-0.007415771484375,0.02874755859375,0.997406005859375
1767708911109922300,8.43392236328125,-0.002532958984375,0.027618408203125,1.0004730224609375
1767708911119922400,8.44392236328125,0.0024261474609375,0.0290985107421875,1.0008392333984375
1767708911129922300,8.45392236328125,-0.0012969970703125,0.026947021484375,1.004241943359375
1767708911139922400,8.46392236328125,0.000823974609375,0.0259246826171875,1.006439208984375
1767708911149923600,8.473923583984375,-0.0053253173828125,0.0266265869140625,1.0040740966796875
1767708911159923500,8.48392333984375,-0.010711669921875,0.0253448486328125,0.99859619140625
1767708911169923600,8.493923583984374,-0.00714111328125,0.0284423828125,0.9987945556640625
1767708911179923500,8.50392333984375,-0.0034637451171875,0.023712158203125,1.0005035400390625
1767708911189924400,8.51392431640625,-0.0034027099609375,0.0228118896484375,0.9984283447265625
1767708911199924500,8.523924560546876,-0.002655029296875,0.02581787109375,0.999176025390625
1767708911209924400,8.53392431640625,-0.0001678466796875,0.025238037109375,0.9998931884765625
1767708911219924500,8.543924560546875,-0.003387451171875,0.0269927978515625,1.0030670166015625
1767708911229925400,8.55392529296875,-0.01068115234375,0.0284881591796875,1.0035400390625
1767708911239925500,8.563925537109375,-0.01171875,0.0291595458984375,1.0014495849609375
1767708911249925400,8.57392529296875,-0.0059814453125,0.0278472900390625,1.001708984375
1767708911259926500,8.583926513671875,-0.006011962890625,0.0265655517578125,0.99932861328125
1767708911269926700,8.5939267578125,-0.008148193359375,0.025787353515625,0.9998321533203125
1767708911279926500,8.603926513671874,-0.0041656494140625,0.02557373046875,1.002166748046875
1767708911289926700,8.6139267578125,0.0027923583984375,0.025665283203125,1.004119873046875
1767708911299927600,8.623927490234376,0.001190185546875,0.0279998779296875,1.0041351318359375
1767708911309927400,8.633927490234376,-0.0056610107421875,0.0279541015625,1.006103515625
1767708911319927600,8.643927490234375,-0.011016845703125,0.0286102294921875,1.0041656494140625
1767708911329927400,8.653927490234375,-0.0133514404296875,0.02752685546875,1.000762939453125
1767708911339928300,8.66392822265625,-0.0106048583984375,0.0265350341796875,0.9997711181640625
1767708911349929000,8.673928955078125,-0.0017852783203125,0.025726318359375,0.9994354248046875
1767708911359928800,8.6839287109375,0.0058746337890625,0.0261383056640625,0.996978759765625
1767708911369929000,8.693928955078125,-0.0001678466796875,0.027496337890625,1.000762939453125
1767708911379929900,8.703929931640625,-0.0097503662109375,0.027252197265625,0.9951629638671875
1767708911389929700,8.7139296875,-0.015380859375,0.02813720703125,0.99346923828125
1767708911399929900,8.723929931640624,-0.01641845703125,0.027618408203125,0.99658203125
1767708911409929700,8.7339296875,-0.0140838623046875,0.0271759033203125,0.9984588623046875
1767708911419930600,8.7439306640625,-0.0078125,0.026641845703125,1.0019378662109375
1767708911429931000,8.753930908203126,-0.0059051513671875,0.027862548828125,1.0030670166015625
1767708911439931000,8.763930908203125,-0.005157470703125,0.0295562744140625,1.0032806396484375
1767708911449931800,8.773931884765625,-0.0041961669921875,0.0288848876953125,1.0028076171875
1767708911459932000,8.783931884765625,-0.0018768310546875,0.0261688232421875,1.003387451171875
1767708911469931800,8.793931884765625,-0.003509521484375,0.0236968994140625,1.0027008056640625
1767708911479932000,8.803931884765625,-0.0077667236328125,0.0249481201171875,1.00152587890625
1767708911489932800,8.813932861328125,-0.0048370361328125,0.023345947265625,1.00274658203125
1767708911499932700,8.8239326171875,0.001312255859375,0.023712158203125,1.00531005859375
1767708911509932800,8.833932861328124,-0.0006256103515625,0.023040771484375,1.006103515625
1767708911519932700,8.8439326171875,-0.0060882568359375,0.0231475830078125,1.005828857421875
1767708911529933800,8.853933837890626,-0.0071258544921875,0.0212860107421875,1.002899169921875
1767708911539934000,8.863933837890626,-0.0113983154296875,0.0211181640625,0.998504638671875
1767708911549933800,8.873933837890625,-0.0130157470703125,0.02410888671875,0.996307373046875
1767708911559934000,8.883933837890625,-0.0117645263671875,0.02532958984375,0.9949188232421875
1767708911569934800,8.893934814453125,-0.0113525390625,0.027130126953125,0.994415283203125
1767708911579934700,8.903934814453125,-0.0076141357421875,0.030303955078125,0.999755859375
1767708911589934800,8.913934814453125,-0.0068511962890625,0.0305633544921875,1.003143310546875
1767708911599935700,8.923935791015625,-0.0066070556640625,0.0292816162109375,1.002960205078125
1767708911609936000,8.933935791015625,-0.00775146484375,0.02667236328125,1.0042266845703125
1767708911619935700,8.943935791015624,-0.0047149658203125,0.0261077880859375,1.0076904296875
1767708911629935600,8.953935546875,-0.0031280517578125,0.0247039794921875,1.005645751953125
1767708911639937000,8.96393701171875,-0.0057830810546875,0.0234222412109375,1.0007171630859375
1767708911649937000,8.97393701171875,-0.0092010498046875,0.0243682861328125,1.0014190673828125
1767708911659937000,8.98393701171875,-0.011810302734375,0.0239410400390625,1.0009918212890625
1767708911669937000,8.99393701171875,-0.0108489990234375,0.0239715576171875,1.000213623046875
1767708911679937800,9.003937744140625,-0.0111083984375,0.0245513916015625,0.9997100830078125
1767708911689938000,9.01393798828125,-0.0091094970703125,0.0242156982421875,0.997314453125
1767708911699937800,9.023937744140625,-0.004852294921875,0.024505615234375,0.9996337890625
1767708911709938000,9.03393798828125,-0.0055084228515625,0.0236968994140625,1.004608154296875
1767708911719938800,9.043938720703125,-0.001708984375,0.0238800048828125,1.007049560546875
1767708911729938700,9.053938720703124,-0.00445556640625,0.0253753662109375,1.005340576171875
1767708911739938800,9.063938720703124,-0.00738525390625,0.0248260498046875,1.0049591064453125
1767708911749940000,9.07393994140625,-0.0083770751953125,0.0245208740234375,1.0043182373046875
1767708911759939800,9.08393994140625,-0.0050811767578125,0.0236053466796875,1.00018310546875
1767708911769940000,9.09393994140625,-0.0070037841796875,0.02410888671875,0.99822998046875
1767708911779939800,9.10393994140625,-0.00775146484375,0.023681640625,0.997894287109375
1767708911789940700,9.113940673828125,-0.0120849609375,0.026397705078125,1.001495361328125
1767708911799940900,9.12394091796875,-0.013824462890625,0.026153564453125,1.0014190673828125
1767708911809940700,9.133940673828125,-0.0112762451171875,0.0269317626953125,1.0029144287109375
1767708911819940900,9.14394091796875,-0.0106048583984375,0.0266265869140625,1.0027618408203125
1767708911829941800,9.153941650390625,-0.01171875,0.0248870849609375,1.00006103515625
1767708911839941600,9.163941650390624,-0.012054443359375,0.0251007080078125,0.9996795654296875
1767708911849941800,9.173941650390624,-0.0118560791015625,0.024200439453125,0.9998626708984375
1767708911859941600,9.183941650390626,-0.0078887939453125,0.0243682861328125,0.9995269775390625
1767708911869942800,9.19394287109375,-0.0088958740234375,0.0264129638671875,0.99871826171875
1767708911879943000,9.20394287109375,-0.011627197265625,0.027191162109375,0.9988250732421875
1767708911889942800,9.21394287109375,-0.0111236572265625,0.02532958984375,0.99981689453125
1767708911899944000,9.22394384765625,-0.0133209228515625,0.0258026123046875,0.9996185302734375
1767708911909943800,9.23394384765625,-0.006317138671875,0.0240020751953125,0.9999542236328125
1767708911919944000,9.24394384765625,-0.001617431640625,0.023193359375,0.9987030029296875
1767708911929943800,9.25394384765625,-0.00469970703125,0.0227813720703125,0.998992919921875
1767708911939944700,9.26394482421875,-0.0082550048828125,0.0232086181640625,0.9998931884765625
1767708911949944800,9.27394482421875,-0.0108795166015625,0.022125244140625,0.9998779296875
1767708911959944700,9.28394482421875,-0.0121307373046875,0.0216522216796875,1.001617431640625
1767708911969944800,9.29394482421875,-0.009979248046875,0.0216522216796875,1.003662109375
1767708911979946000,9.303946044921876,-0.00115966796875,0.0230255126953125,1.006072998046875
1767708911989945900,9.31394580078125,0.0004730224609375,0.024078369140625,1.0055084228515625
1767708911999946000,9.323946044921875,-0.0037841796875,0.022918701171875,1.00482177734375
1767708912009945900,9.33394580078125,-0.007965087890625,0.0198822021484375,0.998565673828125
1767708912019946800,9.34394677734375,-0.01300048828125,0.022064208984375,0.9979095458984375
1767708912029947000,9.35394677734375,-0.011016845703125,0.019256591796875,1.00103759765625
1767708912039946800,9.36394677734375,-0.0091400146484375,0.0228424072265625,1.000732421875
1767708912049947600,9.37394775390625,-0.006500244140625,0.0247802734375,1.00225830078125
1767708912059947800,9.38394775390625,-0.0043792724609375,0.02618408203125,1.0032958984375
1767708912069947600,9.39394775390625,-0.008270263671875,0.025177001953125,1.001983642578125
1767708912079947800,9.40394775390625,-0.0105133056640625,0.023284912109375,1.0013580322265625
1767708912089949000,9.413948974609376,-0.00897216796875,0.0224456787109375,0.999786376953125
1767708912099948800,9.42394873046875,-0.008880615234375,0.0223846435546875,0.996795654296875
1767708912109949000,9.433948974609375,-0.009307861328125,0.0239410400390625,0.9969940185546875
1767708912119948800,9.44394873046875,-0.0030975341796875,0.024169921875,0.9983673095703125
1767708912129949700,9.45394970703125,-0.0010986328125,0.0235595703125,1.002716064453125
1767708912139949800,9.46394970703125,-0.0088653564453125,0.0244140625,1.002471923828125
1767708912149949700,9.47394970703125,-0.009063720703125,0.0263824462890625,0.9987335205078125
1767708912159949800,9.48394970703125,-0.0084381103515625,0.02703857421875,1.0006866455078125
1767708912169950700,9.49395068359375,-0.0074310302734375,0.02642822265625,0.9994659423828125
1767708912179950600,9.50395068359375,-0.0069732666015625,0.0243988037109375,1.0019073486328125
1767708912189950700,9.51395068359375,-0.004058837890625,0.0248870849609375,1.00537109375
1767708912199952000,9.523951904296876,-0.0037994384765625,0.02349853515625,1.0019683837890625
1767708912209952000,9.533951904296876,-0.0009613037109375,0.0239105224609375,1.0027618408203125
1767708912219951900,9.543951904296875,-0.003021240234375,0.0239410400390625,1.0051422119140625
1767708912229951700,9.55395166015625,-0.0070343017578125,0.0234222412109375,1.0043792724609375
1767708912239953000,9.563952880859375,-0.0106964111328125,0.02874755859375,0.9934844970703125
1767708912249952800,9.573952880859375,-0.0068511962890625,0.0255889892578125,0.9983673095703125
1767708912259953000,9.583952880859375,-0.00921630859375,0.0249786376953125,0.9991302490234375
1767708912269952800,9.593952880859375,-0.0051116943359375,0.0279083251953125,1.0036163330078125
1767708912279953700,9.60395361328125,-0.00311279296875,0.0262298583984375,1.0035247802734375
1767708912289953800,9.613953857421874,-0.0009002685546875,0.026763916015625,1.00616455078125
1767708912299953700,9.62395361328125,-0.0033416748046875,0.0244903564453125,1.00244140625
1767708912309954800,9.633954833984374,-0.0067138671875,0.023040771484375,1.0002593994140625
1767708912319955000,9.643954833984376,-0.0069732666015625,0.020751953125,0.997406005859375
1767708912329954800,9.653954833984375,-0.0010528564453125,0.0223236083984375,0.997222900390625
1767708912339955000,9.663954833984375,0.00146484375,0.022369384765625,0.9989166259765625
1767708912349954600,9.67395458984375,-0.0015869140625,0.0240631103515625,1.0005950927734375
1767708912359954700,9.68395458984375,-0.0067138671875,0.0238494873046875,1.0010528564453125
1767708912369954600,9.69395458984375,-0.0087432861328125,0.02606201171875,0.9990692138671875
1767708912379954700,9.70395458984375,-0.00701904296875,0.026214599609375,1.00146484375
1767708912389955600,9.71395556640625,-0.00592041015625,0.0258026123046875,1.0011444091796875
1767708912399955500,9.72395556640625,-0.00457763671875,0.0257110595703125,0.9998016357421875
1767708912409955600,9.73395556640625,-0.0039520263671875,0.025115966796875,1.0002899169921875
1767708912419955500,9.74395556640625,-0.000213623046875,0.0250091552734375,0.9987030029296875
1767708912429956600,9.75395654296875,-0.0010528564453125,0.0229339599609375,1.001373291015625
1767708912439956700,9.763956787109375,-0.004730224609375,0.020965576171875,1.0012359619140625
1767708912449956600,9.77395654296875,-0.0066375732421875,0.022796630859375,1.002471923828125
1767708912459957500,9.78395751953125,-0.00799560546875,0.024017333984375,1.0032806396484375
1767708912469957600,9.79395751953125,-0.0047607421875,0.0254669189453125,1.00091552734375
1767708912479957500,9.80395751953125,0.003509521484375,0.0245361328125,1.00091552734375
1767708912489957600,9.81395751953125,0.0079345703125,0.0231170654296875,1.001800537109375
1767708912499958500,9.82395849609375,0.00653076171875,0.02392578125,1.005279541015625
1767708912509958400,9.83395849609375,0.00054931640625,0.024200439453125,1.0048065185546875
1767708912519958500,9.84395849609375,-0.0041961669921875,0.0233612060546875,1.0048980712890625
1767708912529958400,9.85395849609375,-0.0053558349609375,0.0229339599609375,1.00469970703125
1767708912539959600,9.86395947265625,-0.005889892578125,0.02423095703125,1.00146484375
1767708912549959700,9.873959716796875,-0.0028533935546875,0.024017333984375,0.996368408203125
1767708912559959600,9.88395947265625,-0.003082275390625,0.0223236083984375,0.9950408935546875
1767708912569960700,9.893960693359375,-0.0023040771484375,0.02099609375,0.9944000244140625
1767708912579960600,9.903960693359375,-0.00341796875,0.0174102783203125,0.99755859375
1767708912589960400,9.91396044921875,-0.0106964111328125,0.0176849365234375,1.0017242431640625
1767708912599960600,9.923960693359374,-0.0023345947265625,0.019622802734375,1.0046234130859375
1767708912609961500,9.93396142578125,0.0060882568359375,0.0229339599609375,1.004364013671875
1767708912619961600,9.943961669921874,0.004974365234375,0.0242156982421875,1.002960205078125
1767708912629961500,9.95396142578125,-0.0026092529296875,0.024993896484375,1.003265380859375
1767708912639961600,9.963961669921876,-0.00836181640625,0.0239715576171875,1.004180908203125
1767708912649962800,9.973962646484376,-0.008758544921875,0.02276611328125,1.0014495849609375
1767708912659962600,9.983962646484375,-0.003448486328125,0.022186279296875,1.002655029296875
1767708912669962800,9.993962646484375,0.0006866455078125,0.0222625732421875,1.0016021728515625
1767708912679962600,10.003962646484375,0.0000152587890625,0.0267791748046875,0.9976348876953125
1767708912689963500,10.013963623046875,-0.001373291015625,0.02850341796875,0.9952392578125
1767708912699963600,10.023963623046875,-0.0001068115234375,0.0255889892578125,0.9943389892578125
1767708912709963500,10.033963623046875,-0.0001068115234375,0.025177001953125,0.9940032958984375
1767708912719964400,10.04396435546875,0.00140380859375,0.023406982421875,0.99603271484375
1767708912729964500,10.053964599609374,-0.000457763671875,0.0235137939453125,0.99853515625
1767708912739964400,10.06396435546875,-0.00140380859375,0.022247314453125,1.0047760009765625
1767708912749964500,10.073964599609376,0.002899169921875,0.0210418701171875,1.006622314453125
1767708912759965700,10.083965576171876,0.0058135986328125,0.0203857421875,1.006927490234375
1767708912769965600,10.093965576171875,0.0037994384765625,0.0208892822265625,1.0077667236328125
1767708912779965700,10.103965576171875,0.00494384765625,0.021026611328125,1.0042572021484375
1767708912789965600,10.113965576171875,0.0063323974609375,0.0205230712890625,1.005950927734375
1767708912799966500,10.123966552734375,0.0059051513671875,0.0196533203125,1.0055999755859375
1767708912809966600,10.133966552734375,0.00054931640625,0.020233154296875,1.00384521484375
1767708912819966500,10.143966552734375,-0.0002288818359375,0.0219573974609375,0.998748779296875
1767708912829967600,10.153967529296875,-0.0001678466796875,0.022064208984375,0.998382568359375
1767708912839967500,10.163967529296874,0.0009613037109375,0.0233001708984375,0.99725341796875
1767708912849967400,10.17396728515625,0.005096435546875,0.02569580078125,0.9958038330078125
1767708912859967500,10.183967529296876,0.001678466796875,0.025115966796875,0.99859619140625
1767708912869968600,10.19396875,-0.0014190673828125,0.0257415771484375,1.0008697509765625
1767708912879968800,10.20396875,-0.001739501953125,0.025848388671875,0.9973907470703125
1767708912889968600,10.21396875,-0.0059814453125,0.0283355712890625,1.000091552734375
1767708912899968500,10.223968505859375,0.0058135986328125,0.021392822265625,0.9969482421875
1767708912909969700,10.2339697265625,0.0042572021484375,0.0250244140625,1.0015106201171875
1767708912919969500,10.243969482421875,0.009002685546875,0.021148681640625,0.997344970703125
1767708912929969700,10.2539697265625,0.0104522705078125,0.023345947265625,0.9990997314453125
1767708912939970600,10.263970458984375,0.0074310302734375,0.0212554931640625,0.9997100830078125
1767708912949970400,10.273970458984374,0.007293701171875,0.0226898193359375,1.0028533935546875
1767708912959970600,10.283970458984374,0.005828857421875,0.0195159912109375,1.0056610107421875
1767708912969970400,10.293970458984376,0.0055999755859375,0.0223236083984375,1.00433349609375
1767708912979971600,10.3039716796875,0.0023956298828125,0.018157958984375,0.99951171875
1767708912989971700,10.3139716796875,0.0039520263671875,0.0260772705078125,1.002838134765625
1767708912999971600,10.3239716796875,0.002685546875,0.02490234375,1.0013275146484375
1767708913009971700,10.3339716796875,0.0059051513671875,0.0235443115234375,1.004150390625
1767708913019972600,10.34397265625,0.001556396484375,0.02435302734375,0.9992523193359375
1767708913029972500,10.353972412109375,-0.001373291015625,0.02545166015625,0.99896240234375
1767708913039972600,10.36397265625,-0.0000457763671875,0.023956298828125,0.99920654296875
1767708913049972500,10.373972412109374,0.000518798828125,0.025115966796875,0.999481201171875
1767708913059973400,10.383973388671874,0.004119873046875,0.025390625,0.9979095458984375
1767708913069973500,10.393973388671874,0.00897216796875,0.0235137939453125,0.9997100830078125
1767708913079973400,10.403973388671876,0.007476806640625,0.0222625732421875,0.9994964599609375
1767708913089974500,10.413974609375,0.010833740234375,0.0217132568359375,1.003814697265625
1767708913099974700,10.423974609375,0.0087127685546875,0.0204010009765625,1.0059814453125
1767708913109974500,10.433974609375,0.0039520263671875,0.023223876953125,1.006072998046875
1767708913119974700,10.443974609375,0.004638671875,0.0250396728515625,1.00372314453125
1767708913129975600,10.4539755859375,0.004425048828125,0.0221710205078125,1.0007171630859375
1767708913139975400,10.463975341796875,0.0046234130859375,0.023101806640625,0.9996185302734375
1767708913149975600,10.4739755859375,0.005584716796875,0.0230865478515625,0.99859619140625
1767708913159976400,10.4839765625,0.0070037841796875,0.025299072265625,0.9933929443359375
1767708913169976600,10.4939765625,0.0111846923828125,0.027191162109375,0.992340087890625
1767708913179976400,10.5039765625,0.006561279296875,0.0242919921875,0.999725341796875
1767708913189976600,10.5139765625,0.0034942626953125,0.02288818359375,1.0040283203125
1767708913199977700,10.523977783203126,0.0047149658203125,0.019744873046875,1.0073699951171875
1767708913209977600,10.5339775390625,0.005889892578125,0.0196990966796875,1.009033203125
1767708913219977700,10.543977783203125,0.01226806640625,0.01708984375,1.0083160400390625
1767708913229977600,10.5539775390625,0.0103912353515625,0.0211639404296875,1.00653076171875
1767708913239978500,10.563978515625,0.0052642822265625,0.0234527587890625,1.0051422119140625
1767708913249978600,10.573978515625,0.005889892578125,0.024261474609375,1.00146484375
1767708913259978500,10.583978515625,0.0032806396484375,0.024566650390625,1.0012664794921875
1767708913269979400,10.5939794921875,0.00067138671875,0.0251922607421875,0.9984588623046875
1767708913279979500,10.6039794921875,0.0096588134765625,0.02581787109375,1.0008392333984375
1767708913289979400,10.6139794921875,0.0110321044921875,0.0241241455078125,1.0023345947265625
1767708913299979500,10.6239794921875,0.0087432861328125,0.0212249755859375,1.0022125244140625
1767708913309980700,10.633980712890626,0.0157623291015625,0.020599365234375,0.9993133544921875
1767708913319980500,10.64398046875,0.0059356689453125,0.02069091796875,0.9975738525390625
1767708913329980700,10.653980712890625,0.00640869140625,0.0250091552734375,1.003082275390625
1767708913339980500,10.66398046875,0.0166778564453125,0.021209716796875,0.9998321533203125
1767708913349981400,10.6739814453125,0.01031494140625,0.0263671875,1.0015869140625
1767708913359982000,10.683982177734375,0.006439208984375,0.0251922607421875,1.00518798828125
1767708913369982000,10.69398193359375,0.009765625,0.02410888671875,1.007080078125
1767708913379982000,10.703982177734375,0.0101776123046875,0.0238189697265625,1.002471923828125
1767708913389983200,10.713983154296875,0.0120849609375,0.020965576171875,1.000335693359375
1767708913399983000,10.723983154296874,0.0086517333984375,0.019775390625,1.0011444091796875
1767708913409983200,10.733983154296874,0.0059814453125,0.0190277099609375,0.9997406005859375
1767708913419984100,10.743984130859374,0.00836181640625,0.019683837890625,0.996551513671875
1767708913429984000,10.75398388671875,0.00848388671875,0.0219573974609375,0.9979705810546875
1767708913439984000,10.763984130859376,0.0073394775390625,0.0231781005859375,0.9998626708984375
1767708913449984000,10.77398388671875,0.0049591064453125,0.0233612060546875,0.9967803955078125
1767708913459985000,10.78398486328125,0.0063934326171875,0.0243682861328125,0.99151611328125
1767708913469985000,10.793985107421875,0.01544189453125,0.023345947265625,0.99554443359375
1767708913479985000,10.80398486328125,0.0178680419921875,0.0213775634765625,0.9988555908203125
1767708913489986300,10.813986328125,0.015350341796875,0.0205230712890625,1.00079345703125
1767708913499986200,10.823986083984375,0.0052032470703125,0.022979736328125,0.9980316162109375
1767708913509986000,10.833986083984374,-0.002471923828125,0.0251922607421875,0.9965057373046875
1767708913519986200,10.843986083984374,0.0083160400390625,0.0237884521484375,0.9996490478515625
1767708913529987000,10.853987060546874,0.0079193115234375,0.025115966796875,1.00079345703125
1767708913539987200,10.8639873046875,0.0070953369140625,0.026824951171875,1.0001678466796875
1767708913549987000,10.873987060546876,0.0095367431640625,0.0243682861328125,0.9986572265625
1767708913559987000,10.883987060546875,0.0106353759765625,0.02349853515625,1.000396728515625
1767708913569988000,10.893988037109375,0.0100555419921875,0.0234832763671875,1.00323486328125
1767708913579988000,10.903988037109375,0.013092041015625,0.0223236083984375,1.00360107421875
1767708913589988000,10.913988037109375,0.014678955078125,0.019989013671875,1.0048065185546875
1767708913599989200,10.9239892578125,0.009765625,0.0220184326171875,1.005035400390625
1767708913609989000,10.933989013671875,0.00384521484375,0.0237579345703125,1.0041351318359375
1767708913619989200,10.9439892578125,0.0019989013671875,0.0242462158203125,1.001190185546875
1767708913629989000,10.953989013671874,0.0016937255859375,0.024505615234375,1.0018463134765625
1767708913639990000,10.963989990234374,0.0056610107421875,0.02227783203125,1.0040740966796875
1767708913649990100,10.973990234375,0.00946044921875,0.02142333984375,1.0019989013671875
1767708913659990000,10.983989990234376,0.0080718994140625,0.0229644775390625,0.99993896484375
1767708913669990100,10.993990234375,0.004638671875,0.024444580078125,0.999053955078125
1767708913679991000,11.003990966796875,0.00628662109375,0.025299072265625,1.0005645751953125
1767708913689991000,11.013990966796875,0.008880615234375,0.0229339599609375,1.004150390625
1767708913699991000,11.023990966796875,0.010833740234375,0.021514892578125,1.0006561279296875
1767708913709992200,11.0339921875,0.0054931640625,0.0267486572265625,1.001556396484375
1767708913719992000,11.043991943359375,0.006378173828125,0.025726318359375,0.9990692138671875
1767708913729992200,11.0539921875,0.0064239501953125,0.0266876220703125,0.9987640380859375
1767708913739992000,11.063991943359374,0.0033721923828125,0.0258026123046875,0.9994659423828125
1767708913749993000,11.073992919921874,0.0077056884765625,0.021881103515625,1.005401611328125
1767708913759993000,11.0839931640625,0.009490966796875,0.019134521484375,1.0027008056640625
1767708913769993000,11.093992919921876,0.0086517333984375,0.024749755859375,1.0037689208984375
1767708913779993000,11.1039931640625,0.01080322265625,0.02288818359375,0.9994354248046875
1767708913789994000,11.113993896484375,0.006103515625,0.022857666015625,0.99853515625
1767708913799994000,11.123994140625,0.004241943359375,0.0206298828125,1.0021209716796875
1767708913809994000,11.133993896484375,0.0054168701171875,0.018890380859375,1.00408935546875
1767708913819995100,11.1439951171875,0.0125885009765625,0.0179901123046875,1.0061798095703125
1767708913829995300,11.153995361328125,0.0165252685546875,0.0196533203125,1.0046539306640625
1767708913839995100,11.1639951171875,0.009857177734375,0.0229034423828125,1.002655029296875
1767708913849995300,11.173995361328124,0.0057373046875,0.025482177734375,1.0000457763671875
1767708913859996200,11.18399609375,0.0022125244140625,0.0267486572265625,1.001007080078125
1767708913869996000,11.19399609375,-0.00238037109375,0.0264892578125,1.0015869140625
1767708913879996200,11.20399609375,-0.000579833984375,0.0268096923828125,1.00439453125
1767708913889996000,11.21399609375,0.0028839111328125,0.0256195068359375,1.0020294189453125
1767708913899997000,11.223996826171875,0.004150390625,0.02728271484375,0.998016357421875
1767708913909997000,11.2339970703125,0.00262451171875,0.0245819091796875,0.9982147216796875
1767708913919997000,11.243996826171875,0.0065155029296875,0.0227813720703125,0.997100830078125
1767708913929998000,11.253998046875,0.00518798828125,0.02117919921875,0.995697021484375
1767708913939998200,11.263998291015625,0.00152587890625,0.0216217041015625,1.0010833740234375
1767708913949998000,11.273998046875,0.0059051513671875,0.0203399658203125,1.0037994384765625
1767708913959998200,11.283998291015624,0.0092620849609375,0.0193939208984375,1.0038909912109375
1767708913969999000,11.2939990234375,0.005096435546875,0.021209716796875,1.0042724609375
1767708913979999000,11.3039990234375,0.0093231201171875,0.0193023681640625,1.005340576171875
1767708913989999000,11.3139990234375,0.0058441162109375,0.0228729248046875,1.0034942626953125
1767708914000000000,11.324,0.000885009765625,0.026092529296875,1.000213623046875
1767708914010000000,11.333999755859375,0.003631591796875,0.0259246826171875,0.9994964599609375
1767708914020000000,11.344,0.004180908203125,0.0256805419921875,1.000030517578125
1767708914029999900,11.353999755859375,0.0021209716796875,0.023590087890625,0.9981536865234375
1767708914040001300,11.364001220703125,0.0030670166015625,0.0240936279296875,0.9988861083984375
1767708914050001200,11.374001220703125,0.008758544921875,0.022216796875,0.99853515625
1767708914060001000,11.3840009765625,0.00494384765625,0.0234375,0.99859619140625
1767708914070001200,11.394001220703124,0.0029754638671875,0.02398681640625,1.0005645751953125
1767708914080002000,11.404001953125,0.0043792724609375,0.0242919921875,1.001495361328125
1767708914090002200,11.414002197265624,0.0058746337890625,0.0257568359375,1.0023345947265625
1767708914100002000,11.424001953125,0.004119873046875,0.02581787109375,1.0036163330078125
1767708914110003000,11.4340029296875,0.0036163330078125,0.0251922607421875,1.002166748046875
1767708914120003000,11.444003173828126,0.0060272216796875,0.025482177734375,1.0010223388671875
1767708914130003000,11.4540029296875,0.0080413818359375,0.0248870849609375,0.9987030029296875
1767708914140003000,11.464003173828125,0.008331298828125,0.0244293212890625,1.0001983642578125
1767708914150004200,11.474004150390625,0.00567626953125,0.0232086181640625,1.000030517578125
1767708914160004000,11.484004150390625,0.005462646484375,0.0232696533203125,0.9990386962890625
1767708914170004200,11.494004150390625,0.004730224609375,0.0243377685546875,0.999664306640625
1767708914180004000,11.504004150390625,0.0040435791015625,0.0256805419921875,1.000030517578125
1767708914190005000,11.5140048828125,0.0028839111328125,0.025665283203125,1.0013580322265625
1767708914200005000,11.524005126953124,0.0032196044921875,0.024322509765625,1.0020751953125
1767708914210005000,11.5340048828125,0.0046539306640625,0.0229949951171875,1.0042266845703125
1767708914220006000,11.544005859375,0.0094757080078125,0.0233612060546875,1.0037384033203125
1767708914230006000,11.554006103515626,0.006072998046875,0.0218963623046875,1.00115966796875
1767708914240006000,11.564005859375,0.004730224609375,0.021575927734375,1.001739501953125
1767708914250006000,11.574006103515625,0.002685546875,0.02130126953125,0.9996490478515625
1767708914260007200,11.584007080078125,0.0015411376953125,0.0223541259765625,0.999237060546875
1767708914270007000,11.594007080078125,0.0025482177734375,0.021942138671875,0.999359130859375
1767708914280007200,11.604007080078125,0.0030670166015625,0.0221405029296875,0.9984130859375
1767708914290008000,11.614008056640625,0.00469970703125,0.023345947265625,0.999755859375
1767708914300008000,11.624008056640625,0.005523681640625,0.0252227783203125,1.0000457763671875
1767708914310008000,11.634008056640624,0.006439208984375,0.0255279541015625,0.998992919921875
1767708914320008000,11.644008056640626,0.0078887939453125,0.02569580078125,0.9990081787109375
1767708914330009000,11.654009033203126,0.008880615234375,0.028228759765625,0.998077392578125
1767708914340009000,11.664009033203126,0.010650634765625,0.025726318359375,0.998687744140625
1767708914350009000,11.674009033203125,0.0019378662109375,0.02001953125,1.0009918212890625
1767708914360008700,11.6840087890625,0.0040740966796875,0.0207672119140625,0.99957275390625
1767708914370009600,11.694009521484375,0.0078277587890625,0.025360107421875,1.001800537109375
1767708914380009700,11.704009765625,0.0107421875,0.0217132568359375,0.999542236328125
1767708914390009600,11.714009521484375,0.0097198486328125,0.02569580078125,0.9972686767578125
1767708914400010500,11.724010498046875,0.004608154296875,0.0269012451171875,0.999603271484375
1767708914410010600,11.7340107421875,0.0009307861328125,0.0215911865234375,1.009490966796875
1767708914420010500,11.744010498046874,-0.0004425048828125,0.0225982666015625,1.007843017578125
1767708914430010600,11.7540107421875,0.019012451171875,0.023529052734375,1.0028839111328125
1767708914440011500,11.764011474609376,0.02386474609375,0.0245208740234375,1.0098114013671875
1767708914450011400,11.774011474609376,0.0084228515625,0.0283050537109375,1.0024261474609375
1767708914460011800,11.78401171875,-0.000946044921875,0.02752685546875,0.99725341796875
1767708914470011600,11.79401171875,-0.00518798828125,0.0261993408203125,0.9970855712890625
1767708914480012500,11.804012451171875,-0.004241943359375,0.0266265869140625,0.9974517822265625
1767708914490012700,11.8140126953125,0.0022430419921875,0.02716064453125,1.00042724609375
1767708914500012500,11.824012451171875,0.00823974609375,0.0267486572265625,1.0006561279296875
1767708914510013700,11.834013671875,0.0113067626953125,0.023345947265625,0.999603271484375
1767708914520013600,11.844013671875,0.005584716796875,0.02386474609375,1.000732421875
1767708914530013400,11.854013427734374,0.007049560546875,0.0211639404296875,1.0029144287109375
1767708914540013600,11.864013671875,0.0074462890625,0.0218658447265625,1.00201416015625
1767708914550014500,11.874014404296876,0.0059356689453125,0.0226593017578125,1.0009613037109375
1767708914560014800,11.884014892578126,0.003326416015625,0.0228271484375,0.99969482421875
1767708914570014700,11.8940146484375,0.0029144287109375,0.0228271484375,0.99981689453125
1767708914580015600,11.904015625,0.00616455078125,0.0221099853515625,1.0012664794921875
1767708914590015700,11.914015625,0.00830078125,0.019775390625,1.0030059814453125
1767708914600015600,11.924015625,0.003204345703125,0.0205535888671875,1.0009002685546875
1767708914610015700,11.934015625,0.0059661865234375,0.0196685791015625,0.999298095703125
1767708914620016600,11.9440166015625,0.012603759765625,0.0199127197265625,1.0035858154296875
1767708914630016500,11.9540166015625,0.0089874267578125,0.020477294921875,1.0062255859375
1767708914640016600,11.9640166015625,0.0091552734375,0.0177001953125,1.002777099609375
1767708914650016500,11.9740166015625,0.014068603515625,0.020233154296875,1.0054168701171875
1767708914660017400,11.984017333984376,0.0101318359375,0.02130126953125,1.003631591796875
1767708914670017800,11.994017822265626,0.007537841796875,0.021331787109375,1.00164794921875
1767708914680017700,12.004017578125,0.007720947265625,0.02032470703125,1.0028076171875
1767708914690018600,12.0140185546875,0.0089111328125,0.020294189453125,1.0005340576171875
1767708914700018700,12.024018798828125,0.0082550048828125,0.0181427001953125,0.9984130859375
1767708914710018600,12.0340185546875,0.0092926025390625,0.0220184326171875,1.002227783203125
1767708914720018700,12.044018798828125,0.00634765625,0.0251007080078125,0.996063232421875
1767708914730019600,12.05401953125,0.0048980712890625,0.024688720703125,0.9955902099609375
1767708914740019500,12.06401953125,0.006591796875,0.0243682861328125,0.9974822998046875
1767708914750019600,12.07401953125,0.0081939697265625,0.0232696533203125,0.9992218017578125
1767708914760019500,12.08401953125,0.0073394775390625,0.02239990234375,1.0003204345703125
1767708914770020600,12.0940205078125,0.0061492919921875,0.0238037109375,1.0015716552734375
1767708914780020700,12.104020751953126,0.0071258544921875,0.0244293212890625,1.0035858154296875
1767708914790020600,12.1140205078125,0.00799560546875,0.0238494873046875,1.0048675537109375
1767708914800021800,12.124021728515626,0.00531005859375,0.0236358642578125,0.9991302490234375
1767708914810021600,12.134021728515625,0.007965087890625,0.0230255126953125,0.9972686767578125
1767708914820021500,12.144021484375,0.0149993896484375,0.0203399658203125,0.9941864013671875
1767708914830021600,12.154021728515625,0.0081024169921875,0.020599365234375,1.0023040771484375
1767708914840022500,12.1640224609375,0.0065765380859375,0.019989013671875,1.0027618408203125
1767708914850022700,12.174022705078125,0.009979248046875,0.0222015380859375,0.999786376953125
1767708914860022500,12.1840224609375,0.0057373046875,0.0225677490234375,1.0069427490234375
1767708914870023400,12.1940234375,0.0054473876953125,0.02789306640625,1.0072479248046875
1767708914880023800,12.20402392578125,0.0093231201171875,0.0284271240234375,1.002655029296875
1767708914890023700,12.214023681640626,0.00701904296875,0.03009033203125,1.0037994384765625
1767708914900023800,12.22402392578125,0.0004730224609375,0.03076171875,1.00213623046875
1767708914910024700,12.234024658203126,-0.0035400390625,0.0313262939453125,1.00244140625
1767708914920024600,12.244024658203125,0.001190185546875,0.03216552734375,1.0007171630859375
1767708914930024700,12.254024658203125,0.0098724365234375,0.030517578125,1.001922607421875
1767708914940025600,12.264025634765625,0.01043701171875,0.0293121337890625,1.00360107421875
1767708914950025500,12.274025390625,0.0080108642578125,0.0291900634765625,1.0004730224609375
1767708914960025600,12.284025634765625,0.01043701171875,0.0256805419921875,1.00164794921875
1767708914970025500,12.294025390625,0.009307861328125,0.0241241455078125,0.9997711181640625
1767708914980026600,12.304026611328124,0.0108184814453125,0.0220947265625,0.999298095703125
1767708914990026800,12.31402685546875,0.013641357421875,0.0207061767578125,1.0009613037109375
1767708915000026600,12.324026611328126,0.014129638671875,0.0220489501953125,0.9989776611328125
1767708915010026800,12.33402685546875,0.0079498291015625,0.022216796875,0.997528076171875
1767708915020027600,12.344027587890626,0.0055389404296875,0.020355224609375,0.9987945556640625
1767708915030027500,12.354027587890625,0.0037384033203125,0.0202789306640625,0.999298095703125
1767708915040027600,12.364027587890625,-0.000823974609375,0.0211181640625,1.0008087158203125
1767708915050028500,12.374028564453125,0.0084686279296875,0.0206451416015625,1.002227783203125
1767708915060028700,12.384028564453125,0.01568603515625,0.0239715576171875,1.0038299560546875
1767708915070028500,12.394028564453125,0.01434326171875,0.025970458984375,1.0034027099609375
1767708915080028400,12.4040283203125,0.0073089599609375,0.0267333984375,1.0047607421875
1767708915090029800,12.41402978515625,0.0033721923828125,0.0278778076171875,1.0055389404296875
1767708915100029700,12.42402978515625,0.005584716796875,0.025909423828125,1.0063018798828125
1767708915110029800,12.43402978515625,0.0074005126953125,0.0224609375,1.005615234375
1767708915120029700,12.44402978515625,0.001678466796875,0.0234222412109375,1.000244140625
1767708915130030600,12.454030517578126,0.0025482177734375,0.024169921875,0.993072509765625
1767708915140030700,12.46403076171875,0.0042572021484375,0.0218353271484375,0.9926605224609375
1767708915150030600,12.474030517578125,0.005279541015625,0.023529052734375,0.9961090087890625
1767708915160031500,12.484031494140625,0.007568359375,0.022247314453125,0.9958953857421875
1767708915170031600,12.494031494140625,0.0072479248046875,0.023193359375,0.9976348876953125
1767708915180031500,12.504031494140625,0.0064239501953125,0.023956298828125,0.9996795654296875
1767708915190031600,12.514031494140625,0.005767822265625,0.0233154296875,0.9984588623046875
1767708915200032800,12.52403271484375,0.00946044921875,0.0218963623046875,1.00439453125
1767708915210032600,12.53403271484375,0.0135345458984375,0.0223236083984375,1.0073699951171875
1767708915220032800,12.54403271484375,0.0098419189453125,0.0226898193359375,1.0061187744140625
1767708915230033700,12.55403369140625,0.011993408203125,0.02374267578125,1.0052490234375
1767708915240033500,12.564033447265626,0.009857177734375,0.02288818359375,1.0051422119140625
1767708915250033700,12.57403369140625,0.0055999755859375,0.0223541259765625,1.00494384765625
1767708915260033500,12.584033447265625,0.00823974609375,0.020294189453125,1.0053863525390625
1767708915270034400,12.594034423828125,0.00872802734375,0.0203094482421875,1.0013580322265625
1767708915280034600,12.60403466796875,0.0048980712890625,0.019622802734375,0.99725341796875
1767708915290034400,12.614034423828125,0.0030059814453125,0.0194091796875,0.9973907470703125
1767708915300034600,12.62403466796875,0.00006103515625,0.0212249755859375,0.995635986328125
1767708915310035700,12.63403564453125,-0.004302978515625,0.02581787109375,0.9951171875
1767708915320035600,12.64403564453125,0.017486572265625,0.0283203125,0.998321533203125
1767708915330035700,12.65403564453125,0.0162506103515625,0.0228118896484375,0.99945068359375
1767708915340036600,12.66403662109375,0.008148193359375,0.0240936279296875,1.00567626953125
1767708915350036700,12.67403662109375,0.006195068359375,0.020782470703125,1.0044708251953125
1767708915360037400,12.684037353515626,0.002471923828125,0.0207366943359375,1.003265380859375
1767708915370037500,12.69403759765625,0.001983642578125,0.022979736328125,1.0008087158203125
1767708915380038400,12.704038330078125,0.0078277587890625,0.0245361328125,1.0023193359375
1767708915390038500,12.71403857421875,0.006500244140625,0.02630615234375,1.0025787353515625
1767708915400038400,12.724038330078125,0.00469970703125,0.02716064453125,1.002838134765625
1767708915410039600,12.73403955078125,0.010101318359375,0.0262451171875,1.0038909912109375
1767708915420039400,12.744039306640625,0.011993408203125,0.0244903564453125,1.0044403076171875
1767708915430039300,12.754039306640625,0.007720947265625,0.0227203369140625,1.0027923583984375
1767708915440039400,12.764039306640624,0.007568359375,0.0241851806640625,1.0034942626953125
1767708915450040300,12.774040283203124,0.004913330078125,0.0235595703125,1.0030517578125
1767708915460040400,12.78404052734375,0.0013427734375,0.0252838134765625,0.9976959228515625
1767708915470040300,12.794040283203126,0.007476806640625,0.025238037109375,0.9984283447265625
1767708915480040400,12.80404052734375,0.0094451904296875,0.0237274169921875,0.997650146484375
1767708915490041600,12.81404150390625,0.005462646484375,0.025146484375,0.9957122802734375
1767708915500041500,12.82404150390625,0.00213623046875,0.021759033203125,0.994842529296875
1767708915510041600,12.83404150390625,0.004791259765625,0.022552490234375,0.998870849609375
1767708915520042500,12.84404248046875,0.0051422119140625,0.02362060546875,0.99969482421875
1767708915530042400,12.85404248046875,0.0090789794921875,0.0242156982421875,1.0025634765625
1767708915540042500,12.86404248046875,0.008331298828125,0.0251617431640625,1.0041046142578125
1767708915550042400,12.87404248046875,0.0059814453125,0.02557373046875,0.99859619140625
1767708915560043300,12.884043212890624,0.0065765380859375,0.0266265869140625,1.0002593994140625
1767708915570043400,12.89404345703125,0.0043487548828125,0.0276031494140625,0.99908447265625
1767708915580043500,12.90404345703125,0.00933837890625,0.0254974365234375,1.00018310546875
1767708915590044400,12.91404443359375,0.0089263916015625,0.023468017578125,1.0019683837890625
1767708915600044500,12.92404443359375,0.0039825439453125,0.0225982666015625,1.0043487548828125
1767708915610044400,12.93404443359375,0.0091552734375,0.020599365234375,1.00482177734375
1767708915620044500,12.94404443359375,0.00799560546875,0.0244140625,1.001983642578125
1767708915630045400,12.95404541015625,0.006500244140625,0.026458740234375,0.998626708984375
1767708915640045300,12.96404541015625,0.00872802734375,0.02642822265625,0.9993438720703125
1767708915650045400,12.97404541015625,0.00537109375,0.027618408203125,0.9980621337890625
1767708915660045300,12.98404541015625,0.00286865234375,0.0248260498046875,1.001556396484375
1767708915670046200,12.994046142578124,0.005279541015625,0.0197601318359375,1.0018310546875
1767708915680046600,13.004046630859374,0.01239013671875,0.0179901123046875,1.0032501220703125
1767708915690046500,13.01404638671875,0.016326904296875,0.019775390625,1.00140380859375
1767708915700047600,13.024047607421876,0.015350341796875,0.02191162109375,0.9986724853515625
1767708915710047500,13.034047607421876,0.009429931640625,0.023345947265625,0.9982147216796875
1767708915720047400,13.04404736328125,0.000762939453125,0.0236968994140625,1.00274658203125
1767708915730047500,13.054047607421875,-0.0030059814453125,0.02667236328125,0.9978179931640625
1767708915740048400,13.06404833984375,0.0035552978515625,0.0242767333984375,1.0027618408203125
1767708915750048500,13.074048583984375,0.007904052734375,0.026123046875,1.00537109375
1767708915760048400,13.08404833984375,0.0099639892578125,0.0281219482421875,1.005706787109375
