time,seconds_elapsed,z,y,x
1767708902727220700,0.051220703125,-0.0037672344458755105,-0.0009129866590723395,-0.0029278701454401013
1767708902737220900,0.061220947265625,0.007290741530060768,-0.03718756574965082,-0.0010036240845918655
1767708902747221800,0.0712216796875,0.006498138980800285,-0.036332282360875975,-0.0010182371318340302
1767708902757221600,0.0812216796875,0.04726970983021892,-0.031009059777809305,0.057474868369102476
1767708902767221800,0.0912216796875,-0.030003508597612378,-0.037571477900166066,0.0668850862711668
1767708902777221600,0.1012216796875,-0.06462182664745487,-0.013880239455588162,0.04173135579228401
1767708902787221800,0.1112216796875,-0.06429917056434788,-0.011933032644260674,0.04171615822315216
1767708902797222700,0.12122265625,-0.04225684097111225,0.02752428640197031,0.0066845923304557795
1767708902807222800,0.131222900390625,0.010897826111316681,0.020896456626895814,0.005316811108589172
1767708902817223000,0.141222900390625,0.009750409641861916,0.0046361079685855655,0.01770925969183445
1767708902827222800,0.151222900390625,0.010536007061600685,0.02134364327196963,0.011846505138278007
1767708902837223700,0.1612236328125,0.06674597006142138,0.007312825497705489,0.015866262173652647
1767708902847223800,0.171223876953125,0.05325813659005798,0.018143207829422317,0.0011836568266153334
1767708902857223700,0.1812236328125,-0.03704758189022541,0.00035046197206247597,-0.04716799388825893
1767708902867223800,0.191223876953125,-0.04483224441707134,0.014576085365796462,-0.029831074640154838
1767708902877223700,0.2012236328125,0.025084761462477033,-0.008663281125435605,0.000678045392036438
1767708902887224600,0.211224609375,0.034869068807363506,-0.007864847057010047,0.014282207852602005
1767708902897224700,0.221224609375,0.009067692641285248,0.006901445384952239,0.020853987458348273
1767708902907224600,0.231224609375,0.001613280415534973,0.017187318176962434,0.012312369084358215
1767708902917224700,0.241224609375,-0.014709488787385634,0.04881524050547741,0.0003267477363348007
1767708902927224600,0.251224609375,-0.02835046699384693,0.04258344257697463,-0.0002881692916154861
1767708902937225700,0.261225830078125,-0.00976326912343502,0.03298958890342619,0.0023889409631490705
1767708902947225900,0.271225830078125,-0.04060673567652702,0.0596117844996741,0.0025210429102182387
1767708902957225700,0.281225830078125,-0.05873158586535137,0.025227298038592562,-0.0160556472659111
1767708902967225900,0.291225830078125,-0.048166348142689094,0.016192133127152918,-0.037924949246644975
1767708902977226800,0.301226806640625,-0.030299281240371054,0.037567596309492364,-0.05604746591448784
1767708902987226600,0.3112265625,-0.0020025719940662385,0.03792536480517592,-0.1052928505986929
1767708902997226800,0.321226806640625,0.040838790866732595,0.014733586615603417,-0.07059504670500755
1767708903007226600,0.3312265625,0.039486211780575105,-0.011487421468342654,0.023208441630005835
1767708903017226800,0.341226806640625,0.008507716104388236,-0.01634573451997712,0.07675883003175259
1767708903027227600,0.3512275390625,-0.05856850882470607,0.009856756093166767,0.10337737236618995
1767708903037227500,0.3612275390625,0.0014992963637574575,0.011524410744174382,0.08720423620045184
1767708903047227600,0.3712275390625,-0.0032721535384654995,0.011015132348053156,0.08719546837210655
1767708903057227800,0.381227783203125,0.018463290646241512,0.03450342296590097,0.0870411545932293
1767708903067228700,0.391228759765625,-0.10425649328827857,0.07462945332024246,0.05711012670993804
1767708903077228800,0.401228759765625,-0.10438917975723742,0.08966839782427996,0.012215922972559929
1767708903087228700,0.411228759765625,-0.09731763393580913,0.09021690768566913,-0.04360065679550171
1767708903097228800,0.421228759765625,-0.10155074146091937,0.0898886895114556,-0.04360124131739139
1767708903107228700,0.431228759765625,0.007970540487766265,0.06162140272245742,-0.041356092739105225
1767708903117229800,0.441229736328125,0.06632219169139862,0.020660113420640117,-0.03821019592881202
1767708903127229700,0.451229736328125,0.046945291048288346,-0.004317374575347639,-0.01381225225329399
1767708903137229600,0.4612294921875,0.030478140372037887,-0.03298686265680007,0.014630582898855209
1767708903147229700,0.471229736328125,0.024283379668428095,-0.033432295736204834,0.014648118555545805
1767708903157230600,0.481230712890625,0.008157587492465972,0.04330075140031986,0.07212590953409671
1767708903167230700,0.491230712890625,-0.05335982969913166,0.09605438166749664,0.11777765364050864
1767708903177230800,0.50123095703125,-0.10347440299987792,0.0925387199630495,0.10476385828852652
1767708903187230700,0.511230712890625,-0.10758943710327148,0.09520021252357401,0.10476210472285746
1767708903197230800,0.52123095703125,-0.09705050743222236,0.04441869518011808,0.07513093656897545
1767708903207231700,0.531231689453125,0.07464695244431495,-0.02580972386931535,-0.025275895553827286
1767708903217232000,0.54123193359375,0.08606617208123206,0.04472518101313617,-0.046070261779427524
1767708903227231700,0.551231689453125,0.03759294994645752,0.029444701104494743,-0.045759296134114266
1767708903237231600,0.561231689453125,-0.06321837132400833,0.002678790755197406,-0.01925415104627609
1767708903247231700,0.571231689453125,-0.0705435996455606,0.005479956647893414,-0.019219079732894898
1767708903257232600,0.581232666015625,-0.15922960796952246,-0.019509541446296498,-0.01033142440021038
1767708903267232800,0.591232666015625,-0.1819675094783306,0.045778608189360234,0.04915712187886238
1767708903277232600,0.601232666015625,-0.005158990198373794,0.03642321661391761,0.0410042105615139
1767708903287232500,0.611232421875,0.19444705182313918,0.006580892210674937,0.013961889857053756
1767708903297234000,0.62123388671875,0.2966355066657066,-0.026872715741617138,-0.014478607207536697
1767708903307233800,0.63123388671875,0.249517178871762,-0.003378141513455193,-0.012416413980722426
1767708903317234000,0.64123388671875,0.009814113394683226,0.08733971741469576,-0.036678748577833174
1767708903327233800,0.65123388671875,-0.0994715970993042,0.04817527123466134,0.016721417698264122
1767708903337233700,0.661233642578125,-0.12281973946094513,0.03819822692980524,0.028830373165011403
1767708903347235000,0.671235107421875,-0.15434651210308073,0.03159904557719128,0.00429039067029953
1767708903357235000,0.68123486328125,-0.07805120792984963,0.015840586592990438,0.03302373320162296
1767708903367235000,0.691235107421875,0.02232406914406456,0.03682121665528975,0.0660877984136343
1767708903377235000,0.70123486328125,0.1554161871612072,0.03063439037967473,0.13145955751240251
1767708903387235800,0.71123583984375,0.1498994695663452,0.01712229924988933,0.09582534955143927
1767708903397236000,0.721236083984375,0.19318565358519554,-0.013476955884322524,0.041185996869206425
1767708903407235800,0.73123583984375,0.20713702204823492,-0.05459859141358174,0.021110592567920684
1767708903417236000,0.741236083984375,0.11111994931697845,-0.052079292935878034,-0.0006131634622812271
1767708903427235800,0.75123583984375,0.06358196220570243,-0.0678441496948246,0.005049100083112716
1767708903437236700,0.76123681640625,0.03472527642250061,-0.05712389950696379,-0.003950198930501938
1767708903447236900,0.77123681640625,0.01215571721792221,-0.10058565928842872,-0.06786065330505371
1767708903457236700,0.78123681640625,-0.07586393615179694,-0.02247065399092389,-0.1043733976662159
1767708903467236900,0.79123681640625,-0.10649872839027084,0.04048407284466084,-0.1285971538186073
1767708903477238000,0.801238037109375,-0.07930208477377891,0.03373618318676017,-0.11076105287671088
1767708903487238000,0.81123779296875,0.009548749589920044,0.0190066334254574,-0.02334112809896469
1767708903497238000,0.821238037109375,0.0068096800148487084,0.0180551733529428,-0.02331365557014942
1767708903507238000,0.83123779296875,-0.06074819095134735,0.04094988655839115,0.12231354350447654
1767708903517238000,0.841238037109375,-0.04830839609503746,0.046464667924493545,0.1328197399497032
1767708903527239000,0.851239013671875,0.012280804902315139,0.05643473906586877,0.14407237084805966
1767708903537238800,0.86123876953125,0.007695824332768097,0.05629904322249349,0.08887012358605861
1767708903547239000,0.871239013671875,0.007944821524620055,0.05592229146512691,0.08886895454227924
1767708903557238800,0.88123876953125,0.022757784386212006,0.02400713142675813,0.04500935454964637
1767708903567239000,0.891239013671875,-0.009373393023014069,0.0008601741930237039,0.06353811393082141
1767708903577239800,0.90123974609375,-0.066793316334486,-0.0010069942186120898,0.05272738158106804
1767708903587239700,0.91123974609375,-0.12138532274365424,0.012075053197145462,0.033984687188267707
1767708903597240000,0.921239990234375,-0.11806173127889633,0.012851964986929669,0.033952538484334945
1767708903607240000,0.931239990234375,-0.09202011204957962,0.010980640989984384,-0.025631869384646414
1767708903617240800,0.94124072265625,-0.1114706624507904,0.01729054565599654,-0.044514849030971526
1767708903627241000,0.951240966796875,-0.1044423712491989,0.012913801009650342,-0.011620295166969299
1767708903637240800,0.96124072265625,-0.04768646480441093,-0.03932363706342876,-0.0014689035087823868
1767708903647241000,0.971240966796875,-0.044061250911420206,-0.0389069003555458,-0.0014952069938182829
1767708903657240800,0.98124072265625,-0.08191489762067794,-0.034118962826114145,0.0014735796838998795
1767708903667241700,0.99124169921875,-0.07261983509745915,-0.010920019676815718,0.06459785211682319
1767708903677241900,1.001241943359375,-0.12680617874860764,-0.000624214579258114,0.05754091934263706
1767708903687241700,1.01124169921875,-0.10236614949703216,-0.007584331348887644,0.025495091262459753
1767708903697241900,1.021241943359375,-0.09616086511611938,-0.009451463227905332,0.025474632996320724
1767708903707243000,1.031242919921875,-0.04277296923312824,-0.0008194540235679596,0.061521513411402697
1767708903717243000,1.041242919921875,-0.0862871213555336,-0.0026458565999753774,0.020209844335913656
1767708903727243000,1.051242919921875,-0.07997896112203598,-0.004954992058873176,0.020204583638906478
1767708903737243000,1.061242919921875,-0.14100538449287414,0.016001642923196776,0.010475801306962967
1767708903747243000,1.071242919921875,-0.1425403389751911,0.037856464287429115,0.0076338558793067925
1767708903757244000,1.081243896484375,-0.15974398723244665,0.014753017401858233,-0.013908698365092276
1767708903767243800,1.091243896484375,-0.15345219361186027,0.0201595023881644,-0.025870938837528227
1767708903777244000,1.101243896484375,-0.17738602690696714,0.02544678144159261,-0.016278934627771375
1767708903787243800,1.111243896484375,-0.19272095868289468,0.040674996873456985,-0.014161211821436882
1767708903797244700,1.12124462890625,-0.188846747598052,0.030925445748120544,-0.040915947756171224
1767708903807244800,1.131244873046875,-0.17810849596261977,0.020542295727250165,0.015083587363362311
1767708903817244700,1.14124462890625,-0.1675900245577097,0.006793865957786329,0.0719867933243513
1767708903827244800,1.151244873046875,-0.19087679212093353,0.005207313718972728,0.060659928146004675
1767708903837244700,1.16124462890625,-0.08265081067979335,0.04515058051808737,0.006841244196891784
1767708903847245800,1.171245849609375,0.07890285632312298,0.024298785016825423,-0.014952654460072516
1767708903857246000,1.181245849609375,0.14372808745503424,0.06943142801942304,-0.02507131289243698
1767708903867245800,1.191245849609375,0.13401099556088447,0.022990825957106425,-0.025766309419274328
1767708903877246000,1.201245849609375,-0.08329027762711047,-0.04169255815185606,-0.006401683735847472
1767708903887246800,1.211246826171875,-0.21978315313160418,0.007820272696344182,0.011796820777654647
1767708903897246700,1.221246826171875,0.1474649358958006,0.13019783048089592,0.093929160541296
1767708903907246800,1.231246826171875,0.3316717487335205,0.10276279326495714,0.09107903180718421
1767708903917246700,1.241246826171875,0.24771686971783635,0.11231634689415805,-0.05948445462584495
1767708903927246800,1.251246826171875,0.30932547689080236,0.11885878167441113,-0.16444120513796806
1767708903937247700,1.261247802734375,0.2984966243624687,0.07195994185004383,-0.20284370876848695
1767708903947247600,1.27124755859375,0.1776853021144867,0.010068937539122998,-0.054065352186560625
1767708903957248000,1.281248046875,-0.04247837476730346,-0.10140811811983584,0.25318682556152344
1767708903967248000,1.291247802734375,-0.06568740091919899,-0.11803495286982506,0.25205402213931083
1767708903977249000,1.3012490234375,-0.09331541255712508,-0.11084425591444597,0.16788754619956014
1767708903987249000,1.311248779296875,0.004985972860670881,-0.1003141488706693,0.02896072154641151
1767708903997248800,1.321248779296875,0.015772158715990373,-0.10429150980273261,0.029049568873643874
1767708904007249000,1.331248779296875,0.12278466814756393,-0.03084324735738337,-0.060336687541007995
1767708904017248800,1.341248779296875,0.1714940462589264,-0.017509718531742692,-0.07010813997089863
1767708904027250000,1.35125,0.10610592054724692,0.02345867179771885,-0.04951309570968151
1767708904037249800,1.361249755859375,0.1514239026546478,0.02832625956777483,-0.043457448932528495
1767708904047250000,1.37125,0.16580664827227592,0.029658622416388242,-0.04336392543017864
1767708904057249800,1.381249755859375,-0.0295352974308189,0.029452066993620244,0.32099428737461566
1767708904067251000,1.3912509765625,-0.3852963348826393,0.031751137716230005,-0.02335457210242748
1767708904077251000,1.4012509765625,0.07309740318106486,0.05150242462968453,-0.08612930044531822
1767708904087251000,1.4112509765625,0.011976287264097482,0.0362384391981177,-0.01240706163048744
1767708904097250800,1.421250732421875,0.02894788033114746,0.03923327363254502,-0.012156301739811897
1767708904107251000,1.4312509765625,-0.09214227712452411,0.0893297769870609,0.03199497467577457
1767708904117251800,1.441251953125,0.1536339799195528,0.06456968546826392,0.0016834230422973632
1767708904127252000,1.451251953125,0.039194549057353284,0.017015395676158368,-0.0690109923839569
1767708904137251800,1.461251953125,-0.0516962849676609,-0.01387024778453633,-0.14834054968655108
1767708904147252000,1.471251953125,-0.0455833185127005,-0.01606644265456125,-0.1481663621634245
1767708904157252900,1.4812529296875,0.10883974769162014,-0.07677662141676991,-0.2528273445993662
1767708904167252700,1.491252685546875,0.14464173170123248,-0.08110394656397402,-0.19370295545756816
1767708904177252900,1.5012529296875,0.20645841040061785,-0.1005454186095856,0.029179332733154296
1767708904187252700,1.511252685546875,0.22632751500746234,-0.06717963050464168,0.1564659884750843
1767708904197252900,1.5212529296875,0.23590134423971174,-0.07213056744290515,0.15682196230590342
1767708904207254000,1.53125390625,0.1672118571613915,-0.02633917740378529,0.257908008864522
1767708904217254000,1.54125390625,0.0721001905709505,-0.05808143769381568,0.23308277968764304
1767708904227254000,1.55125390625,0.06827504279222339,0.004447992384806275,0.18096505443751812
1767708904237254000,1.56125390625,0.18240177270974964,0.056588331325538456,0.21495324875712393
1767708904247254800,1.5712548828125,0.4106570226430893,0.07825915159210563,0.09328209480941295
1767708904257255000,1.5812548828125,-0.11955288315210491,0.018513799274060876,-0.0616916092813015
1767708904267254800,1.5912548828125,-0.23214056693408636,0.12246597585352137,0.17322540009617804
1767708904277255000,1.6012548828125,-0.006492284628748893,0.09290184505386277,0.2299380519211292
1767708904287254800,1.6112548828125,0.0454044548144564,0.1279951510711573,0.1537777723044157
1767708904297255700,1.621255615234375,0.06946279127206653,0.09357331457464024,0.12167641464471816
1767708904307255800,1.631255859375,0.025051439148187638,0.017418423519097267,0.05882628297805786
1767708904317256000,1.641255859375,-0.007311784318089484,0.033818098449707026,0.042243981489539145
1767708904327256000,1.651256103515625,0.004209763182140887,-0.0065496408391743895,-0.023162264400720594
1767708904337257000,1.661257080078125,0.049153030225634574,-0.010539879519119858,-0.03274900791347027
1767708904347257300,1.67125732421875,0.17811379319224505,-0.027609069475438446,0.06064823770821094
1767708904357257500,1.681257568359375,0.20582067875266075,-0.05285564760323613,0.0990875662177801
1767708904367257300,1.69125732421875,0.048232992771267885,-0.03207909102896228,0.01035889692902565
1767708904377257500,1.701257568359375,0.020378807694651186,-0.011448390932474285,0.027314123383164406
1767708904387258400,1.71125830078125,0.1278711776316166,0.013486911022756247,0.06824234609901905
1767708904397258200,1.72125830078125,0.12484748242888599,0.020176818849146363,0.04003858039975166
1767708904407258400,1.73125830078125,-0.010303915338777005,0.038575595175102353,-0.021696868023276326
1767708904417258200,1.74125830078125,0.010141491318680345,0.07388543001990765,-0.005765723919868469
1767708904427259100,1.751259033203125,-0.026914894932508468,0.024006880265008655,-0.17343875058591365
1767708904437259300,1.76125927734375,-0.037623335951566694,0.02663732010014355,-0.184659817302227
1767708904447259400,1.77125927734375,-0.038242929154634474,0.030242742447275667,-0.18474165036678314
1767708904457259500,1.781259521484375,-0.16250588969383387,0.05589501529913395,-0.30760055279433723
1767708904467259400,1.79125927734375,-0.2173591408550739,0.17456236605467274,-0.5477034403771162
1767708904477260300,1.80126025390625,-0.14472005763445048,-0.25400838934378694,-0.026429741764068603
1767708904487260400,1.811260498046875,0.08891630081534385,-0.20225281193694097,0.2717372122526169
1767708904497260300,1.82126025390625,0.0864127935618162,-0.20484306589215992,0.27169512667655943
1767708904507260400,1.831260498046875,0.16721998566891996,-0.009461363567411899,0.34971944659948345
1767708904517261300,1.84126123046875,0.19920969964768737,0.022266612468939274,0.19805939710140227
1767708904527261200,1.85126123046875,0.14819438268151133,0.047656051399838174,0.14044248991310596
1767708904537261300,1.86126123046875,-0.014432429978251456,-0.003574534018523991,0.04611234735548496
1767708904547261200,1.87126123046875,-0.007809796968102455,-0.002169452993571758,0.046319268104434014
1767708904557261300,1.88126123046875,-0.011404022067785262,0.026858324173372236,-0.04335749568939209
1767708904567262500,1.891262451171875,0.06162380474209785,-0.04080138146579265,-0.06510580163896083
1767708904577262300,1.901262451171875,0.07434062644150108,-0.055505175731331104,-0.05332359390854835
1767708904587262500,1.911262451171875,-0.04408756352961063,-0.03081489804573357,-0.07651917605698108
1767708904597262300,1.921262451171875,-0.0354927901962772,-0.030176198283396658,-0.07619710449576378
1767708904607263200,1.93126318359375,-0.09037581544127314,0.019372005272284148,-0.07634148140251636
1767708904617263400,1.941263427734375,-0.006532032117247581,0.04232212475966662,-0.03612929800152778
1767708904627263200,1.95126318359375,-0.007775346709229051,0.02472302917772904,-0.029157120901346204
1767708904637263400,1.961263427734375,-0.011697452056407927,0.016467954393848776,-0.03715279583036899
1767708904647264300,1.97126416015625,-0.0047749958494678136,0.01750736217787489,-0.03687748602032661
1767708904657264000,1.98126416015625,-0.08692015856206417,0.019590360730700192,-0.023952537995576857
1767708904667264300,1.99126416015625,-0.056608606928586956,0.0072937920036725695,0.003114332628250122
1767708904677264100,2.00126416015625,-0.04582651615142822,0.006671002196520567,0.0036088381469249723
1767708904687264300,2.01126416015625,-0.014884301931597291,-0.00023636603914201258,0.07052373503446578
1767708904697265400,2.021265380859375,0.08584116768632083,-0.013685429269541053,0.12837854263186455
1767708904707265300,2.031265380859375,0.1571065514009446,-0.008129219914507121,0.13589140248000622
1767708904717265400,2.041265380859375,0.06902151377797126,-0.013732483281660825,0.03965571856200695
1767708904727265300,2.051265380859375,0.009448796346783637,-0.013496062443591654,0.023451602736115455
1767708904737266200,2.06126611328125,-0.03756787943728268,-0.01493506400445476,0.04582008641064167
1767708904747266300,2.071266357421875,-0.048560909551382064,-0.027110837629716843,0.044352351945638656
1767708904757266200,2.08126611328125,-0.04067917985823005,-0.06219285506801679,0.02878478045761585
1767708904767266300,2.091266357421875,-0.04067742629256099,-0.04905998164732009,-0.019450550401210784
1767708904777266200,2.10126611328125,-0.054601358759403223,-0.02095887260492891,-0.07188976269066333
1767708904787267300,2.111267333984375,-0.09048917615525424,0.0030325726289302107,-0.09730243636667728
1767708904797267200,2.12126708984375,-0.03234802589714527,0.009895334537886083,-0.06741057144999504
1767708904807267300,2.131267333984375,0.012106690444424749,-0.016792802434042096,0.003478489765524864
1767708904817267500,2.141267333984375,-0.022325777043960986,-0.025051676610205322,0.05551672003865242
1767708904827268400,2.151268310546875,-0.05585873840935528,-0.018603340721037236,0.026142156994342802
1767708904837268500,2.1612685546875,-0.08140519453287125,0.0028920499133877455,0.02981996872425079
1767708904847268400,2.171268310546875,-0.040244332104921336,0.0031287082134746013,0.06279927826225758
1767708904857268200,2.181268310546875,-0.027120719702914357,-0.0030345271239988502,0.0330699104309082
1767708904867268400,2.191268310546875,-0.061686421649530525,-0.005439177112933248,0.005914192479848862
1767708904877269200,2.201269287109375,-0.043476665089651936,0.0032631482481025155,0.004095744881033897
1767708904887269400,2.211269287109375,0.041169703321531415,-0.0013510858153924345,0.01117021331191063
1767708904897269200,2.221269287109375,0.03310731983184814,0.011773038043268024,0.005714870515465736
1767708904907269000,2.23126904296875,0.011267828467488288,-0.00454962612837553,0.026437925070524212
1767708904917270500,2.2412705078125,0.05890406092200428,-0.023995609952323138,0.06044833122193813
1767708904927270400,2.2512705078125,-0.043917540724948044,-0.04898048667032271,0.03820493523180485
1767708904937270500,2.2612705078125,-0.04944127258248627,-0.03995446404656395,0.022099603605270385
1767708904947270400,2.2712705078125,-0.048100890824198723,-0.039345903694164006,0.022157471272349356
1767708904957271300,2.281271240234375,0.012117723295092583,-0.011805040616728366,0.010853986969590187
1767708904967271400,2.291271484375,0.027142858469486233,-0.014673654855601488,-0.0036059155374765393
1767708904977271300,2.301271240234375,0.005807809495925903,-0.0196386751181446,-0.020302783316373824
1767708904987271400,2.311271484375,0.01250237523112446,0.0014031813288107513,-0.02291851877272129
1767708904997271300,2.321271240234375,0.014493804776668548,0.001050897292420268,-0.022810966745018958
1767708905007272200,2.331272216796875,0.013206139586307107,0.005246577150281519,-0.021209376767277716
1767708905017272300,2.341272216796875,0.009447115846350789,-0.01761588231995702,0.019055413603782653
1767708905027272200,2.351272216796875,0.0006231368670240044,-0.02678940538931638,0.011636077257990837
1767708905037272300,2.361272216796875,-0.02452251990325749,-0.013988704798743128,0.000030979660153388974
1767708905047273500,2.3712734375,-0.021260814693570135,-0.01569556351555511,0.00023030162453651428
1767708905057273300,2.3812734375,-0.010824139820598065,0.018185498901456595,0.009400281029939651
1767708905067273500,2.3912734375,-0.009455299152806402,0.030928076096624135,-0.003736848440766334
1767708905077273300,2.4012734375,-0.0005628580471500754,0.04172037774054333,0.002835515686869621
1767708905087274200,2.411274169921875,0.0052033407967537635,0.03403809787593782,0.03167231859266758
1767708905097274400,2.4212744140625,0.006554828470945358,0.032697496921941634,0.031767595660686494
1767708905107274200,2.431274169921875,-0.014774338751100003,0.0017133067239075898,0.055765141841769214
1767708905117274400,2.4412744140625,0.03090191874206066,0.012940894512552767,0.04791618190705776
1767708905127274200,2.451274169921875,0.03566453003399074,0.04517418972253799,0.01730535506606102
1767708905137275100,2.461275146484375,0.036029856215044856,0.04377860717829317,0.017350363251566886
1767708905147275300,2.471275146484375,0.0016891951959580181,0.0657354778446257,-0.0270440742701292
1767708905157275100,2.481275146484375,-0.02583407742585987,0.03674008684363216,-0.04810790508687496
1767708905167275500,2.491275634765625,-0.03252276140954345,0.005399320026580244,-0.041242695492506025
1767708905177276400,2.5012763671875,-0.05643091227412223,-0.00978317940030247,-0.006261983004212379
1767708905187276300,2.5112763671875,0.01798464256711304,-0.039196302623022344,0.029336569121479986
1767708905197276400,2.5212763671875,0.12688454121444373,-0.039706864227354526,0.06792085905969142
1767708905207276300,2.5312763671875,0.06840024007447064,-0.005453534431848674,0.03736965345144272
1767708905217276400,2.5412763671875,0.00855688900835812,0.01003289811136201,-0.002771218279004097
1767708905227277300,2.55127734375,-0.05033018424622714,0.01336074562612921,0.0163344642072916
1767708905237277200,2.561277099609375,-0.07412380535304545,-0.008734236602950841,0.006877484554052352
1767708905247277300,2.57127734375,-0.060662923820689316,-0.021507428132090715,-0.016042787784337997
1767708905257277200,2.581277099609375,-0.05535897219367325,-0.036650801124982535,-0.018165771287679672
1767708905267278300,2.5912783203125,-0.04076806371808052,-0.03587746039861813,-0.013842062869668006
1767708905277278500,2.601278564453125,-0.0500274749726057,-0.000765449680853635,-0.00517009611427784
1767708905287278300,2.6112783203125,-0.0433137296129018,0.010721263968013227,0.03687514793276787
1767708905297278500,2.621278564453125,-0.008937339693307875,0.014150909623131156,0.052119478815793985
1767708905307279400,2.631279296875,-0.027372064115479586,0.013843597239628433,0.041485856598615645
1767708905317279200,2.641279296875,-0.041471207018755375,0.006356967811286449,0.018308979150652886
1767708905327279400,2.651279296875,-0.03958966758847236,-0.008611395674571394,0.02599368843436241
1767708905337279200,2.661279296875,-0.04876373864710331,0.00034369887113571166,0.02576923202872276
1767708905347279600,2.671279541015625,-0.01624386331439018,-0.016357698952406644,0.03230009510219097
1767708905357280500,2.681280517578125,0.006302972601726651,-0.004033292370382696,0.03643091129660606
1767708905367280400,2.6912802734375,-0.015797873112559317,0.0034451902841217815,0.014083470410108566
1767708905377280500,2.701280517578125,-0.014165851463936268,0.0012186916073784232,0.0019014497071504592
1767708905387280400,2.7112802734375,-0.029670915642380714,0.00657408116068691,0.014530045133829116
1767708905397281500,2.721281494140625,-0.028475531845353542,0.007812171588279306,0.01457388427555561
1767708905407281700,2.73128173828125,-0.03595741203334182,0.018228296863567084,-0.02290682833492756
1767708905417281500,2.741281494140625,-0.01860591627061367,0.014195881276018917,-0.019886603730916975
1767708905427281700,2.75128173828125,-0.012922683002427219,0.025797544807754456,-0.008045943811535835
1767708905437281500,2.761281494140625,-0.03338036461956799,0.03462457426069304,0.027019524350762367
1767708905447282400,2.771282470703125,-0.031821371674537656,0.035125052862428126,0.027096681240200995
1767708905457282600,2.781282470703125,0.04080488859713077,0.03305849398775026,0.0005447744011878967
1767708905467282400,2.791282470703125,0.013217793491482733,0.03221429824857041,0.02696048763990402
1767708905477282600,2.801282470703125,-0.03569324467182159,0.02057272283155471,0.02077916865646839
1767708905487283500,2.811283447265625,-0.018718692462705074,0.025320063489116727,0.004585574224591255
1767708905497283600,2.82128369140625,-0.01698032436277717,0.025454996714089063,0.004681435814499855
1767708905507283500,2.831283447265625,0.023721103859879075,0.03924176746625453,0.02063888340294361
1767708905517283600,2.84128369140625,0.008416567222215236,0.016645356787368653,0.010589198553562164
1767708905527284700,2.85128466796875,0.015352394367381929,0.017822821335215122,0.016241525226831435
1767708905537284600,2.86128466796875,-0.014314429621770977,0.024465748214721677,0.024103344643115997
1767708905547284500,2.871284423828125,-0.012559037321805954,0.025077231176570056,0.02419336101412773
1767708905557284600,2.88128466796875,-0.004704232168197631,0.016226455521862953,0.011869886013865471
1767708905567284500,2.891284423828125,-0.03410743678510189,0.01461054475782439,0.003868365865945816
1767708905577285600,2.90128564453125,-0.041672319081425664,0.021769367003906515,-0.004932195705175399
1767708905587285500,2.911285400390625,-0.02901095389630645,0.035380744656547905,-0.002242225968837738
1767708905597285600,2.92128564453125,-0.02937222495675087,0.035398499508947134,-0.002263268756866455
1767708905607285500,2.931285400390625,-0.035801344688795506,0.031044469017907975,0.014312602990865706
1767708905617286700,2.94128662109375,-0.010490998876094818,0.0163833996492438,0.029551088654994964
1767708905627286800,2.951286865234375,-0.02868595972564071,0.034946390093583614,0.03760930742621422
1767708905637286700,2.96128662109375,-0.014230185404419898,0.024860154359787702,0.011868716970086096
1767708905647286500,2.97128662109375,0.012819186095334589,0.019607604126445948,-0.008480828097462654
1767708905657287700,2.98128759765625,-0.0024286153864115476,0.030279001070745288,-0.040938744109869
1767708905667287600,2.99128759765625,-0.016691607081890106,0.021303594389371572,-0.015935820278525352
1767708905677287700,3.00128759765625,0.01954699651300907,0.012186916073784231,-0.002920271360874176
1767708905687287600,3.01128759765625,0.0015068974316120147,0.003890906491316855,0.005733575215935707
1767708905697287700,3.02128759765625,-0.012994469597004354,-0.003741652480047196,0.026043957316875456
1767708905707288600,3.03128857421875,-0.024198585178516804,0.0031795068189501762,0.04307283352911472
1767708905717288400,3.041288330078125,-0.023919183715246616,0.0278160267570056,0.027466683596372603
1767708905727288600,3.05128857421875,-0.018081015613675117,0.040524464220553634,0.035328503012657164
1767708905737288400,3.061288330078125,0.006861629397794604,0.03281127776103094,0.02373626489639282
1767708905747289600,3.07128955078125,0.014634601486846803,-0.003650320934783667,0.010963877084851264
1767708905757289700,3.081289794921875,0.02155073755085468,-0.014495996733754872,0.02587912214398384
1767708905767289600,3.09128955078125,0.031133389410376546,-0.01827483941903338,0.03272387347221374
1767708905777289700,3.101289794921875,0.039221418797969816,0.00019873744249343872,0.014586743757128715
1767708905787290600,3.11129052734375,0.03950849211104214,-0.023631781608611343,0.006916062998771667
1767708905797290500,3.12129052734375,0.03321611396856606,-0.033080943281576035,0.006439093136787414
1767708905807290600,3.13129052734375,0.011848331769183278,-0.048551484135910865,-0.011844751572608947
1767708905817290500,3.14129052734375,-0.033321766300126905,-0.045833420816250144,-0.007235796472430229
1767708905827291400,3.15129150390625,0.026800401707366108,-0.024944508174993097,0.05411795915663242
1767708905837291500,3.16129150390625,0.08994863953776656,0.013443510272447019,0.04010696946084499
1767708905847291400,3.17129150390625,0.09114690941162407,0.01300942970411852,0.04018237278461456
1767708905857291500,3.18129150390625,-0.0008077361863106489,0.012962832349725067,-0.013033084574341772
1767708905867291400,3.19129150390625,-0.03858768747169524,0.01148163561495021,-0.010742343288660049
1767708905877292500,3.20129248046875,-0.033249943172931666,-0.010747421322576702,0.0023111995518207548
1767708905887292700,3.211292724609375,-0.02465513330698013,-0.0016080745174549519,-0.03373100468814373
1767708905897292500,3.22129248046875,-0.02509527828991413,-0.0012700199358165263,-0.033761984348297115
1767708905907292700,3.231292724609375,0.018688370389677585,0.01754851617217064,-0.014839257213473319
1767708905917293600,3.24129345703125,0.006975684231519699,0.006630359658878296,-0.017622750452160833
1767708905927293400,3.25129345703125,-0.014516016608476639,0.014049622939433902,-0.01727612897157669
1767708905937293600,3.26129345703125,-0.016674619414471088,0.014145959453377871,-0.01739946309030056
1767708905947293400,3.27129345703125,0.014647570566274224,0.00431598176928237,0.014820552513003349
1767708905957294600,3.281294677734375,0.0025029957968741652,0.002012143540009856,0.011576456025242805
1767708905967294500,3.29129443359375,0.01323828829023987,-0.005871577180828899,0.02537234166562557
1767708905977294600,3.301294677734375,0.027736184720136222,-0.02085084565319121,0.05742401496469974
1767708905987294700,3.311294677734375,0.004739924536086618,-0.01144930424792692,0.027383681488037107
1767708905997294600,3.321294677734375,0.0028804508071392774,-0.011193046198226511,0.027276713982224463
1767708906007295500,3.33129541015625,0.05192125282995402,0.011861081652902066,0.03183949185311794
1767708906017295600,3.341295654296875,0.03356383142769336,-0.007695212411414832,-0.02388181084692478
1767708906027295500,3.35129541015625,0.029716508349776266,-0.031208993663545695,0.0032961189359426496
1767708906037295600,3.361295654296875,0.01722125697918236,-0.053082734357379376,0.030632454150915145
1767708906047296500,3.371296630859375,0.01658350706491619,-0.05256517675668001,0.03058861500918865
1767708906057296600,3.381296630859375,-0.026074315922521053,0.000023161679878830908,0.01585749434530735
1767708906067296500,3.391296630859375,-0.0336585970390588,0.009082794312294572,0.009199205499887467
1767708906077296400,3.40129638671875,-0.03531980824954808,0.008890468344278634,0.009112111738324165
1767708906087297800,3.4112978515625,-0.030669936617091297,0.056577261942252516,-0.004921674311161041
1767708906097297700,3.421297607421875,-0.0070745414961129426,0.03769366124141961,-0.012086159113049506
1767708906107297500,3.431297607421875,-0.004471007934212685,0.04464119709068909,0.021132219877839087
1767708906117297700,3.441297607421875,-0.02923661587834358,0.03995828170515597,0.018882395124435424
1767708906127297500,3.451297607421875,-0.028527079369500278,0.02086414352618158,0.03412906409502029
1767708906137298700,3.461298583984375,-0.023637992153689263,0.006096508510503917,0.024496143352985382
1767708906147298600,3.471298583984375,-0.0070376435518264766,0.014432174249924719,0.053769584110379215
1767708906157298700,3.481298583984375,-0.052854295896366234,0.0002237257532775402,0.011807342171669006
1767708906167298600,3.491298583984375,-0.022314780725911258,0.004057568295113742,0.04317220225036144
1767708906177299500,3.501299560546875,-0.010783259820938109,-0.018010160600859672,0.03174421478509903
1767708906187299600,3.511299560546875,-0.03589556231088936,-0.027004966102447358,-0.00944470469355583
1767708906197299500,3.521299560546875,-0.04272968264725059,-0.027950393726397304,-0.004831657940149307
1767708906207299600,3.531299560546875,-0.015120960231684147,-0.03332669820357114,0.014459902507066726
1767708906217300700,3.54130078125,0.044081718310713766,-0.027970431867428123,0.010578092637658118
1767708906227300600,3.551300537109375,0.05912380461990833,-0.0469672471517697,0.0053583121627569195
1767708906237300700,3.56130078125,0.04798990473039448,-0.05309230590332299,0.011978607085347174
1767708906247300600,3.571300537109375,-0.014491539754346012,-0.0420728627063334,-0.006225742647051811
1767708906257301500,3.581301513671875,-0.036367746399901806,-0.010794712796714156,-0.004069441395998001
1767708906267301600,3.591301513671875,-0.03370524919237941,0.009567947480734437,0.008255202648043632
1767708906277301500,3.601301513671875,-0.026098829309269784,0.021866452436521647,0.02191197207868099
1767708906287301600,3.611301513671875,-0.028486637761257587,0.013369038530439137,0.0030967969715595244
1767708906297301500,3.621301513671875,-0.06091536421179771,0.03472704825447872,-0.0076245035290718076
1767708906307302400,3.631302490234375,0.0382633874207735,0.0312765059418045,-0.016859364864230154
1767708906317302500,3.641302490234375,0.027027159667946398,0.026667331645917145,-0.018885902255773544
1767708906327302400,3.651302490234375,0.002326908577606082,0.026165483071003106,-0.02462123103737831
1767708906337302500,3.661302490234375,-0.017637363499402998,0.013081417228095233,-0.02914952211678028
1767708906347303200,3.67130322265625,-0.019453473010659215,0.012628029171098024,-0.02922667900621891
1767708906357303000,3.681302978515625,-0.047753100299835205,-0.014924506077822298,-0.025884967362880706
1767708906367303200,3.69130322265625,-0.011193009665608405,0.003728993927873671,-0.006545476120710373
1767708906377303000,3.701302978515625,0.026039281141757964,-0.02123215485466644,0.0009527706801891326
1767708906387304200,3.71130419921875,0.02424479894042015,-0.009239555776584894,0.018904606956243512
1767708906397304000,3.721303955078125,0.021327450188994405,-0.010135737431328742,0.018788287100195884
1767708906407304000,3.731303955078125,-0.029489713856577872,0.03592645063949749,-0.035008185017108916
1767708906417304000,3.741303955078125,-0.03378478070199489,0.03337895811377093,-0.05316986465156078
1767708906427305200,3.75130517578125,0.0218722245901823,0.009839841490983962,-0.001779284632205963
1767708906437305000,3.76130517578125,0.09054013915751129,-0.05397133549386635,0.04579319840371608
1767708906447305200,3.77130517578125,0.08493391664829104,-0.05445226914491504,0.04555529799461364
1767708906457305000,3.78130517578125,0.052938357450626784,-0.11115693859281017,0.10408639741837977
1767708906467305200,3.79130517578125,0.04441431126594543,-0.07207600597776471,0.10937222886681557
1767708906477306000,3.80130615234375,-0.0005944952944293618,-0.0306760375643149,0.08117489290833473
1767708906487306200,3.81130615234375,-0.05364800355732441,-0.015823592075705526,0.04191255757808685
1767708906497306000,3.82130615234375,-0.05888064351379871,-0.015713080905936656,0.04169394639134407
1767708906507306000,3.831305908203125,-0.1349030124971643,0.007013258029241114,-0.012831424522399902
1767708906517307100,3.84130712890625,-0.07234159811139107,0.0017736768753267823,-0.04190086714029312
1767708906527307000,3.85130712890625,-0.007587130660749971,0.007471943315863609,-0.011845336094498634
1767708906537307100,3.86130712890625,0.07643613741602748,-0.012235285260155796,0.017766542837023735
1767708906547307000,3.87130712890625,0.07328497990872711,-0.012300495983473957,0.017644962283968925
1767708906557308200,3.88130810546875,0.018576105654239655,-0.0055814899267628785,0.047923196169734
1767708906567308300,3.891308349609375,-0.04532320627178996,0.027212982829939572,0.09586451251804828
1767708906577308200,3.90130810546875,-0.05408990210592746,0.015966544210352002,0.08887655332684516
1767708906587308300,3.911308349609375,-0.023230653461813924,0.027131405493710188,0.08713175548613071
1767708906597309200,3.92130908203125,-0.037636158900521695,-0.010707491170987486,0.06057984864711761
1767708906607309000,3.93130908203125,-0.012605214551091194,-0.01834973128614947,-0.0064782561033964155
1767708906617309200,3.94130908203125,0.01103109710216522,-0.009513678276538848,-0.02366962940096855
1767708906627309000,3.95130908203125,0.051220520682074125,-0.008893226556945591,0.026225743624567983
1767708906637309200,3.96130908203125,0.08510521809458732,-0.024023283410537985,0.09052665862143039
1767708906647310000,3.97131005859375,0.037745537559129294,-0.030522819763980805,0.07205167525410652
1767708906657310000,3.98131005859375,0.03776533823814243,-0.0233435575180687,0.07452770997881888
1767708906667310000,3.99131005859375,0.019559234940074385,-0.024977917254250494,0.07061667401492595
1767708906677310000,4.00131005859375,0.004463445682264864,-0.02570259653329849,0.009564531680941582
1767708906687311000,4.01131103515625,0.018947861576080322,-0.02031186167197302,-0.026797406032681464
1767708906697311200,4.021311279296875,0.034533589775301514,-0.001397244778368622,-0.00899988353550434
1767708906707311000,4.03131103515625,0.06677055651340633,-0.018916425258200614,0.023164017966389654
1767708906717311200,4.041311279296875,0.1125339443007484,-0.02821744716474786,0.029446459236741065
1767708906727312100,4.05131201171875,-0.17754739148113877,-0.054699594969488674,-0.06959726783931255
1767708906737312000,4.06131201171875,-0.07983688577022403,0.14560109651898964,0.11707914998233318
1767708906747312000,4.07131201171875,0.43587621957361694,0.005314619151502847,-0.0808884771823883
1767708906757312000,4.08131201171875,0.00897767170369625,0.02812905649524182,0.0038689503878355023
1767708906767313000,4.09131298828125,0.06796762081086635,-0.0100186503903009,0.006297638839483261
1767708906777313000,4.10131298828125,0.1670972360720858,0.010134860648494214,0.058330608415603634
1767708906787313200,4.111313232421875,0.16136837356388567,-0.043618082854337985,0.04010112424194812
1767708906797313300,4.121313232421875,0.1622205699464306,-0.041847931376658376,0.040110476592183114
1767708906807314200,4.131314208984375,0.009342449895478784,0.004100768116023391,-0.03151917385756969
1767708906817314000,4.14131396484375,-0.05361468580961227,0.011320453703869134,-0.05482113898992538
1767708906827314200,4.151314208984375,-0.19813359484877435,0.09826781080011278,0.03044014644920826
1767708906837314000,4.16131396484375,0.33466336829755455,0.03342654184885323,-0.029540567260980605
1767708906847314200,4.171314208984375,0.3351128656307235,0.03487781836939975,-0.029542320826649666
1767708906857315000,4.181315185546875,-0.0069172320425510405,0.035957521631196136,0.04815232875049114
1767708906867315000,4.19131494140625,0.027993337818980217,-0.012155379291204735,-0.012866495835781097
1767708906877315000,4.201315185546875,0.036880956619046626,0.012940282591199502,0.006125789403915405
1767708906887315000,4.21131494140625,-0.03890226984620094,-0.00624865773175843,-0.02109948665201664
1767708906897316000,4.221316162109375,-0.034171734192967415,-0.005610597290238366,-0.02088847424983978
1767708906907316200,4.231316162109375,0.27411205162517727,0.01705457690907642,0.053100891068577766
1767708906917316000,4.241316162109375,0.10686280332915485,-0.040568686954770235,-0.016337386816740036
1767708906927316200,4.251316162109375,0.047634369290992615,0.005001242353394627,0.04637830481529236
1767708906937317000,4.261317138671875,-0.020620763224363327,-0.040371045490819955,-0.039466333469748496
1767708906947317200,4.271317138671875,-0.01964994543083012,-0.039906651982618495,-0.039426585981249804
1767708906957317000,4.281317138671875,-0.04425122965872288,-0.01840695049925707,0.0318108502805233
1767708906967317000,4.29131689453125,-0.014835165560245512,0.005200774380331859,0.02043722335100174
1767708906977318100,4.301318115234375,0.022037644284963607,0.026923781491862607,0.02655833657979965
1767708906987318000,4.311318115234375,0.04005202440321445,0.025787169544212517,0.03728372873365879
1767708906997318100,4.321318115234375,0.0392955800127238,0.025965019462304187,0.03724573481082916
1767708907007318000,4.331318115234375,0.04382094848267734,0.010474413067474962,0.014344751694798468
1767708907017319200,4.341319091796875,0.022205913523957132,-0.017522998138424006,-0.00013502455651760102
1767708907027319300,4.3513193359375,0.0031797990798950195,-0.023802489399863406,-0.02477028411924839
1767708907037319200,4.361319091796875,-0.006472995406389236,-0.016563313660258427,-0.07200257541537285
1767708907047319300,4.3713193359375,-0.002051635300181806,0.007937788995634763,-0.0228963069409132
1767708907057319200,4.381319091796875,0.0671517013181001,-0.0045898576740641146,0.013165771043300628
1767708907067320000,4.391320068359375,0.05079144508242607,-0.028811166141042482,0.00024549919366836546
1767708907077320200,4.4013203125,-0.0478921434443444,-0.03917282128273509,-0.018719313517212868
1767708907087320000,4.411320068359375,-0.03840250363051891,-0.048732192731369285,0.013830372431874275
1767708907097320200,4.4213203125,0.08533493519723415,-0.057694219341361895,0.056337973293662066
1767708907107321000,4.431321044921875,0.09535597847402096,-0.03701604510764591,0.04668225619792938
1767708907117321000,4.441321044921875,0.025371757143735883,-0.0073161682322621345,0.0033861353069543835
1767708907127321000,4.451321044921875,-0.014531798699498175,0.004496873027831316,0.00395838223695755
1767708907137321000,4.461321044921875,-0.045006505005434155,0.028334479406848547,-0.004584989702701568
1767708907147322000,4.471322021484375,-0.04374678726792335,0.025255473820306358,-0.004029109385609626
1767708907157322200,4.481322265625,-0.06115735627412796,0.009160901049803941,-0.0033738603472709652
1767708907167322000,4.491322021484375,-0.05325809092428535,0.013700626838672906,0.014894202271103859
1767708907177322200,4.501322265625,-0.01807692396044731,0.006809168558195233,0.04015373121201992
1767708907187323100,4.5113232421875,0.03841653215587139,0.01357164843045175,0.03847790695428848
1767708907197323000,4.521322998046875,0.026211130577325818,0.018032408965285865,0.011692775881290435
1767708907207323100,4.5313232421875,-0.0432212290238589,0.021001707099657506,-0.009231354203820229
1767708907217323000,4.541322998046875,-0.053548634836077684,0.03499245772501453,-0.01248071138858795
1767708907227324000,4.551323974609375,-0.0683662647396326,0.028723551789671183,0.01750759963989258
1767708907237324000,4.561323974609375,-0.04114632244594395,0.031611656180303545,0.028805238723754883
1767708907247324000,4.571323974609375,-0.039953203671239314,0.02989657762441784,0.02889233248531818
1767708907257324300,4.58132421875,0.03603814911935478,0.019323106362950055,0.011484101566672324
1767708907267325200,4.5913251953125,0.08143270359430461,-0.02193566348152235,-0.04466214854717254
1767708907277325000,4.601324951171875,0.02738134340047836,-0.014040014860872179,-0.07413724935650826
1767708907287325200,4.6113251953125,-0.044028599883988495,-0.001000555344671011,-0.04924655372798443
1767708907297325000,4.621324951171875,-0.03994805257208645,-0.0020866335483267903,-0.049024435409903526
1767708907307325200,4.6313251953125,-0.01629413219690323,-0.03195537331774831,0.009081716600060463
1767708907317326000,4.641326171875,0.09492167870998382,-0.080670724512171,0.053614101287722586
1767708907327326000,4.651325927734375,0.026594613469578324,-0.07312708593327552,0.05331950225532055
1767708907337326000,4.661326171875,-0.05295417607426643,-0.025923856334853917,0.007962357181310654
1767708907347326500,4.671326416015625,-0.05381283873021602,-0.02668915988523513,0.007933131086826323
1767708907357327600,4.68132763671875,-0.10619009169936179,0.010502287455089389,-0.03836450970768928
1767708907367327700,4.69132763671875,-0.04751337325982749,0.04003856213344261,-0.013597732719779014
1767708907377327600,4.70132763671875,-0.040362368994019925,0.028528339744824913,0.006533785682916641
1767708907387327700,4.71132763671875,0.02851535239908844,0.03938214405132457,0.03637947337031364
1767708907397328600,4.72132861328125,0.02636485983431339,0.0391004958320409,0.03627952012717724
1767708907407328500,4.73132861328125,0.0047165071278810495,0.008648238819930702,0.05787935751676559
1767708907417328600,4.74132861328125,-0.07539280237555504,0.007310176882892846,0.04476677796542644
1767708907427328500,4.75132861328125,-0.052204819011688226,-0.0020851905099116266,0.03269815450906753
1767708907437329400,4.761329345703125,-0.05393858400173485,-0.001098389695957303,0.03259527865648269
1767708907447329500,4.77132958984375,-0.02288286293745041,-0.024466972057428208,0.02772562679350376
1767708907457329400,4.781329345703125,-0.04230360272228718,-0.03319426746293902,0.011658289089798927
1767708907467329500,4.79132958984375,-0.052285483032464976,-0.04684292665235698,0.006509820285439491
1767708907477330700,4.80133056640625,-0.05768997242450714,-0.02578934323498979,-0.008082768690586089
1767708907487330600,4.81133056640625,-0.05454407561421394,-0.028160675476212052,0.0022889877200126646
1767708907497330700,4.82133056640625,-0.05693352803401649,-0.02787246965197846,0.002170329776406288
1767708907507330600,4.83133056640625,-0.05872399164736271,-0.021955281497444957,0.01760287670791149
1767708907517331700,4.841331787109375,-0.020683891588449476,0.006539740499667823,0.0391740725249052
1767708907527331600,4.85133154296875,-0.013744411181472242,0.010967987004388124,0.08053191882967949
1767708907537331500,4.86133154296875,-0.06131751527190208,0.010562566274963318,0.061461892178654665
1767708907547331600,4.87133154296875,-0.0572124180406332,0.007143515079095959,0.0370130950987339
1767708907557332500,4.88133251953125,-0.06863335471060127,0.009029803749732673,0.03261924405395984
1767708907567332600,4.89133251953125,-0.07951715229656547,-0.003061506462469697,0.0045972646623849865
1767708907577332500,4.90133251953125,-0.06461889490485191,-0.01481341038616374,-0.020873861202597616
1767708907587332600,4.91133251953125,-0.07597202703561633,0.010852361268084495,-0.04035772935152054
1767708907597333800,4.921333740234375,-0.06637772127091884,0.02216439420348033,-0.05356149431765079
1767708907607333600,4.931333740234375,-0.02381517535150051,0.019510427362285553,0.00848667331635952
1767708907617333800,4.941333740234375,-0.00762687814924866,-0.02239991999240592,0.038920974546670914
1767708907627333600,4.951333740234375,0.004545205681584775,-0.06652779726609587,0.058254036048054694
1767708907637333500,4.96133349609375,0.0002548515439033508,-0.06432303549712523,0.03180909671485424
1767708907647334700,4.971334716796875,0.011050422857142984,-0.04368084589224309,0.001799158376455307
1767708907657334500,4.98133447265625,0.008572634566761553,-0.03218136409334838,0.009953823259472847
1767708907667334700,4.991334716796875,-0.02489654084742069,-0.0272050552518107,0.003877718216180801
1767708907677334500,5.00133447265625,-0.05804653077721596,-0.03851816589944065,-0.004013327294588089
1767708907687335400,5.01133544921875,-0.01857256199028343,-0.06184044316746294,0.03404489294290542
1767708907697335800,5.021335693359375,0.06897771116886288,-0.06751748415688053,0.04625730878412723
1767708907707335700,5.031335693359375,0.08286828935537487,0.0006789404411800205,-0.009290975436568259
1767708907717335800,5.041335693359375,0.006017104865051806,0.03227908884678036,-0.03880582373440265
1767708907727336700,5.051336669921875,-0.057414662614464755,0.038691860232222826,-0.05575578949153423
1767708907737336600,5.061336669921875,-0.04510930779278278,0.021875092400703577,-0.05834755955040455
1767708907747336700,5.071336669921875,-0.04666409948673099,0.02140126434387639,-0.05840834982693195
1767708907757336600,5.081336669921875,0.01361296682152897,-0.031411439166776835,0.02082885301709175
1767708907767337500,5.09133740234375,0.017101320393942295,-0.01991323600951582,0.029738720181584355
1767708907777337600,5.101337646484375,0.04927925042118877,-0.03217023991113528,0.017401801177859305
1767708907787337500,5.11133740234375,0.11661328603625297,0.01032203551735729,0.014952654460072516
1767708907797337600,5.121337646484375,0.11752342315111308,0.01057573628379032,0.014987725773453711
1767708907807338800,5.1313388671875,0.07124445052444935,0.01835842604925856,-0.019016250637173653
1767708907817338600,5.141338623046875,0.06153901253547519,0.025242486474569885,-0.01799625993967056
1767708907827338800,5.1513388671875,0.042567222094535825,-0.023808983072731642,0.030565234133601186
1767708907837338600,5.161338623046875,-0.012373122828267514,-0.05246608203006908,0.0073918638169765466
1767708907847339500,5.171339599609375,-0.014244798451662063,-0.05418740766365081,0.007338672325015068
1767708907857339600,5.181339599609375,0.027568974927067755,-0.05236534333564341,0.007100187394022941
1767708907867339500,5.191339599609375,-0.04151742078065872,-0.027291327029466628,0.002664250773191452
1767708907877339600,5.201339599609375,-0.051953584196977314,-0.009918185690511018,-0.00029810616374015806
1767708907887340500,5.211340576171875,-0.030916531789302825,0.007125705427769571,-0.011331541353464127
1767708907897340400,5.22134033203125,-0.03457973047196865,0.005267218079511076,-0.011453706428408622
1767708907907340500,5.231340576171875,-0.042406478574872015,0.07045839644698426,-0.0719306792229414
1767708907917340400,5.24134033203125,0.036806210882402955,0.09887669994607567,-0.064797758603096
1767708907927341800,5.251341796875,0.015791443371772764,0.07384160914449021,-0.015480477726459503
1767708907937341700,5.261341796875,0.009852700972557067,0.07345969715481623,-0.01571370196044445
1767708907947341600,5.271341552734375,0.011455423461459576,0.07137492677001282,-0.042317046725749964
1767708907957341700,5.281341796875,0.003680734339356422,0.07480000584786757,-0.049049569851160046
1767708907967342600,5.291342529296875,-0.0253448691368103,0.046059064531978215,-0.02198912896811962
1767708907977342700,5.3013427734375,-0.023856128416396675,0.049996915437560525,0.016277765583992004
1767708907987342600,5.311342529296875,-0.05238952792882919,0.045507184536568816,0.04738602055311203
1767708907997342500,5.321342529296875,-0.09610182840526103,0.044480015179608014,0.02823065370619297
1767708908007343600,5.331343505859375,-0.04045771912727505,0.0185922713377513,-0.004358195209503174
1767708908017343500,5.341343505859375,-0.02610825472474098,0.027526578823756424,0.015886135917901993
1767708908027343600,5.351343505859375,-0.04113981963992119,0.014421470192819833,0.08551321437358855
1767708908037343500,5.361343505859375,-0.03275777574181556,-0.029053477863781152,0.13856442108154296
1767708908047343600,5.371343505859375,-0.09272095379531382,-0.019105700752604753,0.1902718119651079
1767708908057344800,5.3813447265625,-0.04485620981454849,-0.053330882165860384,0.2328752744168043
1767708908067344600,5.3913447265625,0.004579692473076284,-0.035261082065943625,0.19590835654735564
1767708908077344800,5.4013447265625,-0.059386254948377605,0.0146804864551872,0.13411971663236616
1767708908087344600,5.4113447265625,-0.08968494710028171,0.06495442873584106,0.07174655482769011
1767708908097345500,5.421345458984375,-0.09811083014011382,0.07595076505187899,0.014300912553071974
1767708908107345700,5.431345703125,-0.13802786651942878,0.08393557152701542,-0.014756255105137825
1767708908117345500,5.441345458984375,-0.12449443120751529,0.0165865940711461,-0.05402502017617225
1767708908127346400,5.451346435546875,-0.1078981011936441,-0.008108652050513773,-0.11410276452004908
1767708908137346600,5.4613466796875,-0.07446111101601273,-0.04256137687563896,-0.1122071600317955
1767708908147346400,5.471346435546875,-0.06009180940184742,-0.06665277535263449,-0.08679331731200218
1767708908157346600,5.4813466796875,-0.07538871072232722,-0.04143609917275607,-0.12735972097814083
1767708908167346700,5.4913466796875,0.008394318857789039,-0.04278230788363144,-0.06899579481482505
1767708908177347600,5.50134765625,0.0623930355489254,-0.022355715524498374,0.037566637328267094
1767708908187347700,5.51134765625,0.05621814630627632,-0.024084840872045606,0.03744681034088135
1767708908197347600,5.52134765625,-0.011857044798601418,-0.001136931608058512,0.041516251736879346
1767708908207347700,5.53134765625,-0.06337914224313572,0.03361515975613147,-0.043458617976307866
1767708908217348600,5.5413486328125,-0.08972995528578757,0.030588359280861913,-0.048238837990164755
1767708908227348500,5.551348388671875,-0.07470598915517329,0.022442206497862934,-0.01651274338364601
1767708908237348600,5.5613486328125,0.008456259911786765,0.021224026347137985,0.020141455274820325
1767708908247348500,5.571348388671875,-0.0004471592456102371,0.0209331536417827,0.019970774883031842
1767708908257349400,5.581349365234375,0.0707347657029517,0.01344433225635439,-0.0077484221696853635
1767708908267349800,5.591349853515625,-0.004375712599884719,0.00859718448612839,-0.027113047853112218
1767708908277349600,5.601349609375,-0.012500548600219189,-0.0014678988617844878,-0.006848258459568024
1767708908287349800,5.611349853515625,0.07551557023869827,-0.022593762064073233,0.027044658792018887
1767708908297350700,5.6213505859375,0.06275779547439887,-0.021400716354604808,0.02684942848086357
1767708908307350500,5.6313505859375,0.2844546550065279,-0.0044380372463725505,0.05332885460555553
1767708908317350700,5.6413505859375,0.31865269268453117,-0.03641867286954075,0.09239829771220684
1767708908327350500,5.6513505859375,0.22956454243361948,-0.02087322188178077,0.11428455082774161
1767708908337351700,5.6613515625,0.11041851391620001,0.0028957031751982868,0.10956395204663276
1767708908347351000,5.67135107421875,0.10245908847749233,0.0024794687908142802,0.10950257724821567
1767708908357351200,5.68135107421875,0.04519640612092334,-0.026735117918811738,0.09943418769836425
1767708908367351000,5.69135107421875,-0.0013198504269123076,-0.02885864941142499,0.08578326348662375
1767708908377352000,5.70135205078125,0.016759416187671013,-0.006543996549677103,0.07453004806637764
1767708908387352000,5.71135205078125,-0.0002034136176109314,-0.008547536658123136,0.03125964613854885
1767708908397352000,5.72135205078125,-0.006910222346452065,-0.00886628375109285,0.031232173609733578
1767708908407352000,5.73135205078125,0.0704997742035659,-0.016032248124014586,-0.05768062007427215
1767708908417353200,5.741353271484375,0.08604688285887241,-0.040830753690749406,-0.07879647333920002
1767708908427353000,5.75135302734375,0.08023030553460121,-0.041696741136629134,-0.07879822690486908
1767708908437353200,5.761353271484375,0.08512100018560886,-0.04960669227726757,-0.04631225384175777
1767708908447353000,5.77135302734375,0.08921616054475306,-0.0445319280299358,0.007734393644332886
1767708908457354000,5.78135400390625,0.059174073502421376,-0.060764922890439624,0.06239595815837383
1767708908467354000,5.79135400390625,0.055606736409664154,-0.047881804713420566,0.0679834029018879
1767708908477354000,5.80135400390625,0.07404957107305526,-0.05096771496478468,0.0958680196493864
1767708908487354000,5.81135400390625,0.05103577523231506,-0.04084321131352335,0.06464578291177749
1767708908497355000,5.82135498046875,-0.018972411495447157,-0.038354992960672823,0.007237550038099288
1767708908507355000,5.83135498046875,-0.03887655088305473,-0.05519353423258289,-0.0042407063096761705
1767708908517355000,5.84135498046875,-0.04106383179426193,-0.05703671441385522,-0.0793202049523592
1767708908527355000,5.85135498046875,0.015694412738084793,-0.028193700962979344,-0.03887771992683411
1767708908537356000,5.86135595703125,0.028521165651944465,0.004338851188216358,0.02894435493350029
1767708908547356200,5.871356201171875,0.00575754517999012,0.002675776814203709,0.07267302202284336
1767708908557356000,5.88135595703125,-0.03309680300441105,0.010532445131335407,0.07465572027266025
1767708908567356200,5.891356201171875,-0.008883568246033974,0.027203904474340377,0.04984919579625129
1767708908577357000,5.901357177734375,0.0117944826900959,0.03142263641422614,0.03625906186103821
1767708908587357000,5.91135693359375,0.008793547308444977,0.02695354644246399,-0.006964578315615653
1767708908597357000,5.921357177734375,-0.00004091653227806091,0.02628876239079982,-0.01368365743756294
1767708908607357000,5.93135693359375,0.006607435441017151,0.01884827365912497,0.025680969223380087
1767708908617358000,5.941358154296875,-0.02039631138530094,0.01657011786038056,0.06759060419201851
1767708908627358000,5.95135791015625,0.04266191007408779,0.003919201004039496,0.10934826346933842
1767708908637357800,5.96135791015625,0.05250993943810463,-0.021481581304781137,0.10995090553760528
1767708908647358200,5.971358154296875,0.02776712784767151,-0.02119355814363807,0.07703004818856715
1767708908657359000,5.981359130859375,0.01742225487742107,-0.03807880636779591,0.021658289578557012
1767708908667359200,5.991359130859375,0.024089311551186255,-0.022826072982605545,0.026435586982965466
1767708908677359000,6.001359130859375,0.023251111727952956,-0.022336554166302085,0.02643149532973766
1767708908687359000,6.01135888671875,0.1483458195167128,-0.041236192686483264,0.03750935418307781
1767708908697360100,6.021360107421875,0.14635493796044027,-0.04098884859560057,0.03751987557709217
1767708908707360000,6.031360107421875,-0.04542903213328681,-0.0027748167418874797,-0.018583119916915893
1767708908717360000,6.041360107421875,-0.07310498369932174,-0.013868658615648746,0.011798574343323707
1767708908727360000,6.051360107421875,0.003113154451316222,-0.020841219308320433,0.0052110126465559
1767708908737361000,6.06136083984375,0.05844633461660705,-0.02637388339098543,-0.0030377602607011794
1767708908747361300,6.071361328125,0.0577484246134758,-0.025128449907153842,-0.00305646496117115
1767708908757361200,6.081361083984375,0.052119478815793985,0.022413546658959237,0.004255319356918335
1767708908767361300,6.091361328125,0.11287350585288368,0.009788147836364804,0.036252632120251656
1767708908777362200,6.101362060546875,0.10696515859193167,0.010036788835190236,-0.0002852466821670532
1767708908787362000,6.111362060546875,0.05741056182808242,-0.011947517827339469,-0.027839024040102956
1767708908797362200,6.121362060546875,0.05791325978636741,-0.011342117546405642,-0.027854806131124496
1767708908807362000,6.131362060546875,-0.05114215821623802,-0.030130258516129105,-0.10702069730460644
1767708908817363000,6.141363037109375,0.014442366850376129,-0.02415898382049054,-0.11255962673127651
1767708908827363000,6.151363037109375,0.09330606934004462,-0.037615664101764555,-0.0624234306871891
1767708908837363000,6.161363037109375,0.08060323050022125,-0.0560367435910739,-0.027397125491499898
1767708908847363000,6.171363037109375,0.07888589605516753,-0.05614915445698425,-0.027380758878588676
1767708908857364200,6.1813642578125,-0.013082768934965133,-0.004053019984159618,0.04146890546381473
1767708908867364000,6.191364013671875,-0.03113047593408264,-0.00008912132186815142,0.05240121836662292
1767708908877364200,6.2013642578125,-0.028518822997808453,0.010832396192289888,0.053749125844240186
1767708908887364000,6.211364013671875,-0.0066238111870829015,-0.023287041557859628,0.07424655494987964
1767708908897365000,6.221364990234375,-0.00682487758398056,-0.02288936574347317,0.07424129425287246
1767708908907365000,6.231365234375,-0.04636661437749862,-0.039694625800289214,0.07288695703446865
1767708908917365000,6.241364990234375,-0.03976970946365036,-0.05187836353629827,0.08529343414306641
1767708908927365000,6.251365234375,-0.00019873744249343872,-0.04706482577472925,0.08018529734909534
1767708908937366000,6.261365966796875,0.02279869178533554,-0.03761270495969802,0.0382633874207735
1767708908947366000,6.271365966796875,-0.014500819039344786,-0.009539726033248007,0.032550270470976826
1767708908957366000,6.281365966796875,0.007758934430545195,-0.01660117058577016,0.05691138926744461
1767708908967366000,6.291365966796875,-0.06469488731708843,-0.009961531641893088,0.014838088169693946
1767708908977367000,6.301366943359375,-0.1129097644763533,-0.001875822075549513,0.032623920229077334
1767708908987367200,6.3113671875,-0.11051673185997642,0.008380820055399089,0.02062894653081894
1767708908997367000,6.321366943359375,-0.12323242104821838,0.006455423217080533,-0.011267828467488288
1767708909007367200,6.3313671875,-0.10940261487192474,0.02169991849688813,-0.04092354654073715
1767708909017368000,6.3413681640625,-0.03866728291339241,0.040006559559982266,-0.06234744284152984
1767708909027368200,6.3513681640625,-0.02688916683620773,0.02795320673799142,-0.030947511449456212
1767708909037368000,6.3613681640625,-0.044086969874566416,0.03464379041781649,-0.012568974193930625
1767708909047368000,6.371367919921875,-0.022022446715831756,0.02420715207746252,-0.0022743746727705
1767708909057369000,6.381369140625,0.006218143862485885,-0.010216967707686125,-0.010538929671049118
1767708909067369000,6.391368896484375,-0.014376891265576704,-0.025374095231294632,0.0024456395864486695
1767708909077369000,6.401369140625,-0.004520696861413307,-0.018483513733651487,0.042810967722535134
1767708909087369000,6.411368896484375,0.019907646518945693,-0.048668333714921026,0.023624036693572995
1767708909097370000,6.4213701171875,-0.029282199452584607,-0.04113744501974433,0.028984102421998975
1767708909107370200,6.431370361328125,-0.05094927055921871,-0.031047848285082724,0.03135726129412651
1767708909117370000,6.4413701171875,-0.04545944553785957,0.01493175780251622,-0.012357377269864082
1767708909127370200,6.451370361328125,-0.013725743013620376,-0.01719935567462817,0.0022872341543436047
1767708909137371100,6.46137109375,-0.025902503019571303,-0.013353018977399914,0.010945172384381294
1767708909147371000,6.47137109375,-0.02462590264591854,-0.012610402182862163,0.010925883162021637
1767708909157371100,6.48137109375,-0.028910452663898467,-0.003532010051049292,0.024824060133099554
1767708909167371000,6.49137109375,-0.01251460909161251,0.02568124321801588,0.05294423920214176
1767708909177372000,6.501371826171875,0.015028057783842086,0.03286463364977389,0.05921732812225818
1767708909187372000,6.5113720703125,-0.006785134662059135,0.058256136673595756,0.05187339510023593
1767708909197372000,6.521371826171875,-0.004823479200270958,0.05876017720559611,0.051855274921655654
1767708909207372000,6.5313720703125,0.003951363407704048,0.05674648102931678,0.07143500466048718
1767708909217373200,6.541373291015625,0.03167641024589538,0.017384740445204078,0.09190613028109074
1767708909227373000,6.551373046875,0.04820668928623199,-0.029010533771198242,0.05446574968099594
1767708909237373200,6.561373291015625,0.0185784437417984,-0.0482391667837277,0.006856441766023636
1767708909247373000,6.571373046875,0.022207155632972715,-0.04775558451786637,0.006835983499884605
1767708909257374000,6.5813740234375,0.07360650348067284,-0.04349264811007306,-0.04465454976260662
1767708909267374000,6.5913740234375,0.04981996970176696,-0.04212046470772475,-0.05678688610494136
1767708909277374000,6.6013740234375,0.001388821726606693,-0.010742507685441523,-0.0710071346372366
1767708909287374000,6.6113740234375,0.03558452360033989,-0.022133761603198944,-0.03165244484841823
1767708909297375000,6.621375,0.04088146096467971,-0.02255680932085961,-0.031651860326528544
1767708909307374800,6.631374755859375,0.03896306012272834,-0.004746062015928328,-0.02072130098938942
1767708909317375200,6.641375244140625,0.04985153388381004,-0.03741957527408376,0.016246785923838613
1767708909327375000,6.651375,0.06688041009604931,-0.021941307771019637,0.013559738796949385
1767708909337376000,6.6613759765625,0.038974166038632393,-0.03974270272571593,0.00952536871433258
1767708909347375600,6.671375732421875,0.03956161053776741,-0.04015882751224562,0.009532382977008818
1767708909357375700,6.681375732421875,-0.034844518887996674,-0.005611866798717528,0.006993219888210296
1767708909367375600,6.691375732421875,-0.0365904857724905,-0.006140420717466622,0.007001403194665908
1767708909377376800,6.701376708984375,-0.05454173752665519,0.02271154322484508,-0.028304303464293478
1767708909387377000,6.711376953125,-0.030301614761352538,0.020082162835635242,-0.02260170790851116
1767708909397376800,6.721376708984375,-0.016268997755646705,0.02252878880277276,-0.006565934386849403
1767708909407376600,6.731376708984375,-0.031048049214482305,0.0288033390276134,-0.025095862811803815
1767708909417377800,6.741377685546875,-0.013438158243894577,0.03736477634692564,0.00964519570171833
1767708909427377700,6.751377685546875,0.009988310050964355,0.03772195575414225,0.02388005728125572
1767708909437377800,6.761377685546875,-0.03914893808364868,0.008630191706586628,0.014915245059132574
1767708909447377700,6.771377685546875,-0.002994505640864372,0.00200271812453866,0.05562368754446506
1767708909457378600,6.781378662109375,0.00585281768143177,-0.014900869473908096,0.021659458622336387
1767708909467378700,6.791378662109375,0.008166939842700957,-0.012849288972653448,-0.002129997766017914
1767708909477378800,6.80137890625,0.0015694401321641634,-0.003963642933964729,0.011039280408620834
1767708909487379000,6.81137890625,0.014388006314635276,-0.004351381876226515,0.019717092382907867
1767708909497379800,6.8213798828125,-0.03624562014086405,-0.015199213099665938,0.0034054245293140407
1767708909507379700,6.831379638671875,-0.07374211255908011,-0.04351208346290514,0.05607318487763405
1767708909517379800,6.8413798828125,-0.06236907015144825,-0.06890071867620572,0.08060732215344905
1767708909527379700,6.851379638671875,-0.017424013009667394,-0.0638836759654805,0.07895604781508446
1767708909537380600,6.861380615234375,0.014470423901081084,-0.04894541535694152,0.06788111157119274
1767708909547380700,6.871380615234375,0.02326689838555176,-0.012247176627349107,0.06848609172701835
1767708909557380600,6.881380615234375,-0.0390939975925954,0.0038367468849755822,0.028244682231545446
1767708909567381500,6.891381591796875,-0.08445873688459396,-0.006871438405755907,0.02780804437994957
1767708909577382000,6.9013818359375,-0.06117781910684425,-0.012972221232578157,0.06642389850020408
1767708909587381800,6.9113818359375,-0.04018237278461456,-0.011089604090061038,0.04787117372155189
1767708909597382000,6.9213818359375,-0.03796294773605186,-0.010498762057442218,0.04787000467777252
1767708909607382800,6.9313828125,0.01105681606531143,0.0001201375146396458,-0.01812310118973255
1767708909617382700,6.941382568359375,0.01776245118379593,-0.0017368337299674748,-0.0535918894559145
1767708909627382800,6.9513828125,0.01812836188673973,0.001294131463766098,-0.07589198406934737
1767708909637382700,6.961382568359375,0.04017710752103012,0.004810852614138275,-0.07634265044629573
1767708909647383800,6.9713837890625,0.041537294524908064,0.0054065717512741685,-0.07634615757763386
1767708909657383700,6.9813837890625,0.01878945614397526,0.01095527365328744,0.005648819541931152
1767708909667383600,6.991383544921875,0.0315057298541069,-0.0009497932718135416,0.013874796095490454
1767708909677383700,7.0013837890625,0.03291383851978462,-0.0003931275034323334,0.013874211573600768
1767708909687384800,7.011384765625,0.0030436054795980453,-0.014030625978019087,0.00878770208954811
1767708909697385000,7.021385009765625,0.004016834425926208,-0.014069551482610404,0.008793547308444977
1767708909707384800,7.031384765625,-0.004799504669639282,-0.026679350877273827,0.026304654079675673
1767708909717384700,7.041384765625,-0.015350129345059393,-0.0027865254459902645,0.014484452426433562
1767708909727385900,7.0513857421875,-0.009933954081800766,0.004794796528480947,0.003712298521399498
1767708909737385700,7.0613857421875,0.018950775052374226,0.00073571212971583,0.019424831438064574
1767708909747385900,7.0713857421875,0.020172439501550978,0.0011028101427480578,0.019426000481843946
1767708909757385700,7.0813857421875,-0.04468903655409813,0.01339059277512133,-0.01618774921298027
1767708909767386600,7.09138671875,-0.020796115224692036,0.022642003386281428,0.010744681376218795
1767708909777386800,7.10138671875,-0.021923073428007773,0.01882363240821287,-0.016046879437565803
1767708909787386600,7.11138671875,-0.05079144964900333,0.03873776346687227,-0.023533435800671576
1767708909797386800,7.12138671875,-0.053307811817526814,0.03802380651123821,-0.023535773888230322
1767708909807388000,7.131387939453125,0.06087210502538364,0.051927810434903944,0.02345043369233608
1767708909817387800,7.1413876953125,0.10211071343123912,0.028005046523083,0.011931260812282561
1767708909827388000,7.151387939453125,0.07342354812920093,0.0180663843001239,0.04441197317838669
1767708909837387800,7.1613876953125,0.07325695939064025,0.01701163281649351,0.044428924313187595
1767708909847388700,7.171388671875,0.002210657220217399,0.00009368789913132786,0.03636953649818897
1767708909857388800,7.181388916015625,-0.04905074346151668,0.021348218982387333,-0.005803717842698097
1767708909867388700,7.191388671875,-0.018300211322307587,0.0027841508258134124,0.02205927159488201
1767708909877388800,7.201388916015625,-0.019940959700080564,-0.01607561234170571,-0.0025987843215465544
1767708909887389700,7.2113896484375,-0.06488133610016666,-0.02458356590811163,-0.03698445352613926
1767708909897389600,7.2213896484375,-0.03770691801521461,-0.06145900610182434,-0.018103811967372894
1767708909907389700,7.2313896484375,-0.04851765493154526,-0.07115982271460816,-0.009855039060115813
1767708909917389600,7.2413896484375,-0.002351531562209129,-0.06460546916769817,0.0010877952367067335
1767708909927390700,7.251390625,0.015098204977181739,-0.04541577992606908,0.03627192134261131
1767708909937390800,7.261390869140625,-0.00017009130332153288,-0.03142528502903878,0.024171149182319638
1767708909947390700,7.271390625,-0.010465864434838294,-0.014962901859451084,0.010872107148170471
1767708909957390800,7.281390869140625,-0.04967325470745563,-0.005479929248429835,-0.018891162952780722
1767708909967391700,7.291391845703125,-0.06078034422185737,-0.00799594892365858,-0.040431379109621045
1767708909977391600,7.3013916015625,-0.03688450484958011,-0.017555512168537825,-0.016187164691090584
1767708909987391700,7.311391845703125,0.0034235424246056934,-0.0071960672502405934,0.06925415349006653
1767708909997391600,7.3213916015625,0.011933012094662989,-0.004379785986803472,0.11818564991950987
1767708910007392800,7.331392822265625,-0.047323476710915566,0.01468837750069797,0.07913374246954917
1767708910017392600,7.341392578125,-0.09192191237211227,0.03958720163675025,0.03140051591396332
1767708910027392500,7.351392578125,-0.06911737536787986,0.046744854839053,-0.0003232406049966812
1767708910037394000,7.361393798828125,0.011240940460562706,0.013979827372543514,0.017630933758616445
1767708910047393800,7.371393798828125,0.06682897216975689,-0.034900523391552266,0.05369768791794777
1767708910057393700,7.3813935546875,0.03464344335794449,-0.011902655772306025,-0.0016647183418273925
1767708910067393800,7.391393798828125,0.05140636211037636,0.0060510619335807855,-0.030688568252325056
1767708910077394700,7.401394775390625,-0.011221067857957677,0.01739495131196454,-0.04848492170572281
1767708910087394800,7.411394775390625,-0.07683481787741184,0.0041301951399073,0.002402384966611862
1767708910097394700,7.421394775390625,-0.07714636804461479,0.0036190672799944873,0.0024117373168468475
1767708910107394800,7.431394775390625,0.0033604169146303317,-0.01909273167317733,0.09295008637607097
1767708910117395700,7.441395751953125,0.11772387762665748,-0.04354436003100127,0.08891630081534385
1767708910127395600,7.4513955078125,0.12713351100683212,-0.04356920221131295,0.04314005354642868
1767708910137395700,7.461395751953125,0.06413841791152954,-0.028431071649119257,-0.0035270050823688506
1767708910147395800,7.471395751953125,0.06494739620685577,-0.02969831510595977,-0.0035012861192226406
1767708910157396700,7.481396728515625,-0.024470424389839172,-0.022117248859815298,0.028846155256032943
1767708910167396900,7.49139697265625,-0.023608839124441144,-0.019634839193243533,0.015408581534028052
1767708910177396700,7.501396728515625,-0.0872714562177658,-0.019521204484626648,0.001370119309425354
1767708910187396900,7.51139697265625,-0.06423778663277625,-0.013750219867751002,-0.049178164666891094
1767708910197397800,7.521397705078125,-0.06422083549797535,-0.015006503539159893,-0.049152445703744885
1767708910207397600,7.531397705078125,-0.017392447685980004,0.0033107319831848143,-0.0422504112303257
1767708910217397800,7.541397705078125,-0.024632921475172043,0.0014122596844099462,-0.05704582930207252
1767708910227397600,7.551397705078125,-0.03442600121498108,0.019614399193413554,-0.06435702909827232
1767708910237398500,7.5613984375,-0.01633972490429878,0.014379037556890397,-0.028426468539237974
1767708910247398700,7.571398681640625,-0.01693885984122753,0.013574534507282077,-0.028410686448216437
1767708910257398800,7.581398681640625,0.027881694138050077,-0.03374695117594674,0.0702133539110422
1767708910267399000,7.59139892578125,-0.008991699087404412,-0.02123268457762897,0.04448913006782532
1767708910277399800,7.60139990234375,0.018534605741716222,-0.038531134978868065,-0.0077197805970907205
1767708910287399700,7.611399658203125,0.08047229759693145,-0.04980696408972144,0.03479775713682175
1767708910297399800,7.62139990234375,0.08118073812723159,-0.05080251446571201,0.03481938444674015
1767708910307400700,7.631400634765625,0.10554828666448593,-0.09169478908535092,0.08242810783982277
1767708910317400600,7.641400634765625,0.06167465814650058,-0.10075623008236288,0.01990823104083538
1767708910327400700,7.651400634765625,0.033570845690369604,-0.09558054447751492,-0.0058019642770290375
1767708910337400600,7.661400634765625,0.009026771542429923,-0.07300415367335081,-0.0033750293910503387
1767708910347401700,7.671401611328125,-0.013970072021865051,-0.06033310734443366,-0.030571663874387738
1767708910357402600,7.681402587890625,-0.030895489001274107,-0.03248980898801237,-0.012728548669815062
1767708910367402500,7.691402587890625,0.0077402388632297515,-0.030581911273766308,0.000481061515212059
1767708910377402600,7.701402587890625,0.04036766622364521,-0.0408682178906165,0.011004209095239638
1767708910387403500,7.711403564453125,-0.00007306523621082306,-0.03936948549915105,0.003418284010887146
1767708910397403400,7.7214033203125,-0.019580898782610892,-0.03832898173658177,0.013640987339615822
1767708910407403500,7.731403564453125,-0.006633152120874728,-0.035767716413829476,0.014585574713349342
1767708910417403400,7.7414033203125,-0.005046759712265338,-0.017711944839265196,0.02839256626963615
1767708910427404300,7.751404296875,-0.03081949887232622,-0.04692265909137204,0.03052373307943344
1767708910437404400,7.761404296875,-0.05709960531592369,-0.010158204991463572,0.020228549036383627
1767708910447404300,7.771404296875,-0.035371755349205336,0.006638944824133068,0.02443944472968578
1767708910457404400,7.781404296875,0.010082420358492527,0.013918945764470845,0.03867079917788505
1767708910467405600,7.791405517578125,0.03036649897439638,-0.01950602518180385,0.04707037873268127
1767708910477405400,7.801405517578125,0.012814475670887622,-0.04490872545307502,0.02075871039032936
1767708910487405600,7.811405517578125,-0.010307456719444599,-0.05255556867811829,0.015401567271351814
1767708910497405400,7.821405517578125,0.014115036875440273,-0.054912507067807016,0.010047346761822699
1767708910507406600,7.831406494140625,0.02844459100110689,-0.054317756045050916,-0.008327683362364769
1767708910517406500,7.841406494140625,0.040029812571406365,-0.049891135241836304,-0.014579729494452475
1767708910527406300,7.85140625,0.027374329137802123,-0.026822796202264725,0.006404606345295906
1767708910537406500,7.861406494140625,0.034871406894922255,-0.005701974501274526,0.005085340440273285
1767708910547407400,7.871407470703125,0.03602467086656252,-0.0067578950286842875,0.005113982012867928
1767708910557407500,7.881407470703125,0.06483925965726375,0.028570279190409928,0.05047112708687782
1767708910567407400,7.891407470703125,0.07853168492317199,0.0038509946060366926,0.03283142549991608
1767708910577407500,7.901407470703125,0.018261050638987215,0.01824212445951998,-0.00021685762107372282
1767708910587408600,7.91140869140625,0.005534837773442268,0.011697506855335086,-0.012763035461306572
1767708910597408500,7.921408447265625,0.005678625591727905,0.010590020537469536,-0.012734393888711929
1767708910607408600,7.93140869140625,-0.053442836374044414,0.014819018143042921,0.009285714739561081
1767708910617409500,7.941409423828125,-0.10144845013022422,0.030547314884420484,-0.006694529202580452
1767708910627409400,7.951409423828125,-0.07856032649576664,0.041978736415784805,-0.02492050624489784
1767708910637409500,7.961409423828125,-0.016508649447129573,0.015129088739212601,-0.03312310192286968
1767708910647409400,7.971409423828125,-0.01793663870692253,0.013953432555962353,-0.03309738295972347
1767708910657410300,7.981410400390625,0.02590133397579193,0.004824826340563595,0.019894787037372588
1767708910667410400,7.991410400390625,0.04805296002924442,0.013200897155608982,-0.00417231724858284
1767708910677410300,8.001410400390625,0.04720364972352981,0.01189324862314388,-0.004140753066539764
1767708910687410700,8.01141064453125,0.1160410391062498,-0.03291824526684359,0.07848316960632801
1767708910697411600,8.02141162109375,0.11470891371965408,-0.033473778524063524,0.07849486004412173
1767708910707411500,8.031411376953125,0.03440846784157911,-0.10346589089985936,0.11350596767067908
1767708910717411600,8.04141162109375,0.09038637336790561,-0.10962691601393744,0.019075871869921684
1767708910727411500,8.051411376953125,0.10817162090539932,-0.02633313125548884,-0.019518939462304114
1767708910737412400,8.061412353515625,0.10277063864469528,-0.002329557192418724,0.07297521983981133
1767708910747412500,8.07141259765625,0.1051923128336668,-0.0026620405497960746,0.07299041740894317
1767708910757412400,8.081412353515624,0.012713353383971842,0.027173509336076675,-0.04580956501662731
1767708910767412500,8.09141259765625,0.04169569995701313,0.022119970539864153,-0.06434183152914047
1767708910777413400,8.101413330078126,0.045026305684447286,0.021404460947960613,-0.06431260543465614
1767708910787413500,8.11141357421875,0.05451368047595024,0.00523868610477075,0.016219897916913032
1767708910797413600,8.12141357421875,-0.0196066177457571,-0.0018143742118962108,0.006516250026226043
1767708910807414500,8.13141455078125,-0.0845528449088335,0.021138558287080375,-0.03580547287464142
1767708910817414400,8.141414306640625,-0.03863747686359566,0.03298555661570281,-0.06584639087319373
1767708910827414500,8.15141455078125,-0.00961888765010517,0.03871357887368649,0.0013771335721015929
1767708910837414400,8.161414306640625,-0.030234979265928268,0.033548104135598986,0.03897591960430145
1767708910847415600,8.17141552734375,0.025810148561000824,0.02550243431869894,0.028999884513020515
1767708910857415400,8.18141552734375,0.09030454030334949,0.016190872751828282,0.05106149419546127
1767708910867415600,8.19141552734375,0.09748305363059043,-0.02484387907842174,0.06817629512548447
1767708910877415400,8.20141552734375,0.04728431374430656,-0.001059902582783252,0.09321312122642994
1767708910887416300,8.211416259765626,0.05235913279056549,0.009131510558538138,0.12347615754306315
1767708910897416700,8.221416748046876,0.04608312582757789,-0.004510901553183793,0.0700835900515318
1767708910907416600,8.23141650390625,-0.03841594306740444,-0.021354265130683777,-0.007715688943862915
1767708910917416400,8.24141650390625,-0.061902612550323824,0.017413528148271143,-0.012953005075454712
1767708910927417600,8.25141748046875,-0.07426817769322078,0.02199541257843375,0.02145136882960796
1767708910937417500,8.26141748046875,-0.0403898780554533,0.0013949066908098757,-0.00324818814098835
1767708910947417600,8.27141748046875,0.03979249668419361,0.020199140278808772,-0.011933598899841307
1767708910957417500,8.28141748046875,0.06035947476155124,0.03188039011908695,0.04297931002676487
1767708910967418400,8.29141845703125,0.03375789269506931,0.020327114040032027,-0.002212415352463722
1767708910977418500,8.30141845703125,0.007384274165565147,0.015988025389797985,-0.031686931639909745
1767708910987418400,8.31141845703125,-0.037148699610563926,0.045519897887669504,-0.004898293435573578
1767708910997418500,8.32141845703125,-0.017653730112314223,0.022363789233099667,0.002434533670544624
1767708911007419600,8.331419677734376,0.01738600995368324,0.04082773974975571,0.03415653662383556
1767708911017419500,8.34141943359375,0.03616728279120288,0.04223645577020943,0.04702946220040321
1767708911027419600,8.351419677734375,0.013155834171175955,0.010441241450235247,0.017853636598587037
1767708911037420500,8.361420654296875,0.002270287586119957,0.0314993183796294,-0.04020458461642265
1767708911047420400,8.37142041015625,0.00154021517932415,0.03137320778192952,-0.0402069227039814
1767708911057420500,8.381420654296875,0.01812134762406349,0.00886776332212612,0.008277999001741409
1767708911067420400,8.39142041015625,-0.027115979595715177,0.009206603355053812,0.007976385706663132
1767708911077421300,8.40142138671875,-0.055408008100325236,0.013445483033824712,0.024731705674529075
1767708911087421400,8.41142138671875,-0.02667232748144306,0.014961477087344974,-0.008043605723977089
1767708911097421300,8.42142138671875,-0.028049461053544653,0.014882183039747178,-0.008051204508543014
1767708911107421400,8.43142138671875,0.07494038699951489,0.009630856649111955,0.006014730244874954
1767708911117422600,8.441422607421876,0.07690787398046814,0.005510324386693537,0.0290659354865551
1767708911127422500,8.45142236328125,0.058767246267199515,-0.01857458955058828,0.0584060117393732
1767708911137422600,8.461422607421875,0.06657353610396385,-0.0016248064565472305,0.06007131460309028
1767708911147422500,8.47142236328125,0.06768237869527656,-0.001990845023654401,0.060088850259780884
1767708911157423600,8.481423583984375,-0.02403203297257423,-0.01459892738526687,-0.021741291686892508
1767708911167423500,8.491423583984375,0.02067512832668144,-0.0023338315087370574,0.008356909456849098
1767708911177423400,8.50142333984375,0.04400689950883388,-0.04922551093995571,-0.002848375168442726
1767708911187424500,8.511424560546875,0.03421031720426399,-0.03450014416342601,-0.009562778115272522
1767708911197424400,8.52142431640625,0.03433014419164974,-0.035197789305076,-0.009542319849133491
1767708911207424500,8.531424560546874,0.07374210342592559,-0.02142488268148154,0.01651274338364601
1767708911217424400,8.54142431640625,0.009307931137946434,0.0013099318210966883,0.041966333591938014
1767708911227425500,8.551425537109376,-0.05300093782544136,-0.003051496525108814,0.03179682175517082
1767708911237425700,8.56142578125,-0.012843694915506057,0.010054543687589465,0.015333178210258484
1767708911247425500,8.571425537109375,-0.01362929690182209,0.01042215315727517,0.015316811597347258
1767708911257425700,8.58142578125,0.015518476215866394,0.0012563932692632078,0.01289864453971386
1767708911267426600,8.591426513671875,0.009843933144211768,-0.01622333198301494,-0.011519172880053519
1767708911277426400,8.601426513671875,-0.012869409312075003,-0.01923044137712568,0.003863689690828323
1767708911287426600,8.611426513671875,0.0589344286608044,-0.024173341139405963,0.039597850894927976
1767708911297426400,8.621426513671874,0.09891220965087413,-0.005148140010796487,0.039276363855600356
1767708911307427300,8.63142724609375,0.0640875645071268,0.005492313805967569,0.04269640143215656
1767708911317427500,8.641427490234374,-0.012491241915756835,0.011231825572345405,0.05838613799512386
1767708911327427300,8.65142724609375,-0.0533826306194067,0.007984240219555796,0.029928689795732495
1767708911337427500,8.661427490234376,-0.05334522121846676,0.0019192958910949527,0.0013169278174638747
1767708911347428600,8.6714287109375,-0.0139326546294149,-0.008040482185129075,0.006824293062090874
1767708911357428700,8.6814287109375,0.08346212706267833,-0.018162629482522605,-0.010551789152622223
1767708911367428900,8.691428955078125,0.11547346835136413,0.0017324680821038782,-0.007573650124669075
1767708911377429800,8.7014296875,0.026396424016356466,0.0038541546775028106,-0.0017436287969350814
1767708911387429600,8.7114296875,-0.04936286445087753,0.009418602137919514,-0.06115501818656921
1767708911397429800,8.7214296875,-0.09132511552274226,0.01356328246090561,-0.04888999537527561
1767708911407430000,8.731429931640625,-0.08527063778936862,-0.002076660143584013,-0.020914777734875677
1767708911417430800,8.7414306640625,-0.0546896215647459,-0.0018698124598711728,-0.001924246060848236
1767708911427431000,8.751430908203124,0.0019762822087621315,-0.0017529263482429086,0.03681844930946827
1767708911437430800,8.7614306640625,0.011936526075867005,0.017163170116394757,0.04263970280885696
1767708911447431000,8.771430908203126,0.01488135192268528,0.02375529839042574,0.03245499340295791
1767708911457431800,8.781431884765626,0.035888484116131436,0.017303254440519958,0.024221418064832686
1767708911467431700,8.791431640625,0.047796948574716225,-0.013752466623764484,0.03858662802577018
1767708911477431800,8.801431884765625,-0.0075707229486433785,-0.02563738580998033,0.019886603730916975
1767708911487431700,8.811431640625,0.04093231893565971,-0.029603165902104225,0.04517477424442768
1767708911497432800,8.821432861328125,0.040891397836804386,-0.029543088011629876,0.04517243615686893
1767708911507432700,8.8314326171875,0.046566520863771436,-0.03162979462519288,0.06012859774827957
1767708911517432800,8.841432861328125,-0.0018938600557390599,-0.041981914753559973,0.058470309147238726
1767708911527434000,8.85143408203125,-0.022310031485557553,-0.05646368203256279,0.00997545056939125
1767708911537433900,8.861433837890624,-0.05921614994532429,-0.037497097489703445,-0.02939209870100021
1767708911547433700,8.871433837890624,-0.05893732843736652,-0.036827655529230834,-0.029408465313911437
1767708911557433900,8.881433837890626,-0.05628303736918606,-0.0065237757455557585,-0.05531622903048992
1767708911567434800,8.891434814453126,-0.03390050690299831,0.019478187326807526,-0.03304068433642387
1767708911577435000,8.901434814453125,-0.008116081871720962,0.04612159010786563,0.026049218013882637
1767708911587434800,8.911434814453125,0.005922964874771423,0.033981253122165794,0.042944823235273356
1767708911597435000,8.921434814453125,0.005106383228302001,0.034024178948439655,0.042938393494486804
1767708911607435800,8.931435791015625,-0.00801788676083088,0.0013127448326908052,0.05789513960778713
1767708911617436000,8.941435791015625,0.032064532780647276,-0.006549111116211861,0.08287818969488144
1767708911627436000,8.95143603515625,0.023140052568912505,-0.024694844262860713,0.04037584953010082
1767708911637436000,8.961435791015624,-0.013297868423792533,-0.022136264087539166,0.012393033105134963
1767708911647436800,8.971436767578124,-0.012394197582337074,-0.021744360426813363,0.012388941451907156
1767708911657437000,8.98143701171875,-0.04760813430461567,-0.02070604862133041,0.019566285735368727
1767708911667436800,8.991436767578126,-0.04703530741930008,-0.020210026999004184,0.019556933385133743
1767708911677437700,9.001437744140626,-0.04218552473399322,-0.00819720711680129,-0.004691957208514213
1767708911687437800,9.011437744140625,0.0011877484798431396,-0.016749748743604867,-0.024904724153876304
1767708911697437700,9.021437744140625,0.0009779051214456557,-0.016274075789563358,-0.02491875267922878
1767708911707437800,9.031437744140625,0.017090835532546044,-0.021577187166363,0.058117842447757716
1767708911717438700,9.041438720703125,0.017718612042069433,-0.021241032280866056,0.058113166272640224
1767708911727438800,9.05143896484375,0.039621816292405125,-0.019358488203585145,0.07008183648586273
1767708911737439000,9.06143896484375,0.014045476487278937,-0.003703786421380937,0.04792845686674118
1767708911747438800,9.07143896484375,-0.00414602289670147,-0.015508461711928247,0.05899404076039791
1767708911757439700,9.081439697265624,0.00033141477829776704,-0.01040284566860646,0.027413492104411123
1767708911767440000,9.09143994140625,0.022029451845353466,-0.025438940628431737,-0.010746434941887855
1767708911777439700,9.101439697265626,0.0008650832635816187,-0.02070144551144913,-0.011945873859524727
1767708911787439900,9.11143994140625,-0.011492284873127936,-0.00786903460836038,-0.003719312784075737
1767708911797440800,9.121440673828126,-0.05397475129365921,0.010429806740768254,0.018123685711622237
1767708911807440600,9.131440673828125,-0.052362639921903605,0.00897341565368697,0.021862287718057632
1767708911817440800,9.141440673828125,-0.017944237491488456,0.02721296456363052,0.04669920733273029
1767708911827442000,9.15144189453125,-0.02182955449223518,0.0006221870189532637,0.015721885266900062
1767708911837442000,9.161442138671875,-0.03702419188148342,0.00033672114107757806,-0.0014893617749214172
1767708911847442000,9.17144189453125,-0.03662145629948936,-0.0008699512349441647,-0.0035930560559034345
1767708911857441800,9.18144189453125,-0.021425640733307227,-0.010749394083954393,0.004628828844428062
1767708911867443000,9.19144287109375,0.010243746116757392,-0.006497947184555232,-0.0025607903987169265
1767708911877442800,9.20144287109375,-0.022696391321485862,0.016250019060540945,-0.018129530930519104
1767708911887443000,9.21144287109375,-0.027445047153299672,0.011875238042417913,0.006705635118484497
1767708911897442800,9.22144287109375,-0.041162031471729275,0.0012548771656118332,0.007298340314626693
1767708911907443700,9.231443603515626,-0.03822774071865715,-0.0034767179335467514,0.002650222247838974
1767708911917443800,9.24144384765625,0.05135784679353237,-0.011100070685148239,-0.001998480340838432
1767708911927443700,9.251443603515625,0.04924947633743286,-0.01987913281051442,-0.00455225647687912
1767708911937443800,9.26144384765625,-0.021010045669740064,-0.026074845645483583,0.007701660418510436
1767708911947445000,9.271445068359375,-0.02254090849882923,-0.02582572972262278,0.007683540239930152
1767708911957444900,9.28144482421875,-0.04006372397416271,-0.03434458827553317,0.027114801418781278
1767708911967445000,9.291445068359375,0.006734285824233665,-0.030524299335014073,0.049532969453930854
1767708911977446000,9.30144580078125,0.07879413525164126,-0.013323902480769902,0.06103928285241127
1767708911987445800,9.31144580078125,0.06615794104039668,-0.015963311073649674,0.05280687655806541
1767708911997446000,9.32144580078125,0.06621113709893543,-0.016340017165243626,0.0528162289083004
1767708912007445800,9.33144580078125,-0.025471125864982604,-0.04094223297489807,-0.02812427072227001
1767708912017446700,9.34144677734375,-0.05450842891209758,-0.03273781066602096,0.005711947906017303
1767708912027446800,9.35144677734375,-0.022540342243248596,-0.053569896819815034,0.011564765587449073
1767708912037446700,9.36144677734375,-0.015548866787552833,-0.010706650920771062,0.013374445357918738
1767708912047446800,9.37144677734375,0.028036592438817023,-0.008226067885104566,0.029095161581039426
1767708912057448000,9.381447998046875,0.01781563354260288,0.004704871489014476,0.027754268366098404
1767708912067447800,9.39144775390625,-0.022154539529746397,-0.01692143378239125,0.019826397976279258
1767708912077448000,9.401447998046875,-0.02667348739206791,-0.020063786928728223,0.009203297153115271
1767708912087447800,9.41144775390625,-0.0102794110851828,-0.022047544624470172,-0.012942483681440353
1767708912097448700,9.42144873046875,-0.020494506496191025,-0.016430417128745465,-0.03014730098247528
1767708912107448800,9.43144873046875,0.0010895488023757935,-0.005362148087657987,-0.01802723959982395
1767708912117448700,9.44144873046875,-0.000032144137355498966,-0.005496533323358744,-0.018031915774941443
1767708912127449900,9.451449951171876,0.035922381819155996,-0.025718890080973503,0.04211421763002872
1767708912137449700,9.46144970703125,-0.03566342492229305,0.009676138829253613,0.008752046254277229
1767708912147449900,9.471449951171875,-0.01942131517357193,0.004802541443519294,0.0018763152658939361
1767708912157449700,9.48144970703125,-0.007643801884585991,0.023354882629681377,0.006367196944355964
1767708912167451000,9.491450927734375,-0.008842656280333176,0.023227548189274964,0.006361936247348785
1767708912177451000,9.501450927734375,0.007391270161932334,-0.014690131066367029,0.04195756576359272
1767708912187451000,9.511450927734375,0.005292836577957496,-0.014498042560368775,0.04193944558501243
1767708912197450800,9.52145068359375,0.024248296938603742,-0.0017024748026393352,0.049554596763849254
1767708912207452000,9.531451904296874,0.02479775664806366,-0.016887988170515743,0.014971359160542487
1767708912217451800,9.54145166015625,0.05060089094638824,-0.007345138598419725,0.04772913490235805
1767708912227452000,9.551451904296876,0.007501753932237625,-0.017601561533659695,0.05430325259566307
1767708912237452800,9.561452880859376,-0.023619940473767927,-0.0016596220416016875,0.006115268009901046
1767708912247452700,9.57145263671875,-0.036087792380782774,0.031434856574982406,-0.05105331088900566
1767708912257452800,9.581452880859375,-0.023524663405749015,-0.005669076878670603,-0.001838321343064308
1767708912267452700,9.59145263671875,-0.027484799208375623,0.006721143214870244,-0.0033569092124700545
1767708912277453800,9.601453857421875,0.014343587217596359,0.022504750340059398,0.05392623597681522
1767708912287454000,9.611453857421875,0.022040571460989304,0.016514990139659493,0.0348912806391716
1767708912297453800,9.621453857421875,0.035865098673966714,0.009422109269257635,0.057605216750502584
1767708912307454000,9.631453857421874,0.005101711619761772,-0.0077574457263573995,0.005351882421970367
1767708912317454800,9.641454833984374,-0.02271217797908466,-0.02540441730432212,-0.006498714369535446
1767708912327454700,9.651454833984374,0.0007902781614335253,-0.03719245198732242,-0.027322306689620015
1767708912337454800,9.661454833984376,0.05736848995175678,-0.023270894140657035,-0.01552373234629631
1767708912347454700,9.671454833984376,0.05005903915464878,-0.013570607250835746,-0.006412789651751518
1767708912357454600,9.68145458984375,0.00175123214807827,-0.008701430311892182,0.010631284129619598
1767708912367454500,9.691454345703125,-0.04129120624277275,0.005553834734857082,0.0065747022151947014
1767708912377454600,9.70145458984375,-0.04581832827839535,0.014700908188708126,0.006703881552815437
1767708912387455500,9.71145556640625,-0.020774487914773633,0.01885112320333719,0.019403788650035857
1767708912397455400,9.721455322265625,-0.013997541125747375,0.008968191489297896,0.007862403938174247
1767708912407455700,9.731455810546874,-0.0014537059396505356,0.011490841834712773,-0.008766659301519394
1767708912417455600,9.74145556640625,0.03980885873052757,0.007825779988523572,-0.0036930092990398403
1767708912427456500,9.75145654296875,0.010807805173727683,-0.020066161548905073,0.013056465449929236
1767708912437456600,9.76145654296875,-0.029482697310613,-0.022266703800484535,0.025322072783112524
1767708912447456500,9.77145654296875,-0.04106558535993099,-0.004009874962177127,0.029058336701989172
1767708912457456600,9.78145654296875,-0.04427110340297222,0.004248305094242096,0.034141923576593396
1767708912467457500,9.79145751953125,0.006108253747224807,0.014029402135312556,0.0101911391466856
1767708912477457400,9.80145751953125,0.09310030850172042,0.0037224911218509075,0.013472060513496397
1767708912487457500,9.81145751953125,0.09740531221926212,-0.005442063189763575,0.03486030097901821
1767708912497457400,9.82145751953125,0.09659341131448745,-0.005229114558827131,0.03485328671634197
1767708912507458600,9.83145849609375,0.010182955840229987,-0.0021001506170257923,0.0370914210319519
1767708912517458700,9.841458740234375,-0.020365911680459974,0.0010589892673306166,0.050104047340154646
1767708912527458600,9.85145849609375,-0.036983286765648514,-0.0043670361030846835,0.04231821576952934
1767708912537459700,9.861459716796874,-0.02805296133501688,0.014996676264889538,-0.0006277765095233917
1767708912547459600,9.87145947265625,-0.0031628479450941083,-0.009920889104250818,-0.04133504995107651
1767708912557459700,9.881459716796876,-0.004810030630230903,-0.01694622116377577,-0.04987316119372844
1767708912567459600,9.89145947265625,0.00504851556122303,-0.04584277316648513,-0.044646366456151006
1767708912577460500,9.90146044921875,-0.04159983836710453,-0.06491908342782407,-0.005900163954496383
1767708912587460600,9.911460693359375,-0.07874620445668697,-0.05378724763123318,0.034489129579067225
1767708912597460500,9.92146044921875,-0.08033376590907573,-0.05327997396253049,0.03447393200993538
1767708912607460600,9.931460693359375,0.06870061126053333,-0.0005219597811810672,0.03940145153999328
1767708912617461800,9.941461669921875,0.04191255757808685,0.008709540553111583,0.03715630296170711
1767708912627461600,9.951461669921875,-0.05504968704879284,0.002278283662907779,0.03447159392237663
1767708912637461800,9.961461669921874,-0.07013736606538296,-0.0026537293791770934,0.041370705786347384
1767708912647462700,9.971462646484374,-0.07141279282867909,-0.0033962000432424247,0.04138648787736893
1767708912657462500,9.981462646484376,-0.05921031385958194,-0.01357192242508754,0.01476736102104187
1767708912667462700,9.991462646484376,-0.006551321339607239,-0.01659508790485561,0.03199029850065708
1767708912677462500,10.001462646484375,0.02497194417119026,-0.010926011026185005,0.008358663022518158
1767708912687463400,10.01146337890625,-0.00793254599411448,0.042503947599977256,-0.030986674416065216
1767708912697463600,10.021463623046875,-0.0037637358768697594,0.024631113110575822,-0.040402737537026404
1767708912707463400,10.03146337890625,-0.002608136386370461,0.012185454769060015,-0.05340718053877353
1767708912717463600,10.041463623046875,0.011236264285445212,0.006901413418911397,-0.04590659565031528
1767708912727464700,10.051464599609375,0.0017722702268241845,-0.01227256679693237,-0.027183775001764297
1767708912737464600,10.061464599609375,-0.01440612649321556,-0.016956231101136653,0.005749357306957244
1767708912747464700,10.071464599609374,-0.009675006318092346,-0.019866090665850787,0.06755670192241668
1767708912757465600,10.081465576171874,0.03423193994760513,-0.034200046971999104,0.06501286265850066
1767708912767465500,10.091465576171874,0.035007015973329544,-0.03879486394897103,0.07937456548810004
1767708912777465600,10.101465576171876,0.026902035450935363,-0.03419378162799403,0.06844225258529185
1767708912787465500,10.111465576171875,0.041295302462577815,-0.03660877034785226,0.04868015201687813
1767708912797466600,10.121466552734375,0.056069677746295926,-0.03931130730481818,0.06842647049427032
1767708912807466500,10.131466552734375,0.02246200717687607,-0.04808766601644456,0.04971767837107181
1767708912817466600,10.141466552734375,-0.010566986721754074,-0.030443379585910587,0.023382629153132436
1767708912827466500,10.151466552734375,-0.021040449941158293,-0.02561508264662698,-0.02135784532725811
1767708912837467600,10.161467529296875,-0.010222116523550357,-0.016760799860581755,-0.004592588487267494
1767708912847467800,10.1714677734375,0.002421089667081833,-0.0035891470657661555,-0.04498772723972797
1767708912857467600,10.181467529296874,0.029404958182573316,0.012297938700206576,-0.02149111631810665
1767708912867468500,10.191468505859374,-0.025007017767860087,0.014672412746585905,-0.019399112474918365
1767708912877468700,10.20146875,-0.06724690532088279,0.038766806898266074,-0.03825695767998695
1767708912887468500,10.211468505859376,-0.03324059310598532,0.008844090185593814,0.011576456025242805
1767708912897468700,10.22146875,-0.036133974176645274,0.008839377477858215,0.011585223853588103
1767708912907469600,10.231469482421875,0.021432079607248303,-0.019094119912665335,0.010539514192938804
1767708912917469400,10.241469482421875,0.06912672771811484,-0.013335136260837316,-0.02073123786151409
1767708912927469600,10.251469482421875,0.053019637959334065,-0.007065737135149538,0.005753448960185051
1767708912937469400,10.261469482421875,0.035489835620787925,-0.019457254136633125,0.007699906852841377
1767708912947470600,10.271470703125,0.027942484414577484,-0.03722871061079204,0.03164426154196262
1767708912957470700,10.281470703125,0.031412210918334314,-0.022299583156779407,0.07116904720067978
1767708912967470600,10.291470703125,0.0019511386343510821,-0.05606567742461338,-0.001986205381155014
1767708912977471500,10.301471435546874,-0.010203409539791755,-0.02476854881988838,0.030358897906541824
1767708912987471600,10.3114716796875,0.006295305318501777,0.025753395138774067,0.023493688312172887
1767708912997471500,10.321471435546876,0.003694182909396477,-0.008110168154165149,0.022160978403687477
1767708913007471600,10.3314716796875,0.01411737724628765,-0.011649776989780366,0.03129588649570942
1767708913017472500,10.341472412109376,0.014767358737753238,-0.012041771982051431,0.03130406980216503
1767708913027472400,10.351472412109375,-0.042700493085384365,0.0008736227630637586,-0.006100070440769195
1767708913037472500,10.361472412109375,-0.030065467917919156,-0.009116367788333446,-0.008942600390315055
1767708913047472400,10.371472412109375,-0.019554595297574997,0.006902472864836454,-0.00789630620777607
1767708913057473500,10.3814736328125,0.03649287061691284,-0.0023694508113898337,-0.010289923346042633
1767708913067473700,10.3914736328125,0.035678051669267005,-0.002585029790829867,-0.010281155517697333
1767708913077473500,10.4014736328125,0.0537643279799493,-0.01575704791182652,0.006942366483807564
1767708913087473700,10.4114736328125,0.07406944938388187,-0.044017347837612034,0.04376724553406238
1767708913097474600,10.421474609375,0.0327694661796093,-0.04115700823673978,0.06997136184871196
1767708913107474700,10.431474609375,0.003771339798835106,-0.010403539788350463,0.04918634797334671
1767708913117474600,10.441474609375,0.007543839508295059,-0.007423464531637728,0.03213701349496841
1767708913127475500,10.451475341796876,0.007014260392950382,-0.007603332876879722,0.032144027757644654
1767708913137475600,10.4614755859375,-0.0017196679660351946,-0.023560981394723058,0.005654664760828018
1767708913147475500,10.471475341796875,0.008164597188564948,-0.011560509537439792,-0.0004874912559986114
1767708913157475600,10.4814755859375,0.019897120558354072,-0.014965203414391726,-0.031017069554328917
1767708913167476700,10.491476806640625,0.04259995075378101,0.016672555321548134,-0.08308101879060267
1767708913177476600,10.5014765625,0.05528759202447254,0.014808770743664353,-0.04625497069656849
1767708913187476700,10.511476806640625,-0.005070142871141433,-0.010023564027436076,0.02513970195353031
1767708913197476600,10.5214765625,-0.0336930107653141,-0.02481903689811006,0.06107201607823372
1767708913207477500,10.5314775390625,-0.007439785478776321,-0.04062500198557973,0.08802256684601306
1767708913217477600,10.5414775390625,0.009644611179828642,-0.058192588184401386,0.0880336727619171
1767708913227477500,10.5514775390625,0.056978033896023406,-0.05892009874135255,0.08220540499985217
1767708913237478400,10.561478515625,0.01991934608989395,-0.021195256910379975,0.06350128905177116
1767708913247478500,10.571478515625,-0.011294136519101447,-0.013265340693946926,0.02848901238143444
1767708913257478400,10.581478515625,-0.01626023906045593,0.00791859110482037,0.02220949372053146
1767708913267478500,10.591478515625,-0.051931267333892174,-0.00006314663039520382,-0.0027747254103422164
1767708913277479700,10.601479736328125,-0.03590367711868603,0.005025993202161043,-0.009060673812031746
1767708913287479600,10.6114794921875,0.04820317758831661,0.0019277531921863555,0.031631986582279205
1767708913297479700,10.621479736328125,0.04055062157511711,-0.013617515132483094,0.018001520636677742
1767708913307479600,10.6314794921875,0.019305598105723038,-0.025058855269663033,0.04043605528473854
1767708913317480400,10.64148046875,0.05787819760614074,-0.047740642677061254,-0.028248189362883567
1767708913327480600,10.65148046875,-0.04368015177249908,-0.006798519300017506,0.003474398112297058
1767708913337480400,10.66148046875,0.02496610808544792,0.002988496025186032,0.042675358644127845
1767708913347481600,10.671481689453126,0.06955225052065216,-0.023614702609647063,-0.012996259695291518
1767708913357482000,10.68148193359375,-0.0067500679152552034,0.005711089389491826,0.055980245897173875
1767708913367481900,10.69148193359375,-0.0139338328063488,0.0044105464512482285,0.0698825145214796
1767708913377482200,10.701482177734375,0.012479542344808577,0.002786306250281632,0.015702011522650716
1767708913387483100,10.711483154296875,0.0037748514967504885,-0.023887272473331538,0.019730536386370658
1767708913397483000,10.72148291015625,-0.027054002009099347,-0.039797903511673206,-0.0009434183299541472
1767708913407483100,10.731483154296875,-0.028192650650208814,-0.025699472994450478,-0.005459434449672698
1767708913417483000,10.74148291015625,-0.008180968368053435,-0.023180421111918984,-0.0336146848320961
1767708913427484200,10.751484130859374,-0.007103110003471374,-0.00694510643016547,-0.003859598037600517
1767708913437484000,10.761484130859374,-0.03431845832043327,-0.00029001418882980943,-0.010913608202338217
1767708913447484000,10.77148388671875,-0.03133972563743591,-0.0008004844616167247,-0.010929974815249443
1767708913457485000,10.781485107421876,0.007831424278020858,0.007586473073624074,-0.08530863171219825
1767708913467485000,10.79148486328125,0.08865676396316848,-0.006909614991676062,-0.02276069786250591
1767708913477485000,10.801485107421875,0.07738368393182754,-0.0255463647919707,0.007619827353954315
1767708913487485200,10.811485107421875,0.04225859453678131,-0.015117087774164973,0.0010457096606492995
1767708913497486000,10.821486083984375,-0.08067687112516723,-0.0024471922227181494,-0.03261398335695267
1767708913507486200,10.831486328125,-0.07131750662750565,0.010742507685441523,-0.024228432327508924
1767708913517486000,10.841486083984375,0.018790040665864944,0.003168711430300027,0.004953823015093803
1767708913527486200,10.851486328125,-0.00822538289851509,0.02413563947752118,0.014684358912706374
1767708913537487000,10.861487060546875,-0.0009036708414554595,0.0321892734051682,0.002121229937672615
1767708913547487000,10.871487060546874,0.026221661104494705,0.0049758339175023135,-0.012232874107360838
1767708913557487000,10.881487060546876,0.03742225585493725,-0.005443177434615791,0.028931495451927185
1767708913567488000,10.891488037109376,0.04081716355681419,-0.0065233738867565986,0.03807692493796348
1767708913577488000,10.90148779296875,0.08223639379316008,-0.022366766641475258,0.04138999500870704
1767708913587488300,10.91148828125,0.06713467711806297,-0.03280371550908312,0.051887423625588416
1767708913597488000,10.921488037109375,0.0679915862083435,-0.033876386241894214,0.051907881891727445
1767708913607489000,10.931489013671875,0.012198967271181754,-0.013148728576954453,0.054469256812334055
1767708913617489200,10.9414892578125,-0.045099375487235374,-0.005849018289148807,0.028746786534786222
1767708913627489000,10.951489013671875,-0.044621232014894485,0.0009783069802448152,0.0182820911437273
1767708913637490000,10.961489990234375,-0.02638882523179054,-0.002206588399875909,0.030111645147204397
1767708913647490000,10.971489990234375,0.01135492222905159,-0.03700757867339998,0.031768180182576176
1767708913657490000,10.981489990234374,0.035160169841581955,-0.025810623485036193,0.016968670457601545
1767708913667490000,10.991489990234374,0.007386027731234208,-0.015535167055763303,0.00007014262676239014
1767708913677491000,11.001490966796876,-0.018018471771478653,-0.004622910560294986,-0.0014157120168209075
1767708913687491000,11.011490966796876,0.020452411786979062,-0.0024689656631089745,0.01729834080338478
1767708913697491200,11.0214912109375,0.029587329012155533,-0.03694337259707972,0.04454699773490429
1767708913707491000,11.031490966796875,0.03795067734294571,-0.012542287116404621,0.006702712509036064
1767708913717492200,11.0414921875,-0.01080080004420597,0.014720160878449677,0.0203343474984169
1767708913727492000,11.0514921875,0.014051915361220016,0.013718125962745397,-0.01571487100422382
1767708913737492000,11.061491943359375,-0.012772963200276717,0.0053794645486399525,-0.010762801554799079
1767708913747492000,11.0714921875,-0.018940851879981346,-0.009806834270525724,0.016927753925323485
1767708913757493000,11.081492919921875,0.029520688950153997,-0.04848808177718893,0.05059679929316044
1767708913767493000,11.0914931640625,0.02504208679795265,-0.03706886214027181,0.0347299525976181
1767708913777493000,11.101492919921874,0.04023264166712761,-0.011937836683541536,0.036356677016615865
1767708913787494100,11.111494140625,0.03060556614398956,-0.024790322260279208,-0.013040098837018012
1767708913797494300,11.121494384765626,-0.00573299069404602,-0.026527831843681633,-0.008114917394518853
1767708913807494100,11.131494140625,-0.020259528696537018,-0.054387697742413726,0.032573066824674604
1767708913817494300,11.141494384765625,0.08646833227449097,-0.06998887923909351,0.053358665221929544
1767708913827495200,11.1514951171875,0.08134674234390259,-0.03690906846867874,0.042274961149692536
1767708913837495000,11.1614951171875,0.016014739866787565,-0.0044772550119087096,0.01653670878112316
1767708913847495200,11.1714951171875,-0.006505728632211685,0.013088906414806842,0.009212649503350257
1767708913857496000,11.18149609375,-0.05874796161141712,0.0199843102180399,0.009673252752423285
1767708913867496000,11.191495849609375,-0.07300912210941314,0.01970295425970107,0.032578327521681785
1767708913877496000,11.20149609375,-0.05226677833199501,0.0003106003191322088,0.041704467785358426
1767708913887496000,11.211495849609374,-0.01842296091914177,0.009002879210188984,0.014907646274566649
1767708913897497000,11.2214970703125,-0.01570025795698166,0.01540438028294593,-0.027307693642377853
1767708913907497200,11.231497314453126,-0.018449844359490087,-0.007803422026243061,-0.018051789519190786
1767708913917497000,11.2414970703125,0.013064064234495161,-0.029253329551126805,-0.030945173361897466
1767708913927497200,11.251497314453125,-0.008017306805518456,-0.031245964673068373,-0.01899286976158619
1767708913937498000,11.261498046875,-0.027173249041172673,-0.033700956609752024,0.02603869661986828
1767708913947498000,11.271498046875,0.03420505194067955,-0.053197428511921316,0.03680851243734359
1767708913957498000,11.281498046875,0.019206224817899055,-0.05117984161181375,0.032764205482602116
1767708913967499000,11.2914990234375,0.007639701098203658,-0.037285811092890794,0.04981529352664947
1767708913977499100,11.3014990234375,0.03939209462318104,-0.04425069993576035,0.052046413579583166
1767708913987499000,11.3114990234375,-0.01246785647359211,-0.00145056413449347,0.028085107755661008
1767708913997499000,11.321498779296874,-0.030834703291323966,0.014113463689573108,0.0014303250640630722
1767708914007500300,11.331500244140624,-0.00823708703604061,0.009581866408232598,0.0021603929042816163
1767708914017500200,11.341500244140626,-0.00720715946641285,0.010211085956171154,0.0021399346381425857
1767708914027500000,11.3515,-0.027029461222887036,0.00132715695053339,-0.012100187638401984
1767708914037501200,11.361501220703126,0.002422258710861206,-0.01430102215092629,-0.005684475377202034
1767708914047501000,11.3715009765625,0.03510989182591438,-0.01785898862713948,-0.01362754333615303
1767708914057501200,11.381501220703125,-0.018039509992930105,-0.0018637480452656744,-0.005403320348262786
1767708914067501000,11.3915009765625,-0.018398406433197668,-0.0018798771961592137,-0.00540098226070404
1767708914077502000,11.401501953125,-0.0166249761530431,-0.0036182635623961683,0.017052841609716415
1767708914087502000,11.411502197265625,0.002182600169512443,0.002326159658934921,0.02155599824786186
1767708914097502000,11.421501953125,0.003984105766681022,0.015406005984451621,0.031740707653760906
1767708914107502000,11.431502197265624,-0.009459902262687683,0.016242383743356913,0.03802607153356075
1767708914117503200,11.441503173828124,-0.007356787937018088,0.008935257334075868,0.02185878058671951
1767708914127503000,11.451503173828126,0.011672897570463829,0.014563783006649464,0.002388356441259384
1767708914137503200,11.461503173828126,0.029779047625395468,0.009620590983424335,-0.008403671208024025
1767708914147504000,11.471504150390626,0.030032734692096708,-0.0042010866853408515,0.002356207737326622
1767708914157504000,11.48150390625,0.004763853400945663,-0.00012474062452092765,-0.0018389058649539945
1767708914167504100,11.491504150390625,0.00985737714767456,-0.005893003561347723,-0.006326280412077903
1767708914177504000,11.50150390625,-0.0017898060262203216,0.006981218923162669,0.005799041667580604
1767708914187505000,11.5115048828125,-0.004323123896121979,0.01766142022842541,0.009249474382400513
1767708914197505000,11.521505126953125,-0.012339257091283798,0.01021517760939896,0.013445172506570815
1767708914207505000,11.5315048828125,-0.01723521243929863,-0.0023752777639776466,0.03246083862185478
1767708914217505000,11.541505126953124,0.010494519707164727,-0.007823825493454933,0.05057692554891109
1767708914227506200,11.551506103515624,0.029870233040186576,-0.011285382390487939,0.023490765702724455
1767708914237506000,11.561506103515624,-0.007002576805022545,-0.021242365721426903,0.022436288213729855
1767708914247506200,11.571506103515626,-0.004254154879716225,-0.028359650380723175,0.004616553884744644
1767708914257507000,11.581507080078126,-0.03103227169003803,-0.02583011363679543,-0.006911971345543861
1767708914267507200,11.591507080078125,-0.03612462182641029,-0.017328754207957535,-0.002728548181056976
1767708914277507000,11.601507080078125,-0.024168811094760892,-0.019799765697680414,-0.009465162959694861
1767708914287507000,11.6115068359375,-0.0010720131456851958,-0.0058352637584321194,0.0014548749834299086
1767708914297508000,11.621508056640625,0.005604395878314972,0.020556155289243906,-0.00018821604847908018
1767708914307508000,11.631508056640625,0.0159048360517947,0.015331936101242899,-0.005576338827610015
1767708914317508000,11.641508056640625,0.031122288061049764,0.03620733167380094,-0.006319850671291351
1767708914327508000,11.651508056640624,0.045166001849505116,0.03856048893751576,-0.015737082836031913
1767708914337509000,11.661509033203124,0.04025718701991718,-0.004177815407607704,-0.0010609072297811507
1767708914347509200,11.67150927734375,0.03942717050313949,-0.004674677280150354,-0.0010439560949802398
1767708914357508600,11.681508544921876,0.014966093896958044,-0.010930285342503338,-0.01793313157558441
1767708914367509500,11.691509521484376,0.028985266899201084,0.0011932649051770567,0.03849953426420689
1767708914377509600,11.701509521484375,0.05575169327172916,-0.01571284344391897,-0.004585574224591255
1767708914387509500,11.711509521484375,0.009342997884750365,0.03495806226506829,-0.025224457627534867
1767708914397509600,11.721509521484375,-0.01421440331339836,0.00517475402308628,0.024623569124937055
1767708914407510500,11.731510498046875,-0.07500118184261954,-0.02209120110310614,0.11755962697565554
1767708914417510400,11.741510498046875,-0.01750760420646984,-0.0172471586054191,0.03167699476778507
1767708914427510500,11.751510498046875,0.17778350179195404,-0.004872757135517895,0.07717793222665786
1767708914437510400,11.761510498046874,0.11239304712587035,0.009864099149405956,0.07913081986010075
1767708914447511600,11.771511474609374,-0.02690436440533958,0.04337654744973406,0.006116437053680419
1767708914457511700,11.78151171875,-0.09446107546091079,0.02747504956591874,-0.030527824732661246
1767708914467511600,11.791511474609376,-0.11759762089848518,0.0225854326271452,-0.029006898775696753
1767708914477512700,11.8015126953125,-0.09222235662341118,0.018401059614587573,-0.01221884558200836
1767708914487512600,11.8115126953125,-0.024667992788553236,0.02014810421131551,0.00426642527282238
1767708914497512700,11.8215126953125,0.03579144434928894,0.010209076662175357,0.011765841117501258
1767708914507512600,11.8315126953125,0.024711247408390043,-0.020791699344478547,-0.009322539618611335
1767708914517513500,11.841513427734375,-0.01893617113828659,-0.014573847742937504,0.025249592068791387
1767708914527513600,11.851513671875,0.00951835445165634,-0.04012282461710274,0.027046996879577637
1767708914537513500,11.861513427734375,0.009649287354946136,-0.04025204048734158,0.027049334967136383
1767708914547514600,11.8715146484375,0.0034896048145834353,-0.02119622502475977,0.026901450929045674
1767708914557514800,11.8815146484375,-0.028570251790946348,-0.021245617124438284,0.0016156185030937193
1767708914567514600,11.8915146484375,-0.042915601707366295,-0.021411749205272643,-0.003770750710368156
1767708914577514800,11.9015146484375,-0.027795189464953726,-0.02386681420719251,0.003859598037600517
1767708914587515600,11.911515625,0.006790975314378738,-0.039953788193129,0.018226561564207076
1767708914597515500,11.921515625,-0.003157578114932403,-0.04428836506502703,0.03393500282764435
1767708914607515600,11.931515625,-0.05203296957612037,-0.03674258932797238,0.008044774767756462
1767708914617515500,11.941515625,0.01789572217464447,-0.05022601148569956,0.007000818672776222
1767708914627516400,11.951516357421875,0.04184826017022133,-0.04853128159809857,0.060710781550407406
1767708914637516500,11.9615166015625,0.009258826732635497,-0.05138157472899183,0.04738017533421516
1767708914647516400,11.971516357421875,0.03623100481033325,-0.0565754901102744,0.036595746469497675
1767708914657517600,11.981517578125,0.0587666526121553,-0.037457496131677176,0.06052548811137676
1767708914667517700,11.991517578125,0.008034828762477263,-0.027410204168781635,0.03088496760725975
1767708914677517600,12.001517578125,0.0026700914255110546,-0.04318044035574421,0.03117372142076492
