time,seconds_elapsed,z,y,x
1767708902727220700,0.051220703125,0.007780092768371105,0.017124896869063377,-0.00004146574065089226
1767708902737220900,0.061220947265625,0.006923620123416185,0.011198563501238823,0.0036350281443446875
1767708902747221800,0.0712216796875,0.009732447564601898,0.005662384442985058,-0.0013223662972450256
1767708902757221600,0.0812216796875,0.016393812373280525,0.0030562151223421097,-0.011073530651628971
1767708902767221800,0.0912216796875,0.018748341128230095,0.0005917269736528397,-0.016055215150117874
1767708902777221600,0.1012216796875,0.018794946372509003,-0.001808580243960023,-0.01061224564909935
1767708902787221800,0.1112216796875,0.021556250751018524,-0.0027832998894155025,-0.0034373635426163673
1767708902797222700,0.12122265625,0.02291898988187313,-0.0007622269913554192,0.00034086289815604687
1767708902807222800,0.131222900390625,0.022374946624040604,0.0069546825252473354,0.002526157535612583
1767708902817223000,0.141222900390625,0.02078743651509285,0.016399849206209183,0.007317983079701662
1767708902827222800,0.151222900390625,0.01661127619445324,0.011802567169070244,0.004837770480662584
1767708902837223700,0.1612236328125,0.015438687056303024,0.009113039821386337,-0.003645462915301323
1767708902847223800,0.171223876953125,0.01127464696764946,0.010291490703821182,-0.006884588859975338
1767708902857223700,0.1812236328125,0.008416809141635895,0.018810942769050598,-0.007547183893620968
1767708902867223800,0.191223876953125,0.010577968321740627,0.018235832452774048,-0.007335236296057701
1767708902877223700,0.2012236328125,0.007689770311117172,0.012231203727424145,-0.009790937416255474
1767708902887224600,0.211224609375,0.0080023892223835,0.008555508218705654,-0.009931497275829315
1767708902897224700,0.221224609375,0.01195265632122755,0.004944262094795704,-0.007068599108606577
1767708902907224600,0.231224609375,0.012074625119566917,0.005859456956386566,-0.004501537885516882
1767708902917224700,0.241224609375,0.012678097002208233,0.009533820673823357,-0.001930522732436657
1767708902927224600,0.251224609375,0.010767048224806786,0.0118465106934309,-0.0014381585642695427
1767708902937225700,0.261225830078125,0.010077555663883686,0.017055120319128036,-0.003236857708543539
1767708902947225900,0.271225830078125,0.008677785284817219,0.02215307578444481,0.002060823142528534
1767708902957225700,0.281225830078125,0.007146467454731464,0.029540151357650757,0.007357317954301834
1767708902967225900,0.291225830078125,0.0034966599196195602,0.030195025727152824,0.015183333307504654
1767708902977226800,0.301226806640625,-0.005772738717496395,0.03289813548326492,0.022641249001026154
1767708902987226600,0.3112265625,-0.009106745943427086,0.04433654621243477,0.021823354065418243
1767708902997226800,0.321226806640625,-0.006782338488847017,0.052671704441308975,0.015631236135959625
1767708903007226600,0.3312265625,-0.005515696480870247,0.056915052235126495,0.009843826293945312
1767708903017226800,0.341226806640625,-0.0014357335167005658,0.05792199447751045,0.00807948224246502
1767708903027227600,0.3512275390625,-0.0012751591857522726,0.05352311581373215,0.020326681435108185
1767708903037227500,0.3612275390625,-0.004913304001092911,0.049854882061481476,0.03352371230721474
1767708903047227600,0.3712275390625,-0.00345020042732358,0.04651474207639694,0.02493586763739586
1767708903057227800,0.381227783203125,-0.001919149188324809,0.030935250222682953,0.010825909674167633
1767708903067228700,0.391228759765625,0.00038237799890339375,0.027592850849032402,0.01620396226644516
1767708903077228800,0.401228759765625,-0.001982509158551693,0.030805686488747597,0.028931476175785065
1767708903087228700,0.411228759765625,-0.0028633251786231995,0.03611603006720543,0.04498038440942764
1767708903097228800,0.421228759765625,-0.004371206741780043,0.04990720748901367,0.048836372792720795
1767708903107228700,0.431228759765625,-0.0019062105566263199,0.05603886768221855,0.047458160668611526
1767708903117229800,0.441229736328125,-0.0010425474029034376,0.058225326240062714,0.03492745757102966
1767708903127229700,0.451229736328125,-0.0017348905093967915,0.06461318582296371,0.023387257009744644
1767708903137229600,0.4612294921875,-0.003655295819044113,0.0661221295595169,0.01626143604516983
1767708903147229700,0.471229736328125,-0.004496005363762379,0.05841907113790512,0.017680194228887558
1767708903157230600,0.481230712890625,-0.004421170335263014,0.038826994597911835,0.025660622864961624
1767708903167230700,0.491230712890625,0.004799375310540199,0.03625437989830971,0.04056817665696144
1767708903177230800,0.50123095703125,0.01839667744934559,0.03999904915690422,0.05195185914635658
1767708903187230700,0.511230712890625,0.03494567424058914,0.04417955130338669,0.05937974154949188
1767708903197230800,0.52123095703125,0.031892359256744385,0.04267965629696846,0.05742950737476349
1767708903207231700,0.531231689453125,0.026585115119814873,0.03779049217700958,0.0578191764652729
1767708903217232000,0.54123193359375,0.025102533400058746,0.04187364876270294,0.05001824349164963
1767708903227231700,0.551231689453125,0.02473984658718109,0.0481664314866066,0.03586535155773163
1767708903237231600,0.561231689453125,0.029576679691672325,0.0646817609667778,0.029536882415413857
1767708903247231700,0.571231689453125,0.02745177410542965,0.08542366325855255,0.03688426315784454
1767708903257232600,0.581232666015625,0.030504023656249046,0.10995696485042572,0.06281226873397827
1767708903267232800,0.591232666015625,0.03496250510215759,0.11316168308258057,0.07446584105491638
1767708903277232600,0.601232666015625,0.03741314262151718,0.07925084978342056,0.05982751026749611
1767708903287232500,0.611232421875,0.028788210824131966,0.024572426453232765,0.028059355914592743
1767708903297234000,0.62123388671875,0.014897694811224937,-0.023693906143307686,-0.00748825166374445
1767708903307233800,0.63123388671875,0.008815745823085308,-0.024274341762065887,-0.019239220768213272
1767708903317234000,0.64123388671875,0.00709561025723815,-0.019010871648788452,-0.00019948231056332588
1767708903327233800,0.65123388671875,0.007811265531927347,-0.015956757590174675,0.02494232729077339
1767708903337233700,0.661233642578125,-0.0013974125031381845,-0.0033171281684190035,0.054686639457941055
1767708903347235000,0.671235107421875,-0.0007934493478387594,0.003214939497411251,0.07219302654266357
1767708903357235000,0.68123486328125,0.001894212793558836,0.0012753591872751713,0.07485006004571915
1767708903367235000,0.691235107421875,0.006904679350554943,-0.012457896955311298,0.06575433909893036
1767708903377235000,0.70123486328125,0.009358515962958336,-0.01966441050171852,0.047500237822532654
1767708903387235800,0.71123583984375,0.005601789802312851,-0.017825499176979065,0.026754319667816162
1767708903397236000,0.721236083984375,0.005684614181518555,-0.025051988661289215,0.0014891773462295532
1767708903407235800,0.73123583984375,-0.0005275908624753356,-0.028074536472558975,-0.008031883276998997
1767708903417236000,0.741236083984375,-0.0042930347844958305,-0.03147752583026886,-0.005543159320950508
1767708903427235800,0.75123583984375,-0.009197048842906952,-0.02995246835052967,-0.004594738129526377
1767708903437236700,0.76123681640625,-0.014537753537297249,-0.027924204245209694,-0.008658455684781075
1767708903447236900,0.77123681640625,-0.018644681200385094,-0.023135710507631302,-0.004044458735734224
1767708903457236700,0.78123681640625,-0.017921365797519684,0.0018727048300206661,0.004520799964666367
1767708903467236900,0.79123681640625,-0.014018201269209385,0.023194773122668266,0.015739576891064644
1767708903477238000,0.801238037109375,-0.014020598493516445,0.030875062569975853,0.02461136505007744
1767708903487238000,0.81123779296875,-0.011813811026513577,0.029499806463718414,0.027848966419696808
1767708903497238000,0.821238037109375,-0.006614521145820618,0.02886810526251793,0.016388852149248123
1767708903507238000,0.83123779296875,-0.004470438696444035,0.031855106353759766,0.007590274792164564
1767708903517238000,0.841238037109375,-0.00299904216080904,0.03452705591917038,0.0009310406167060137
1767708903527239000,0.851239013671875,-0.0015305706765502691,0.023865755647420883,-0.010177843272686005
1767708903537238800,0.86123876953125,-0.003027267288416624,0.004108829889446497,-0.01574997417628765
1767708903547239000,0.871239013671875,-0.004611907992511988,-0.008656367659568787,-0.0134828370064497
1767708903557238800,0.88123876953125,-0.0033154813572764397,-0.023514144122600555,-0.012335548177361488
1767708903567239000,0.891239013671875,0.0013713937951251864,-0.03343961015343666,-0.0048164441250264645
1767708903577239800,0.90123974609375,0.004259858280420303,-0.042207270860672,0.0047805230133235455
1767708903587239700,0.91123974609375,0.006704369559884071,-0.03748935088515282,0.012519443407654762
1767708903597240000,0.921239990234375,0.008499340154230595,-0.031638383865356445,0.013219322077929974
1767708903607240000,0.931239990234375,0.007115055341273546,-0.03346371278166771,0.007254133000969887
1767708903617240800,0.94124072265625,0.006765648722648621,-0.03272335231304169,0.0006018227431923151
1767708903627241000,0.951240966796875,0.00928812101483345,-0.028294386342167854,-0.006145145744085312
1767708903637240800,0.96124072265625,0.005112550221383572,-0.03367157280445099,-0.01588752120733261
1767708903647241000,0.971240966796875,0.003121763002127409,-0.03847218304872513,-0.02091805450618267
1767708903657240800,0.98124072265625,-0.0026482418179512024,-0.035151753574609756,-0.02032523602247238
1767708903667241700,0.99124169921875,-0.005509668495506048,-0.04394591599702835,-0.015660956501960754
1767708903677241900,1.001241943359375,-0.01107141375541687,-0.05214419215917587,-0.0012093125842511654
1767708903687241700,1.01124169921875,-0.017672555521130562,-0.05920209735631943,0.008473353460431099
1767708903697241900,1.021241943359375,-0.02169419452548027,-0.06532736867666245,0.010912276804447174
1767708903707243000,1.031242919921875,-0.022263595834374428,-0.06501258164644241,0.004412726033478975
1767708903717243000,1.041242919921875,-0.023397836834192276,-0.06419578939676285,0.003760518040508032
1767708903727243000,1.051242919921875,-0.02214091643691063,-0.0635538399219513,0.00913801696151495
1767708903737243000,1.061242919921875,-0.01956537365913391,-0.05274992808699608,0.015435860492289066
1767708903747243000,1.071242919921875,-0.01988135278224945,-0.05308961123228073,0.021348964422941208
1767708903757244000,1.081243896484375,-0.017551619559526443,-0.06098641827702522,0.02863990142941475
1767708903767243800,1.091243896484375,-0.02095123566687107,-0.06324797868728638,0.035057056695222855
1767708903777244000,1.101243896484375,-0.02738569863140583,-0.061423443257808685,0.0363960936665535
1767708903787243800,1.111243896484375,-0.032630305737257004,-0.055651307106018066,0.03524654358625412
1767708903797244700,1.12124462890625,-0.03801574930548668,-0.05214126035571098,0.04271324723958969
1767708903807244800,1.131244873046875,-0.03996837139129639,-0.04712067171931267,0.059506259858608246
1767708903817244700,1.14124462890625,-0.043747663497924805,-0.041271306574344635,0.09464800357818604
1767708903827244800,1.151244873046875,-0.053600799292325974,-0.0257733054459095,0.12788161635398865
1767708903837244700,1.16124462890625,-0.053982965648174286,-0.018806740641593933,0.14382250607013702
1767708903847245800,1.171245849609375,-0.05751433223485947,-0.015145692974328995,0.1367647647857666
1767708903857246000,1.181245849609375,-0.057919662445783615,-0.003703421913087368,0.12203481048345566
1767708903867245800,1.191245849609375,-0.0645412802696228,0.039608635008335114,0.1524386703968048
1767708903877246000,1.201245849609375,-0.09424058347940445,0.11232198029756546,0.26789894700050354
1767708903887246800,1.211246826171875,-0.11021135002374649,0.11810584366321564,0.352610319852829
1767708903897246700,1.221246826171875,-0.11433019489049911,0.0870528519153595,0.31854209303855896
1767708903907246800,1.231246826171875,-0.09465574473142624,0.09456269443035126,0.25606414675712585
1767708903917246700,1.241246826171875,-0.06517934054136276,0.08940734714269638,0.18683820962905884
1767708903927246800,1.251246826171875,-0.04032941162586212,0.04573670029640198,0.1119692400097847
1767708903937247700,1.261247802734375,-0.02629002556204796,-0.010889029130339622,0.05476720258593559
1767708903947247600,1.27124755859375,-0.031347908079624176,-0.04216399043798447,0.03991132974624634
1767708903957248000,1.281248046875,-0.03491521254181862,-0.05149863660335541,0.04457346349954605
1767708903967248000,1.291247802734375,-0.04843263328075409,-0.07435548305511475,0.044697195291519165
1767708903977249000,1.3012490234375,-0.0470627024769783,-0.08850698918104172,0.042706213891506195
1767708903987249000,1.311248779296875,-0.04510097578167915,-0.09888359904289246,0.03661120682954788
1767708903997248800,1.321248779296875,-0.03733227029442787,-0.12068183720111847,0.014242518693208694
1767708904007249000,1.331248779296875,-0.03035333752632141,-0.13841143250465393,-0.011963790282607079
1767708904017248800,1.341248779296875,-0.018583761528134346,-0.14225198328495026,-0.03774958476424217
1767708904027250000,1.35125,-0.0008552927756682038,-0.13337314128875732,-0.05425014719367027
1767708904037249800,1.361249755859375,0.01647922210395336,-0.12998001277446747,-0.06948422640562057
1767708904047250000,1.37125,0.0075152842327952385,-0.17680171132087708,-0.0890970379114151
1767708904057249800,1.381249755859375,-0.029713843017816544,-0.2721945345401764,-0.10950803756713867
1767708904067251000,1.3912509765625,0.012784939259290695,-0.16863152384757996,0.021253982558846474
1767708904077251000,1.4012509765625,0.01804974116384983,-0.1857479214668274,0.02520105428993702
1767708904087251000,1.4112509765625,0.02929789572954178,-0.18209831416606903,0.018074993044137955
1767708904097250800,1.421250732421875,0.028921857476234436,-0.15445870161056519,0.04415160045027733
1767708904107251000,1.4312509765625,0.032444652169942856,-0.07032971829175949,0.09571391344070435
1767708904117251800,1.441251953125,0.024563558399677277,-0.05385513976216316,0.08387216925621033
1767708904127252000,1.451251953125,0.008781034499406815,-0.056910451501607895,0.07230804860591888
1767708904137251800,1.461251953125,-0.012886976823210716,-0.058665741235017776,0.07585351914167404
1767708904147252000,1.471251953125,-0.03457910940051079,-0.06287486106157303,0.07722347229719162
1767708904157252900,1.4812529296875,-0.049293339252471924,-0.0793294683098793,0.07250035554170609
1767708904167252700,1.491252685546875,-0.0599668063223362,-0.1016508936882019,0.07740047574043274
1767708904177252900,1.5012529296875,-0.06588435173034668,-0.10488530248403549,0.0698474869132042
1767708904187252700,1.511252685546875,-0.057227469980716705,-0.1151278167963028,0.049017760902643204
1767708904197252900,1.5212529296875,-0.04083917662501335,-0.07653728127479553,0.013389457017183304
1767708904207254000,1.53125390625,-0.024172937497496605,-0.051677074283361435,-0.022346656769514084
1767708904217254000,1.54125390625,-0.01494215615093708,-0.040181539952754974,-0.03303632140159607
1767708904227254000,1.55125390625,-0.005044242367148399,-0.019234444946050644,-0.039268992841243744
1767708904237254000,1.56125390625,0.0010211069602519274,0.09646765142679214,-0.11782479286193848
1767708904247254800,1.5712548828125,-0.011645343154668808,0.024152442812919617,-0.08691180497407913
1767708904257255000,1.5812548828125,-0.022105174139142036,-0.02607184275984764,-0.009537922218441963
1767708904267254800,1.5912548828125,-0.022765669971704483,-0.0369134396314621,0.027680566534399986
1767708904277255000,1.6012548828125,-0.01774880662560463,-0.04084719717502594,0.03685355931520462
1767708904287254800,1.6112548828125,-0.010742261074483395,-0.05445408076047897,0.026525765657424927
1767708904297255700,1.621255615234375,-0.0023951148614287376,-0.09137668460607529,0.026349464431405067
1767708904307255800,1.631255859375,0.0031716772355139256,-0.10951028019189835,0.02660391665995121
1767708904317256000,1.641255859375,0.009658604860305786,-0.11161603778600693,0.018745461478829384
1767708904327256000,1.651256103515625,0.01505448017269373,-0.07957848161458969,0.0043810345232486725
1767708904337257000,1.661257080078125,0.02617024816572666,-0.03844542056322098,-0.029915953055024147
1767708904347257300,1.67125732421875,0.04176804795861244,-0.02161850780248642,-0.06530819088220596
1767708904357257500,1.681257568359375,0.043777402490377426,-0.024541592225432396,-0.07512646168470383
1767708904367257300,1.69125732421875,0.04769438877701759,-0.03556495159864426,-0.06652054190635681
1767708904377257500,1.701257568359375,0.05493845045566559,-0.0547194704413414,-0.07449830323457718
1767708904387258400,1.71125830078125,0.06588239222764969,-0.058752961456775665,-0.09562863409519196
1767708904397258200,1.72125830078125,0.06466799229383469,-0.05506501346826553,-0.0981471911072731
1767708904407258400,1.73125830078125,0.06287096440792084,-0.04928795248270035,-0.06923960149288177
1767708904417258200,1.74125830078125,0.05721920728683472,-0.0485830120742321,-0.05280070751905441
1767708904427259100,1.751259033203125,0.04923529922962189,-0.034397952258586884,-0.04722015932202339
1767708904437259300,1.76125927734375,0.043570756912231445,-0.009939213283360004,-0.05544879287481308
1767708904447259400,1.77125927734375,0.03239718824625015,0.021604064851999283,-0.05097433924674988
1767708904457259500,1.781259521484375,0.012016285210847855,0.04337593913078308,-0.024247918277978897
1767708904467259400,1.79125927734375,-0.048593487590551376,0.1110021248459816,0.011942708864808083
1767708904477260300,1.80126025390625,-0.0437886118888855,0.05277130380272865,0.054387904703617096
1767708904487260400,1.811260498046875,-0.03477168083190918,0.023902107030153275,0.040241457521915436
1767708904497260300,1.82126025390625,-0.01924811862409115,0.028848929330706596,0.03972214460372925
1767708904507260400,1.831260498046875,0.0037285401485860348,0.026902025565505028,0.027292650192975998
1767708904517261300,1.84126123046875,0.012836284004151821,0.006961073260754347,0.015192311257123947
1767708904527261200,1.85126123046875,0.019261471927165985,-0.020538195967674255,0.0026436285115778446
1767708904537261300,1.86126123046875,0.01688273623585701,-0.05348921939730644,0.005336616653949022
1767708904547261200,1.87126123046875,0.009675111621618271,-0.07881108671426773,0.02700289897620678
1767708904557261300,1.88126123046875,0.007336058188229799,-0.07544191926717758,0.04077889770269394
1767708904567262500,1.891262451171875,0.005304341204464436,-0.070851169526577,0.04239216074347496
1767708904577262300,1.901262451171875,0.005921661853790283,-0.07891521602869034,0.033143267035484314
1767708904587262500,1.911262451171875,0.00389229878783226,-0.08596619963645935,0.031605880707502365
1767708904597262300,1.921262451171875,0.004483254160732031,-0.08616700768470764,0.0428801067173481
1767708904607263200,1.93126318359375,0.005100085400044918,-0.07309860736131668,0.05485114827752113
1767708904617263400,1.941263427734375,0.007254050113260746,-0.06537038087844849,0.05733108147978783
1767708904627263200,1.95126318359375,0.010249767452478409,-0.061664991080760956,0.05236044153571129
1767708904637263400,1.961263427734375,0.008427366614341736,-0.06270575523376465,0.05068611353635788
1767708904647264300,1.97126416015625,0.006982923019677401,-0.07740307599306107,0.061511874198913574
1767708904657264000,1.98126416015625,0.0014488741289824247,-0.09489551186561584,0.08066798746585846
1767708904667264300,1.99126416015625,-0.007752630859613419,-0.10320750623941422,0.09082864969968796
1767708904677264100,2.00126416015625,-0.01441000122576952,-0.10914848744869232,0.09577760100364685
1767708904687264300,2.01126416015625,-0.014662721194326878,-0.08989928662776947,0.09017658233642578
1767708904697265400,2.021265380859375,-0.011105271056294441,-0.07399888336658478,0.06344323605298996
1767708904707265300,2.031265380859375,-0.012671826407313347,-0.05932540446519852,0.04352359473705292
1767708904717265400,2.041265380859375,-0.012682745233178139,-0.05214259773492813,0.0341133177280426
1767708904727265300,2.051265380859375,-0.009340433403849602,-0.046530380845069885,0.03655978664755821
1767708904737266200,2.06126611328125,-0.0035659009590744972,-0.03891187533736229,0.030964486300945282
1767708904747266300,2.071266357421875,-0.0036076828837394714,-0.0330466628074646,0.025877568870782852
1767708904757266200,2.08126611328125,-0.0025267056189477444,-0.022685369476675987,0.017887817695736885
1767708904767266300,2.091266357421875,-0.001786848995834589,-0.018142681568861008,0.013284262269735336
1767708904777266200,2.10126611328125,-0.0013058821205049753,-0.012210756540298462,0.010271428152918816
1767708904787267300,2.111267333984375,0.00039024604484438896,0.0033819181844592094,0.008788409642875195
1767708904797267200,2.12126708984375,0.0006277999491430819,0.0085923932492733,-0.0028666481375694275
1767708904807267300,2.131267333984375,-0.00006531353574246168,0.005865051876753569,-0.012656592763960361
1767708904817267500,2.141267333984375,-0.0029702894389629364,0.009099993854761124,-0.01937175542116165
1767708904827268400,2.151268310546875,-0.003246841486543417,0.01117033138871193,-0.019604535773396492
1767708904837268500,2.1612685546875,0.002253651386126876,0.014694226905703545,-0.021064480766654015
1767708904847268400,2.171268310546875,0.001221143756993115,0.020823225378990173,-0.02181495912373066
1767708904857268200,2.181268310546875,0.002770837163552642,0.018548885360360146,-0.014389533549547195
1767708904867268400,2.191268310546875,0.0028781332075595856,0.011325993575155735,-0.002852704841643572
1767708904877269200,2.201269287109375,0.002820076420903206,-0.00427480461075902,-0.005919068120419979
1767708904887269400,2.211269287109375,0.006926769856363535,-0.015079912729561329,-0.006713082082569599
1767708904897269200,2.221269287109375,0.005269751418381929,-0.019485047087073326,-0.005224907770752907
1767708904907269000,2.23126904296875,0.0075363279320299625,-0.011199288070201874,-0.008232053369283676
1767708904917270500,2.2412705078125,0.01039869338274002,-0.012184923514723778,-0.025514105334877968
1767708904927270400,2.2512705078125,0.009547796100378036,-0.015213205479085445,-0.02735605463385582
1767708904937270500,2.2612705078125,0.009245526976883411,-0.01258812751621008,-0.01676040142774582
1767708904947270400,2.2712705078125,0.004959452897310257,-0.016924286261200905,-0.007300747092813253
1767708904957271300,2.281271240234375,0.007693454157561064,-0.015049153938889503,-0.01198790967464447
1767708904967271400,2.291271484375,0.004509279038757086,-0.012721287086606026,-0.01969466544687748
1767708904977271300,2.301271240234375,-0.00026097509544342756,-0.013123158365488052,-0.015581680461764336
1767708904987271400,2.311271484375,-0.0031994949094951153,-0.019474662840366364,-0.007654635235667229
1767708904997271300,2.321271240234375,-0.003813353832811117,-0.019915683194994926,-0.0008025886490941048
1767708905007272200,2.331272216796875,-0.009553232230246067,-0.02246778830885887,-0.00031368760392069817
1767708905017272300,2.341272216796875,-0.014869967475533485,-0.03157047554850578,0.00040430063381791115
1767708905027272200,2.351272216796875,-0.01791444607079029,-0.039725739508867264,-0.00312243215739727
1767708905037272300,2.361272216796875,-0.017947735264897346,-0.033838286995887756,-0.0028390721417963505
1767708905047273500,2.3712734375,-0.016225168481469154,-0.03429155796766281,-0.0017951680347323418
1767708905057273300,2.3812734375,-0.019231343641877174,-0.033649735152721405,0.003167366376146674
1767708905067273500,2.3912734375,-0.013980476185679436,-0.025230420753359795,0.00630404194816947
1767708905077273300,2.4012734375,-0.014751993119716644,-0.021018363535404205,0.007769313175231218
1767708905087274200,2.411274169921875,-0.014125596731901169,-0.016699116677045822,0.008845828473567963
1767708905097274400,2.4212744140625,-0.01419776864349842,-0.009896604344248772,0.004231901373714209
1767708905107274200,2.431274169921875,-0.015718121081590652,-0.011728990823030472,0.006412055809050798
1767708905117274400,2.4412744140625,-0.015357793308794498,-0.009829889982938766,0.006365184206515551
1767708905127274200,2.451274169921875,-0.014447311870753765,-0.00594433955848217,0.003696379717439413
1767708905137275100,2.461275146484375,-0.014245443977415562,-0.002825777977705002,0.005098267924040556
1767708905147275300,2.471275146484375,-0.01586274243891239,-0.0030996829736977816,0.009015416726469994
1767708905157275100,2.481275146484375,-0.014206255786120892,0.002760603092610836,0.015769725665450096
1767708905167275500,2.491275634765625,-0.009450120851397514,0.01168711856007576,0.017558079212903976
1767708905177276400,2.5012763671875,-0.004804769530892372,0.0051533193327486515,0.017191095277667046
1767708905187276300,2.5112763671875,-0.0034380690194666386,0.004453706089407206,0.01286617573350668
1767708905197276400,2.5212763671875,-0.0024340576492249966,0.005789814051240683,0.013941028155386448
1767708905207276300,2.5312763671875,-0.005000029690563679,0.007041233591735363,0.01416995469480753
1767708905217276400,2.5412763671875,-0.006819767411798239,0.010680442675948143,0.012254608795046806
1767708905227277300,2.55127734375,-0.007200050633400679,0.011062074452638626,0.01133112981915474
1767708905237277200,2.561277099609375,-0.005303613375872374,0.006996492389589548,0.011347642168402672
1767708905247277300,2.57127734375,-0.003487857524305582,0.0072767906822264194,0.011312633752822876
1767708905257277200,2.581277099609375,-0.00004838511813431978,0.004009890835732222,0.009635109454393387
1767708905267278300,2.5912783203125,0.003076851600781083,0.0010332758538424969,0.013045391999185085
1767708905277278500,2.601278564453125,0.0037274619098752737,-0.001971568912267685,0.014174039475619793
1767708905287278300,2.6112783203125,0.005821991711854935,0.0009673619642853737,0.009700637310743332
1767708905297278500,2.621278564453125,0.003899988252669573,0.002172442153096199,0.0020264724735170603
1767708905307279400,2.631279296875,0.0034662142861634493,-0.0009422563016414642,0.001725546084344387
1767708905317279200,2.641279296875,0.0037229431327432394,-0.008004959672689438,0.005152767989784479
1767708905327279400,2.651279296875,0.0047415513545274734,-0.015419200994074345,0.011762948706746101
1767708905337279200,2.661279296875,0.00363074685446918,-0.01777237094938755,0.014953682199120522
1767708905347279600,2.671279541015625,0.0055258688516914845,-0.019378522410988808,0.012026441283524036
1767708905357280500,2.681280517578125,0.006257173139601946,-0.016298310831189156,0.008332902565598488
1767708905367280400,2.6912802734375,0.010540051385760307,-0.019307151436805725,0.005729291122406721
1767708905377280500,2.701280517578125,0.011316895484924316,-0.014056728221476078,0.0012333428021520376
1767708905387280400,2.7112802734375,0.011577361263334751,-0.010836433619260788,-0.0034352587535977364
1767708905397281500,2.721281494140625,0.011789082549512386,-0.012449244037270546,0.000475060660392046
1767708905407281700,2.73128173828125,0.012438344769179821,-0.011035904288291931,0.000769500620663166
1767708905417281500,2.741281494140625,0.009575978852808475,-0.006628639064729214,0.0008461996912956238
1767708905427281700,2.75128173828125,0.007378600537776947,-0.008912699297070503,-0.0004770844243466854
1767708905437281500,2.761281494140625,0.0051804278045892715,-0.013925567269325256,0.0030079279094934464
1767708905447282400,2.771282470703125,0.004244089592248201,-0.015874868258833885,0.0072431378066539764
1767708905457282600,2.781282470703125,0.002049111993983388,-0.014119578525424004,0.003608189057558775
1767708905467282400,2.791282470703125,0.000026183435693383217,-0.013219695538282394,-0.0013022273778915405
1767708905477282600,2.801282470703125,-0.000026014517061412334,-0.01824508048593998,0.0017931647598743439
1767708905487283500,2.811283447265625,-0.0006910311058163643,-0.019611015915870667,0.00525764562189579
1767708905497283600,2.82128369140625,0.003788139671087265,-0.01705118641257286,0.0067583369091153145
1767708905507283500,2.831283447265625,0.006937636062502861,-0.020494386553764343,0.0049834707751870155
1767708905517283600,2.84128369140625,0.0062814331613481045,-0.02329363487660885,0.0051927948370575905
1767708905527284700,2.85128466796875,0.009180770255625248,-0.018654808402061462,0.000517525477334857
1767708905537284600,2.86128466796875,0.008772240951657295,-0.019439376890659332,-0.001147748902440071
1767708905547284500,2.871284423828125,0.005045647732913494,-0.01780339702963829,0.004741088021546602
1767708905557284600,2.88128466796875,0.0030789030715823174,-0.017832959070801735,0.0017871097661554813
1767708905567284500,2.891284423828125,0.0021740186493843794,-0.010428037494421005,0.0008653595577925444
1767708905577285600,2.90128564453125,0.0013284649467095733,-0.003484377870336175,0.001458711689338088
1767708905587285500,2.911285400390625,0.0012265002587810159,0.002384430728852749,0.004395590163767338
1767708905597285600,2.92128564453125,-0.0003144047223031521,0.006288624834269285,0.003915156237781048
1767708905607285500,2.931285400390625,-0.00021884008310735226,0.00444811349734664,0.003750175703316927
1767708905617286700,2.94128662109375,0.0011843794491142035,0.0037913783453404903,0.003399437293410301
1767708905627286800,2.951286865234375,0.00016542919911444187,0.003974336665123701,0.004918746184557676
1767708905637286700,2.96128662109375,-0.00005987414624541998,0.0015982640907168388,0.002165570156648755
1767708905647286500,2.97128662109375,-0.0022127232514321804,-0.000632931012660265,0.004817862529307604
1767708905657287700,2.98128759765625,-0.002946690423414111,-0.0007258751429617405,0.009030716493725777
1767708905667287600,2.99128759765625,-0.00553320674225688,0.0033590132370591164,0.007478882558643818
1767708905677287700,3.00128759765625,-0.005714834202080965,0.007521800231188536,-0.0003004767931997776
1767708905687287600,3.01128759765625,-0.005123116075992584,0.011108944192528725,0.0005523627623915672
1767708905697287700,3.02128759765625,-0.0041915420442819595,0.01053609885275364,0.0021441341377794743
1767708905707288600,3.03128857421875,-0.0048886630684137344,0.011273662559688091,0.0055091786198318005
1767708905717288400,3.041288330078125,-0.002609529998153448,0.012008694931864738,0.008006424643099308
1767708905727288600,3.05128857421875,-0.004581617657095194,0.01514802873134613,0.008765853010118008
1767708905737288400,3.061288330078125,-0.005082292016595602,0.014612734317779541,0.008846813812851906
1767708905747289600,3.07128955078125,-0.0019344313768669963,0.009081481955945492,0.008642775006592274
1767708905757289700,3.081289794921875,0.0021556513383984566,0.007901168428361416,0.009426543489098549
1767708905767289600,3.09128955078125,0.0038211382925510406,0.005384612828493118,0.006066422909498215
1767708905777289700,3.101289794921875,0.0022528027184307575,0.0058610523119568825,-0.0017680646851658821
1767708905787290600,3.11129052734375,0.0037977187894284725,0.007476527243852615,-0.0065078530460596085
1767708905797290500,3.12129052734375,0.0022978263441473246,0.004832540638744831,-0.006880962289869785
1767708905807290600,3.13129052734375,0.005328204948455095,0.004992062691599131,0.001722701359540224
1767708905817290500,3.14129052734375,0.0036528105847537518,0.0021576606668531895,0.0014329494442790747
1767708905827291400,3.15129150390625,-0.0000302798580378294,-0.00549293402582407,-0.0003900546580553055
1767708905837291500,3.16129150390625,-0.004158179275691509,-0.013502923771739006,-0.0017080530524253845
1767708905847291400,3.17129150390625,-0.004863736219704151,-0.010027101263403893,0.00019242428243160248
1767708905857291500,3.18129150390625,-0.005392373539507389,-0.008354902267456055,-0.002616411540657282
1767708905867291400,3.19129150390625,-0.0020849660504609346,-0.006003463640809059,-0.0011692652478814125
1767708905877292500,3.20129248046875,-0.0005461915861815214,-0.005304916296154261,-0.0014659413136541843
1767708905887292700,3.211292724609375,0.00235743704251945,-0.0019104511011391878,-0.002292692195624113
1767708905897292500,3.22129248046875,0.0033611825201660395,0.010761668905615807,-0.001832498237490654
1767708905907292700,3.231292724609375,0.007012117654085159,0.012035723775625229,0.0011325853411108255
1767708905917293600,3.24129345703125,0.0030543941538780928,0.01469462364912033,0.005488185212016106
1767708905927293400,3.25129345703125,0.0022029620595276356,0.019980065524578094,0.007728371303528547
1767708905937293600,3.26129345703125,-0.00029188732150942087,0.0206245519220829,0.004037496168166399
1767708905947293400,3.27129345703125,-0.005739621818065643,0.018712002784013748,0.0033437274396419525
1767708905957294600,3.281294677734375,-0.004761975258588791,0.02178981713950634,0.000031021423637866974
1767708905967294500,3.29129443359375,-0.0033171316608786583,0.02333272248506546,0.003879856551066041
1767708905977294600,3.301294677734375,-0.0019024605862796307,0.022767066955566406,0.007821068167686462
1767708905987294700,3.311294677734375,0.0012924789916723967,0.02065877430140972,0.011188892647624016
1767708905997294600,3.321294677734375,0.004505050368607044,0.01649066060781479,0.008945711888372898
1767708906007295500,3.33129541015625,0.004260601010173559,0.00895058736205101,0.0019559639040380716
1767708906017295600,3.341295654296875,0.0063391984440386295,0.009458452463150024,-0.0026779361069202423
1767708906027295500,3.35129541015625,0.006737811956554651,0.008527275174856186,-0.005713069811463356
1767708906037295600,3.361295654296875,0.005562292877584696,0.004633734468370676,-0.0039884066209197044
1767708906047296500,3.371296630859375,0.005235846620053053,0.008048973977565765,-0.001373480074107647
1767708906057296600,3.381296630859375,0.004110927227884531,0.012082064524292946,-0.002379622310400009
1767708906067296500,3.391296630859375,0.0002799411304295063,0.01544923149049282,0.003514767624437809
1767708906077296400,3.40129638671875,-0.0012657576007768512,0.020245051011443138,0.006867420859634876
1767708906087297800,3.4112978515625,-0.0033044316805899143,0.022344687953591347,0.005677495617419481
1767708906097297700,3.421297607421875,-0.005310857202857733,0.026257138699293137,0.0010960595682263374
1767708906107297500,3.431297607421875,-0.0029680421575903893,0.031723275780677795,0.001209454843774438
1767708906117297700,3.441297607421875,-0.0007957016350701451,0.02719270810484886,0.006407679058611393
1767708906127297500,3.451297607421875,0.005323117598891258,0.035662222653627396,0.004252986051142216
1767708906137298700,3.461298583984375,0.009339164942502975,0.04015897214412689,0.0038479194045066833
1767708906147298600,3.471298583984375,0.008644631132483482,0.03909570351243019,0.010708287358283997
1767708906157298700,3.481298583984375,0.012140562757849693,0.04036310315132141,0.007842459715902805
1767708906167298600,3.491298583984375,0.011371524073183537,0.03867892175912857,0.007042175158858299
1767708906177299500,3.501299560546875,0.007835378870368004,0.03925762698054314,0.0033092221710830927
1767708906187299600,3.511299560546875,0.005086119752377272,0.0361863374710083,0.0012814560905098915
1767708906197299500,3.521299560546875,0.0022866048384457827,0.03519963473081589,-0.000019498169422149658
1767708906207299600,3.531299560546875,-0.0009584124200046062,0.03271690383553505,-0.005351589526981115
1767708906217300700,3.54130078125,-0.0017712090630084276,0.02891923487186432,-0.010060058906674385
1767708906227300600,3.551300537109375,-0.0018202236387878656,0.02865331619977951,-0.018250489607453346
1767708906237300700,3.56130078125,-0.0029334251303225756,0.022673189640045166,-0.01977115496993065
1767708906247300600,3.571300537109375,-0.00473482720553875,0.021047860383987427,-0.01877659372985363
1767708906257301500,3.581301513671875,-0.0035744879860430956,0.021088074892759323,-0.017473243176937103
1767708906267301600,3.591301513671875,-0.003696783911436796,0.023046163842082024,-0.01799781434237957
1767708906277301500,3.601301513671875,-0.0030467063188552856,0.02758791670203209,-0.01848836988210678
1767708906287301600,3.611301513671875,-0.002281466731801629,0.021295536309480667,-0.012489432469010353
1767708906297301500,3.621301513671875,0.0018610804108902812,0.019135713577270508,-0.004610738251358271
1767708906307302400,3.631302490234375,0.0009757582447491586,0.01992214098572731,-0.00696142390370369
1767708906317302500,3.641302490234375,0.0002982501173391938,0.014037088491022587,-0.0006555910222232342
1767708906327302400,3.651302490234375,-0.0014111903728917241,0.01086406596004963,0.0036929079797118902
1767708906337302500,3.661302490234375,-0.0037707509472966194,0.013668907806277275,0.004752579610794783
1767708906347303200,3.67130322265625,-0.007417918182909489,0.024006236344575882,0.0073064956814050674
1767708906357303000,3.681302978515625,-0.007828843779861927,0.027635324746370316,0.008968042209744453
1767708906367303200,3.69130322265625,-0.010600157082080841,0.03226243332028389,0.01127435453236103
1767708906377303000,3.701302978515625,-0.011603103950619698,0.03835148364305496,0.012455999851226807
1767708906387304200,3.71130419921875,-0.010241138748824596,0.035304028540849686,0.019317125901579857
1767708906397304000,3.721303955078125,-0.01026430819183588,0.024530477821826935,0.028870416805148125
1767708906407304000,3.731303955078125,-0.01045606005936861,0.017562715336680412,0.040700219571590424
1767708906417304000,3.741303955078125,-0.011736774817109108,0.019251160323619843,0.04440707340836525
1767708906427305200,3.75130517578125,-0.00979775469750166,0.03149837255477905,0.03614489734172821
1767708906437305000,3.76130517578125,-0.0069175465032458305,0.049505338072776794,0.012617734260857105
1767708906447305200,3.77130517578125,-0.003861556760966778,0.06463062763214111,-0.0016910191625356674
1767708906457305000,3.78130517578125,0.0002743322402238846,0.06516671925783157,-0.009431229904294014
1767708906467305200,3.79130517578125,-0.00017381994985044003,0.054102350026369095,-0.008407541550695896
1767708906477306000,3.80130615234375,0.002801197115331888,0.0487736314535141,-0.007616315968334675
1767708906487306200,3.81130615234375,0.002466097939759493,0.05158726125955582,-0.012265204451978207
1767708906497306000,3.82130615234375,0.0004980219528079033,0.05323256179690361,-0.012063072063028812
1767708906507306000,3.831305908203125,0.00001813611015677452,0.05171669274568558,-0.002900094259530306
1767708906517307100,3.84130712890625,-0.0022519424092024565,0.045748546719551086,0.0014581689611077309
1767708906527307000,3.85130712890625,-0.0015470542712137103,0.045645881444215775,0.0022874679416418076
1767708906537307100,3.86130712890625,-0.0019739591516554356,0.03838237747550011,-0.004175757989287376
1767708906547307000,3.87130712890625,-0.0005350681021809578,0.027764083817601204,-0.003294888883829117
1767708906557308200,3.88130810546875,0.002723043318837881,0.021929632872343063,0.0035723380278795958
1767708906567308300,3.891308349609375,0.008465674705803394,0.023597439751029015,0.009644273668527603
1767708906577308200,3.90130810546875,0.008902433328330517,0.023705828934907913,0.011471202597022057
1767708906587308300,3.911308349609375,0.008647020906209946,0.019929200410842896,0.011490272358059883
1767708906597309200,3.92130908203125,0.004764131736010313,0.010437428019940853,0.01573721505701542
1767708906607309000,3.93130908203125,0.001127367140725255,0.0005616294220089912,0.022320598363876343
1767708906617309200,3.94130908203125,0.00405098544433713,-0.011220728047192097,0.025167785584926605
1767708906627309000,3.95130908203125,0.006919181905686855,-0.028829950839281082,0.021709952503442764
1767708906637309200,3.96130908203125,0.008616680279374123,-0.031792715191841125,0.01825130358338356
1767708906647310000,3.97131005859375,0.009475840255618095,-0.020885473117232323,0.01265576109290123
1767708906657310000,3.98131005859375,0.010577590204775333,-0.03333841636776924,0.016558891162276268
1767708906667310000,3.99131005859375,0.009760960936546326,-0.04100552573800087,0.0177107285708189
1767708906677310000,4.00131005859375,0.007432025857269764,-0.04301514849066734,0.013819584622979164
1767708906687311000,4.01131103515625,0.008122172206640244,-0.040149979293346405,0.006509823724627495
1767708906697311200,4.021311279296875,0.004952477756887674,-0.03899017348885536,0.003748924471437931
1767708906707311000,4.03131103515625,0.0026631562504917383,-0.03696630895137787,-0.0056505510583519936
1767708906717311200,4.041311279296875,0.001748626702465117,-0.04733053222298622,0.0051118154078722
1767708906727312100,4.05131201171875,0.005218527279794216,-0.11076875776052475,0.09042683243751526
1767708906737312000,4.06131201171875,-0.0011986254248768091,-0.024737201631069183,0.0027813981287181377
1767708906747312000,4.07131201171875,0.00219230935908854,-0.04485991597175598,0.004664404317736626
1767708906757312000,4.08131201171875,0.0030690219718962908,-0.05346032977104187,0.018923502415418625
1767708906767313000,4.09131298828125,0.00485280342400074,-0.03689267113804817,0.01432585995644331
1767708906777313000,4.10131298828125,0.011818034574389458,-0.01979197934269905,0.0010462738573551178
1767708906787313200,4.111313232421875,0.01684771664440632,-0.009216699749231339,-0.013885634019970894
1767708906797313300,4.121313232421875,0.019597429782152176,-0.009780490770936012,-0.015032123774290085
1767708906807314200,4.131314208984375,0.020133480429649353,-0.0219560656696558,-0.001375790685415268
1767708906817314000,4.14131396484375,0.02379426173865795,-0.016075272113084793,0.0026218804996460676
1767708906827314200,4.151314208984375,0.014570682309567928,-0.09090171009302139,0.07990296185016632
1767708906837314000,4.16131396484375,0.01141749881207943,-0.002634964417666197,0.010520962066948414
1767708906847314200,4.171314208984375,0.01319573912769556,-0.009336009621620178,-0.009338712319731712
1767708906857315000,4.181315185546875,0.01186948549002409,-0.01693720370531082,0.0021600176114588976
1767708906867315000,4.19131494140625,0.009665083140134811,-0.005574163980782032,0.0016796044073998928
1767708906877315000,4.201315185546875,0.010582009330391884,0.0015407372266054153,-0.0005920720286667347
1767708906887315000,4.21131494140625,0.00948166660964489,-0.01654878258705139,0.007279960438609123
1767708906897316000,4.221316162109375,0.0005164016038179398,-0.0831560418009758,0.06844398379325867
1767708906907316200,4.231316162109375,0.00917376670986414,-0.01010899432003498,0.020262740552425385
1767708906917316000,4.241316162109375,0.009469377808272839,-0.002498478163033724,-0.006117202341556549
1767708906927316200,4.251316162109375,0.007510681636631489,-0.011161606758832932,-0.0020863120444118977
1767708906937317000,4.261317138671875,0.0038770646788179874,-0.010805808007717133,-0.0011076005175709724
1767708906947317200,4.271317138671875,0.006191860418766737,-0.008426540531218052,0.004490072838962078
1767708906957317000,4.281317138671875,0.00471913255751133,-0.0016722313594073057,0.008484547957777977
1767708906967317000,4.29131689453125,0.0010958554921671748,0.0009800093248486519,0.011576960794627666
1767708906977318100,4.301318115234375,0.002833568025380373,0.006663194391876459,0.00801604799926281
1767708906987318000,4.311318115234375,0.00008603872265666723,0.009883757680654526,0.0038431102875620127
1767708906997318100,4.321318115234375,0.0013630244648084044,0.005872504319995642,0.003043362870812416
1767708907007318000,4.331318115234375,-0.0005510358605533838,-0.004612362012267113,0.008830096572637558
1767708907017319200,4.341319091796875,-0.003028574399650097,-0.0072938986122608185,0.018489647656679153
1767708907027319300,4.3513193359375,-0.009799845516681671,-0.010624579153954983,0.021437188610434532
1767708907037319200,4.361319091796875,-0.010180942714214325,-0.003882254473865032,0.02082705870270729
1767708907047319300,4.3713193359375,-0.011989787220954895,0.0014251586981117725,0.011508366093039513
1767708907057319200,4.381319091796875,-0.011464078910648823,0.0063546705059707165,0.0013068614061921835
1767708907067320000,4.391320068359375,-0.009911734610795975,0.02333058975636959,-0.002283758018165827
1767708907077320200,4.4013203125,-0.007589990738779306,0.025402529165148735,-0.0012800125405192375
1767708907087320000,4.411320068359375,-0.007436346262693405,0.006700613535940647,0.000929014291614294
1767708907097320200,4.4213203125,-0.006826481781899929,-0.00643036887049675,0.0016994667239487171
1767708907107321000,4.431321044921875,-0.010628445073962212,-0.015949172899127007,0.0038175745867192745
1767708907117321000,4.441321044921875,-0.014758475124835968,-0.017495671287178993,0.005234376527369022
1767708907127321000,4.451321044921875,-0.020742062479257584,-0.0224950909614563,0.00662637036293745
1767708907137321000,4.461321044921875,-0.022654211148619652,-0.02099599689245224,0.004890522453933954
1767708907147322000,4.471322021484375,-0.020879218354821205,-0.010653210803866386,0.0012798486277461052
1767708907157322200,4.481322265625,-0.019076257944107056,-0.00037021352909505367,-0.0016941032372415066
1767708907167322000,4.491322021484375,-0.01425058301538229,0.007611680775880814,-0.004847034811973572
1767708907177322200,4.501322265625,-0.011231091804802418,0.011767810210585594,-0.0077117979526519775
1767708907187323100,4.5113232421875,-0.00848238356411457,0.005597134120762348,-0.0067733703181147575
1767708907197323000,4.521322998046875,-0.009380401112139225,0.0007331366650760174,-0.002203386276960373
1767708907207323100,4.5313232421875,-0.012904073111712933,-0.0032505537383258343,0.00434363866224885
1767708907217323000,4.541322998046875,-0.013721131719648838,-0.005959787406027317,0.013693997636437416
1767708907227324000,4.551323974609375,-0.016894813627004623,-0.00758857699111104,0.0239886324852705
1767708907237324000,4.561323974609375,-0.017214657738804817,-0.010506335645914078,0.032989051192998886
1767708907247324000,4.571323974609375,-0.019782554358243942,-0.012668558396399021,0.03526419401168823
1767708907257324300,4.58132421875,-0.015539339743554592,-0.01672535203397274,0.027588965371251106
1767708907267325200,4.5913251953125,-0.011778359301388264,-0.024797789752483368,0.0210917666554451
1767708907277325000,4.601324951171875,-0.010179131291806698,-0.03178512677550316,0.015210708603262901
1767708907287325200,4.6113251953125,-0.012406877242028713,-0.04078168421983719,0.028580162674188614
1767708907297325000,4.621324951171875,-0.011766653507947922,-0.04073081910610199,0.032921381294727325
1767708907307325200,4.6313251953125,-0.010447566397488117,-0.02687865123152733,0.02622382342815399
1767708907317326000,4.641326171875,-0.004805393051356077,-0.003184507368132472,0.00006545661017298698
1767708907327326000,4.651325927734375,-0.003852489870041609,0.002695753239095211,-0.015531321987509727
1767708907337326000,4.661326171875,-0.006172369699925184,0.006133627612143755,-0.017246663570404053
1767708907347326500,4.671326416015625,-0.008303818292915821,0.011883655562996864,-0.013317478820681572
1767708907357327600,4.68132763671875,-0.008379718288779259,0.01678547076880932,-0.007413783110678196
1767708907367327700,4.69132763671875,-0.008401280269026756,0.01808043196797371,-0.004495079163461924
1767708907377327600,4.70132763671875,-0.007602331228554249,0.017677228897809982,0.00128051801584661
1767708907387327700,4.71132763671875,-0.005809169262647629,0.022593559697270393,0.008287755772471428
1767708907397328600,4.72132861328125,-0.0006303865229710937,0.020212426781654358,0.0022256020456552505
1767708907407328500,4.73132861328125,0.0033207384403795004,0.017339276149868965,-0.004328774753957987
1767708907417328600,4.74132861328125,0.009901409037411213,0.018167519941926003,0.0002545258030295372
1767708907427328500,4.75132861328125,0.009293053299188614,0.01619824394583702,-0.0010449700057506561
1767708907437329400,4.761329345703125,0.010919446125626564,0.0172192994505167,-0.004163265693932772
1767708907447329500,4.77132958984375,0.004900439642369747,0.013199390843510628,-0.007509301416575909
1767708907457329400,4.781329345703125,0.005294321570545435,0.010150338523089886,-0.011505641043186188
1767708907467329500,4.79132958984375,0.0032231775112450123,0.013937752693891525,-0.011068841442465782
1767708907477330700,4.80133056640625,0.003757940139621496,0.01752050220966339,-0.01135965995490551
1767708907487330600,4.81133056640625,0.002320419065654278,0.023816483095288277,-0.0131211057305336
1767708907497330700,4.82133056640625,0.005592645145952702,0.02533634938299656,-0.015194907784461975
1767708907507330600,4.83133056640625,0.0073303538374602795,0.027995649725198746,-0.013004684820771217
1767708907517331700,4.841331787109375,0.01041349582374096,0.0205630324780941,-0.013722406700253487
1767708907527331600,4.85133154296875,0.01023336686193943,0.013121492229402065,-0.01299241278320551
1767708907537331500,4.86133154296875,0.010447750799357891,0.009492136538028717,-0.012420897372066975
1767708907547331600,4.87133154296875,0.010287508368492126,0.00963222049176693,-0.011102452874183655
1767708907557332500,4.88133251953125,0.008963384665548801,0.01048230193555355,-0.007052585016936064
1767708907567332600,4.89133251953125,0.0053633274510502815,0.010134093463420868,-0.0034107519313693047
1767708907577332500,4.90133251953125,0.0023699344601482153,0.007905559614300728,0.0004763980396091938
1767708907587332600,4.91133251953125,0.0006651648436672986,0.008375871926546097,0.006051014177501202
1767708907597333800,4.921333740234375,0.0024244491942226887,0.008372941985726357,0.002918603830039501
1767708907607333600,4.931333740234375,0.004127099644392729,0.01390765979886055,-0.00375921418890357
1767708907617333800,4.941333740234375,0.008092546835541725,0.023496903479099274,-0.00990871898829937
1767708907627333600,4.951333740234375,0.009063227102160454,0.02481956221163273,-0.008883225731551647
1767708907637333500,4.96133349609375,0.008172133937478065,0.018523583188652992,-0.009120780043303967
1767708907647334700,4.971334716796875,0.010859829373657703,0.014191020280122757,-0.013259694911539555
1767708907657334500,4.98133447265625,0.011061164550483227,0.015991317108273506,-0.016309015452861786
1767708907667334700,4.991334716796875,0.013288548216223717,0.019558219239115715,-0.014203658327460289
1767708907677334500,5.00133447265625,0.0123487189412117,0.022308997809886932,-0.018803469836711884
1767708907687335400,5.01133544921875,0.011539986357092857,0.013645603321492672,-0.025161733850836754
1767708907697335800,5.021335693359375,0.011048899032175541,0.005375423468649387,-0.017832180485129356
1767708907707335700,5.031335693359375,0.003754211822524667,0.005637478549033403,-0.0146087147295475
1767708907717335800,5.041335693359375,0.0025840187445282936,0.007203417364507914,-0.010711446404457092
1767708907727336700,5.051336669921875,0.000940353493206203,0.011491107754409313,-0.006700594909489155
1767708907737336600,5.061336669921875,-0.0035236370749771595,0.012857308611273766,-0.0023380713537335396
1767708907747336700,5.071336669921875,-0.005705628544092178,0.01922266185283661,-0.006681002210825682
1767708907757336600,5.081336669921875,-0.007601533085107803,0.01856805570423603,-0.009550558403134346
1767708907767337500,5.09133740234375,-0.0038845217786729336,0.01725591905415058,-0.0005713147111237049
1767708907777337600,5.101337646484375,-0.00016195548232644796,0.016264690086245537,0.010998522862792015
1767708907787337500,5.11133740234375,0.0016883653588593006,0.0042474400252103806,0.022052189335227013
1767708907797337600,5.121337646484375,0.0003908732905983925,-0.020235532894730568,0.031525321304798126
1767708907807338800,5.1313388671875,0.0011176897678524256,-0.028901057317852974,0.043220147490501404
1767708907817338600,5.141338623046875,-0.007608157116919756,-0.023303359746932983,0.04354611784219742
1767708907827338800,5.1513388671875,-0.012002110481262207,-0.008469418622553349,0.029600249603390694
1767708907837338600,5.161338623046875,-0.01732763461768627,0.009028349071741104,0.02411174215376377
1767708907847339500,5.171339599609375,-0.019915979355573654,0.02744850143790245,0.017840996384620667
1767708907857339600,5.181339599609375,-0.0205514095723629,0.026406671851873398,0.003402403322979808
1767708907867339500,5.191339599609375,-0.018411217257380486,0.032293327152729034,-0.0016821096651256084
1767708907877339600,5.201339599609375,-0.01940750516951084,0.03490535542368889,-0.0021990290842950344
1767708907887340500,5.211340576171875,-0.01925790123641491,0.03360319882631302,-0.0018974076956510544
1767708907897340400,5.22134033203125,-0.01944592036306858,0.04344011843204498,-0.0028830436058342457
1767708907907340500,5.231340576171875,-0.016529524698853493,0.05299753323197365,0.0028284681029617786
1767708907917340400,5.24134033203125,-0.009886002168059349,0.055393580347299576,0.004191739950329065
1767708907927341800,5.251341796875,-0.00552827212959528,0.05698561668395996,0.008506327867507935
1767708907937341700,5.261341796875,-0.0031021321192383766,0.06488402187824249,0.01654268242418766
1767708907947341600,5.271341552734375,0.00003721611574292183,0.0741313174366951,0.02191038802266121
1767708907957341700,5.281341796875,0.0028228824958205223,0.08086112141609192,0.026161059737205505
1767708907967342600,5.291342529296875,0.0043315705843269825,0.08867377042770386,0.030258784070611
1767708907977342700,5.3013427734375,0.004254871513694525,0.09053745865821838,0.032746441662311554
1767708907987342600,5.311342529296875,0.0072541022673249245,0.08297914266586304,0.048335231840610504
1767708907997342500,5.321342529296875,0.005941430106759071,0.07938866317272186,0.05079706013202667
1767708908007343600,5.331343505859375,0.0019466779194772243,0.0726161077618599,0.05070769786834717
1767708908017343500,5.341343505859375,-0.0007782683242112398,0.07987348735332489,0.03951762616634369
1767708908027343600,5.351343505859375,-0.0071418494917452335,0.07397139817476273,0.018132226541638374
1767708908037343500,5.361343505859375,-0.005590824410319328,0.07249493896961212,0.009840474463999271
1767708908047343600,5.371343505859375,-0.004238474648445845,0.06953603774309158,0.0068343388848006725
1767708908057344800,5.3813447265625,0.004404282197356224,0.05373257026076317,-0.0027453177608549595
1767708908067344600,5.3913447265625,0.01315174251794815,0.03994791582226753,0.0015840067062526941
1767708908077344800,5.4013447265625,0.016845546662807465,0.034916140139102936,0.011135167442262173
1767708908087344600,5.4113447265625,0.018923282623291016,0.030079171061515808,0.01296624168753624
1767708908097345500,5.421345458984375,0.023619500920176506,0.040781617164611816,0.0064984895288944244
1767708908107345700,5.431345703125,0.026151439175009727,0.052304983139038086,-0.006165605969727039
1767708908117345500,5.441345458984375,0.025234779343008995,0.06630575656890869,-0.010278325527906418
1767708908127346400,5.451346435546875,0.019521161913871765,0.06678897887468338,-0.006014905404299498
1767708908137346600,5.4613466796875,0.010962827131152153,0.06315137445926666,0.0011162410955876112
1767708908147346400,5.471346435546875,0.002880648709833622,0.06490492820739746,0.012554719112813473
1767708908157346600,5.4813466796875,-0.004447305575013161,0.06330835819244385,0.006309607066214085
1767708908167346700,5.4913466796875,-0.011674833483994007,0.06255321949720383,-0.008487464860081673
1767708908177347600,5.50134765625,-0.016691962257027626,0.06270741671323776,-0.018785376101732254
1767708908187347700,5.51134765625,-0.017891163006424904,0.06293165683746338,-0.01502150483429432
1767708908197347600,5.52134765625,-0.01317470334470272,0.06335350126028061,-0.006157174240797758
1767708908207347700,5.53134765625,-0.012874014675617218,0.07127068936824799,0.0033037704415619373
1767708908217348600,5.5413486328125,-0.011706484481692314,0.0781719982624054,0.013389959931373596
1767708908227348500,5.551348388671875,-0.01040476094931364,0.08096618950366974,0.019669750705361366
1767708908237348600,5.5613486328125,-0.007102707400918007,0.09017140418291092,0.019611693918704987
1767708908247348500,5.571348388671875,-0.0004259287379682064,0.09286505728960037,0.016349684447050095
1767708908257349400,5.581349365234375,0.002330442890524864,0.10753081738948822,0.010156502947211266
1767708908267349800,5.591349853515625,0.00849225651472807,0.1270320862531662,0.0016465256921947002
1767708908277349600,5.601349609375,0.007018463220447302,0.14420229196548462,0.0017671668902039528
1767708908287349800,5.611349853515625,0.010354071855545044,0.1384866088628769,0.006330493371933699
1767708908297350700,5.6213505859375,0.013246532529592514,0.12152333557605743,0.017993275076150894
1767708908307350500,5.6313505859375,0.009358294308185577,0.10476725548505783,0.026008300483226776
1767708908317350700,5.6413505859375,0.009501839056611061,0.10409215092658997,0.018406305462121964
1767708908327350500,5.6513505859375,0.0018574384739622474,0.09343550354242325,0.010692919604480267
1767708908337351700,5.6613515625,-0.0025120098143815994,0.08589929342269897,0.012416783720254898
1767708908347351000,5.67135107421875,-0.00573593657463789,0.076604463160038,0.012691332027316093
1767708908357351200,5.68135107421875,-0.01136426068842411,0.07206723839044571,0.00788672361522913
1767708908367351000,5.69135107421875,-0.012148648500442505,0.07755094766616821,0.00550789013504982
1767708908377352000,5.70135205078125,-0.0092303566634655,0.07659167796373367,0.01071516890078783
1767708908387352000,5.71135205078125,-0.007482418790459633,0.06602945178747177,0.010800287127494812
1767708908397352000,5.72135205078125,0.0007962841191329062,0.07068359106779099,0.02125346101820469
1767708908407352000,5.73135205078125,-0.0014563128352165222,0.06439106911420822,0.021118685603141785
1767708908417353200,5.741353271484375,-0.0057442681863904,0.059532396495342255,0.012698570266366005
1767708908427353000,5.75135302734375,-0.012844742275774479,0.06151552498340607,0.0026443470269441605
1767708908437353200,5.761353271484375,-0.020175360143184662,0.05798231065273285,-0.0034628137946128845
1767708908447353000,5.77135302734375,-0.023379426449537277,0.05709587410092354,-0.009186810813844204
1767708908457354000,5.78135400390625,-0.03084746189415455,0.058645568788051605,-0.011615081690251827
1767708908467354000,5.79135400390625,-0.029622120782732964,0.060984089970588684,-0.0223715640604496
1767708908477354000,5.80135400390625,-0.028374163433909416,0.056417569518089294,-0.03162737935781479
1767708908487354000,5.81135400390625,-0.025586633011698723,0.04833753779530525,-0.031301673501729965
1767708908497355000,5.82135498046875,-0.023021742701530457,0.04657718911767006,-0.030651599168777466
1767708908507355000,5.83135498046875,-0.015203013084828854,0.05274226889014244,-0.028693383559584618
1767708908517355000,5.84135498046875,-0.014167310670018196,0.05589066073298454,-0.035895369946956635
1767708908527355000,5.85135498046875,-0.011343004181981087,0.060559846460819244,-0.04735656455159187
1767708908537356000,5.86135595703125,-0.007822837680578232,0.060637347400188446,-0.05589359626173973
1767708908547356200,5.871356201171875,-0.006445454433560371,0.0560603030025959,-0.05323545262217522
1767708908557356000,5.88135595703125,-0.006903517991304398,0.04931877925992012,-0.03961977735161781
1767708908567356200,5.891356201171875,-0.006067368667572737,0.03971261903643608,-0.030505966395139694
1767708908577357000,5.901357177734375,-0.001971959602087736,0.03146028518676758,-0.022559359669685364
1767708908587357000,5.91135693359375,-0.0032403673976659775,0.02289436198771,-0.013140177354216576
1767708908597357000,5.921357177734375,-0.0011939946562051773,0.015102218836545944,-0.0033898120746016502
1767708908607357000,5.93135693359375,0.0010700043058022857,0.018757540732622147,0.0015764599665999413
1767708908617358000,5.941358154296875,0.0028463327325880527,0.02514459937810898,-0.005604221485555172
1767708908627358000,5.95135791015625,0.0044202255085110664,0.02443433552980423,-0.01574992761015892
1767708908637357800,5.96135791015625,0.005107853561639786,0.017368435859680176,-0.013386906124651432
1767708908647358200,5.971358154296875,0.0082533098757267,0.013325357809662819,-0.01045019831508398
1767708908657359000,5.981359130859375,0.006839703768491745,0.005413371603935957,-0.004855696111917496
1767708908667359200,5.991359130859375,0.00747781153768301,0.006860800087451935,-0.00007175514474511147
1767708908677359000,6.001359130859375,0.0037198245991021395,0.010089084506034851,-0.004480884876102209
1767708908687359000,6.01135888671875,0.0018846653401851654,0.018431836739182472,-0.018415890634059906
1767708908697360100,6.021360107421875,0.0016274040099233389,0.019841447472572327,-0.03016895242035389
1767708908707360000,6.031360107421875,0.0033510392531752586,0.02017168141901493,-0.02394714578986168
1767708908717360000,6.041360107421875,0.007641658186912537,0.02011096104979515,-0.017234914004802704
1767708908727360000,6.051360107421875,0.01151943113654852,0.015395965427160263,-0.01252158172428608
1767708908737361000,6.06136083984375,0.014179396443068981,0.008079463616013527,-0.01131676696240902
1767708908747361300,6.071361328125,0.011601688340306282,0.005060769617557526,-0.006048364564776421
1767708908757361200,6.081361083984375,0.009825093671679497,-0.00192363653331995,0.00815640389919281
1767708908767361300,6.091361328125,0.011040573939681053,-0.008110692724585533,0.010592502541840076
1767708908777362200,6.101362060546875,0.00822454784065485,-0.007579658180475235,0.002552152844145894
1767708908787362000,6.111362060546875,0.0068879276514053345,-0.005032077897340059,-0.001745631918311119
1767708908797362200,6.121362060546875,0.005143557675182819,-0.004262157715857029,0.00515355309471488
1767708908807362000,6.131362060546875,0.0034348221961408854,0.0006280702073127031,0.013510092161595821
1767708908817363000,6.141363037109375,0.0008773885201662779,0.006705936975777149,0.012190495617687702
1767708908827363000,6.151363037109375,0.00006273423787206411,0.011289769783616066,0.00678872549906373
1767708908837363000,6.161363037109375,-0.00028374302200973034,0.01563737913966179,0.0018794543575495481
1767708908847363000,6.171363037109375,0.0004050541901960969,0.018309198319911957,0.002392542315647006
1767708908857364200,6.1813642578125,-0.0014048301381990314,0.010602010414004326,0.012463819235563278
1767708908867364000,6.191364013671875,0.00208090478554368,0.006687828339636326,0.015674039721488953
1767708908877364200,6.2013642578125,0.002892636228352785,0.005512308329343796,0.015882033854722977
1767708908887364000,6.211364013671875,0.002154367743059993,0.0013204922433942556,0.01387822162359953
1767708908897365000,6.221364990234375,0.006321682594716549,0.003932520747184753,0.011278975754976273
1767708908907365000,6.231365234375,0.0013149970909580588,-0.0055021257139742374,0.019633691757917404
1767708908917365000,6.241364990234375,-0.0006964884232729673,-0.022694962099194527,0.029214413836598396
1767708908927365000,6.251365234375,-0.0008581632282584906,-0.02968416176736355,0.025220979005098343
1767708908937366000,6.261365966796875,0.001901936950162053,-0.02637731470167637,0.020348194986581802
1767708908947366000,6.271365966796875,0.007237033918499947,-0.02283930405974388,0.009336717426776886
1767708908957366000,6.281365966796875,0.009229344315826893,-0.011583986692130566,-0.00012655975297093391
1767708908967366000,6.291365966796875,0.01169173140078783,0.00037200842052698135,-0.003805506508797407
1767708908977367000,6.301366943359375,0.015367692336440086,0.008237920701503754,-0.0015801694244146347
1767708908987367200,6.3113671875,0.014742918312549591,0.004841991234570742,0.00890572089701891
1767708908997367000,6.321366943359375,0.016492880880832672,0.004856905434280634,0.016311172395944595
1767708909007367200,6.3313671875,0.015672309324145317,0.0016564500983804464,0.020509187132120132
1767708909017368000,6.3413681640625,0.011794747784733772,-0.0024426875170320272,0.020782161504030228
1767708909027368200,6.3513681640625,0.012050239369273186,-0.0030662640929222107,0.023852229118347168
1767708909037368000,6.3613681640625,0.011870209127664566,-0.011839515529572964,0.027671733871102333
1767708909047368000,6.371367919921875,0.011093508452177048,-0.015846511349081993,0.0236789770424366
1767708909057369000,6.381369140625,0.012751593254506588,-0.018267057836055756,0.01766422763466835
1767708909067369000,6.391368896484375,0.01107088103890419,-0.020755648612976074,0.014308257959783077
1767708909077369000,6.401369140625,0.00913955643773079,-0.027619147673249245,0.006885761395096779
1767708909087369000,6.411368896484375,0.0070847077295184135,-0.029527300968766212,-0.0009130723774433136
1767708909097370000,6.4213701171875,0.0035240615252405405,-0.02777174487709999,-0.003442009910941124
1767708909107370200,6.431370361328125,0.00220339628867805,-0.02785390429198742,0.002369048073887825
1767708909117370000,6.4413701171875,0.002852941397577524,-0.026609143242239952,0.001309109851717949
1767708909127370200,6.451370361328125,0.006252160761505365,-0.018325647339224815,-0.012258412316441536
1767708909137371100,6.46137109375,0.008287880569696426,-0.01461852714419365,-0.022230086848139763
1767708909147371000,6.47137109375,0.007448225747793913,-0.010915933176875114,-0.02655128203332424
1767708909157371100,6.48137109375,0.0054540508426725864,-0.005194664001464844,-0.027793381363153458
1767708909167371000,6.49137109375,0.005263414233922958,-0.0027449545450508595,-0.02116556279361248
1767708909177372000,6.501371826171875,0.0026007858105003834,-0.009784221649169922,-0.013863176107406616
1767708909187372000,6.5113720703125,0.0043416451662778854,-0.015634655952453613,-0.003244854975491762
1767708909197372000,6.521371826171875,0.006764056161046028,-0.02313544787466526,0.003089473582804203
1767708909207372000,6.5313720703125,0.009616319090127945,-0.024383004754781723,0.016225315630435944
1767708909217373200,6.541373291015625,0.011437388136982918,-0.029826242476701736,0.021819550544023514
1767708909227373000,6.551373046875,0.008593118749558926,-0.037151798605918884,0.015232382342219353
1767708909237373200,6.561373291015625,0.005517700221389532,-0.03779734671115875,0.0015218965709209442
1767708909247373000,6.571373046875,0.0036548757925629616,-0.038051147013902664,-0.005106823053210974
1767708909257374000,6.5813740234375,0.0020210265647619963,-0.04275881499052048,-0.005370475817471743
1767708909267374000,6.5913740234375,-0.0005068990867584944,-0.048144929111003876,-0.005359485745429993
1767708909277374000,6.6013740234375,-0.003469399642199278,-0.04792281985282898,0.0018526206258684397
1767708909287374000,6.6113740234375,-0.0045762453228235245,-0.05089850351214409,0.004453375469893217
1767708909297375000,6.621375,-0.0063291387632489204,-0.05481947585940361,0.0007899308111518621
1767708909307374800,6.631374755859375,-0.005935213528573513,-0.04611000791192055,-0.004580591805279255
1767708909317375200,6.641375244140625,-0.004433989524841309,-0.03740306943655014,-0.014455592259764671
1767708909327375000,6.651375,-0.004866217263042927,-0.024867702275514603,-0.031549930572509766
1767708909337376000,6.6613759765625,-0.003780180122703314,-0.013393738307058811,-0.04166887700557709
1767708909347375600,6.671375732421875,-0.005444360896945,0.00031088944524526596,-0.03839431330561638
1767708909357375700,6.681375732421875,-0.0039053200744092464,0.015181981027126312,-0.037165794521570206
1767708909367375600,6.691375732421875,-0.005402900278568268,0.019793374463915825,-0.025272972881793976
1767708909377376800,6.701376708984375,-0.0088434386998415,0.007166530005633831,-0.015295973978936672
1767708909387377000,6.711376953125,-0.011736899614334106,-0.0010899335611611605,-0.01318192295730114
1767708909397376800,6.721376708984375,-0.016112472862005234,0.001069357618689537,-0.01463148184120655
1767708909407376600,6.731376708984375,-0.016793442890048027,0.002097071148455143,-0.008541897870600224
1767708909417377800,6.741377685546875,-0.013655973598361015,0.001322357915341854,-0.00948332529515028
1767708909427377700,6.751377685546875,-0.010563790798187256,-0.002910470589995384,-0.003771216608583927
1767708909437377800,6.761377685546875,-0.00676692184060812,-0.01431385986506939,0.0042771222069859505
1767708909447377700,6.771377685546875,-0.0021746261045336723,-0.026452817022800446,0.008716539479792118
1767708909457378600,6.781378662109375,-0.00012532365508377552,-0.023396307602524757,0.005407827906310558
1767708909467378700,6.791378662109375,-0.0006059956504032016,-0.021790819242596626,0.004250321537256241
1767708909477378800,6.80137890625,0.0019090936984866858,-0.02271626889705658,0.0018020772840827703
1767708909487379000,6.81137890625,0.004179441835731268,-0.019991453737020493,0.002008165931329131
1767708909497379800,6.8213798828125,0.005481993779540062,-0.016263294965028763,0.0044332402758300304
1767708909507379700,6.831379638671875,0.006169638596475124,-0.0220496766269207,0.008848292753100395
1767708909517379800,6.8413798828125,0.007932119071483612,-0.025619111955165863,0.011753534898161888
1767708909527379700,6.851379638671875,0.007375764194875956,-0.026478782296180725,0.010450959205627441
1767708909537380600,6.861380615234375,0.002124010818079114,-0.026362668722867966,0.004731288179755211
1767708909547380700,6.871380615234375,-0.002118924167007208,-0.02740928903222084,0.003945227712392807
1767708909557380600,6.881380615234375,-0.003740256652235985,-0.02619142457842827,0.004968680441379547
1767708909567381500,6.891381591796875,-0.0013921798672527075,-0.028890008106827736,0.0030500104185193777
1767708909577382000,6.9013818359375,0.0005687055527232587,-0.02584601566195488,-0.00047015585005283356
1767708909587381800,6.9113818359375,0.0043301768600940704,-0.02243783324956894,0.003748541697859764
1767708909597382000,6.9213818359375,0.00667509064078331,-0.023506559431552887,0.004893701057881117
1767708909607382800,6.9313828125,0.006295307539403439,-0.023099763318896294,0.007665720302611589
1767708909617382700,6.941382568359375,0.008258855901658535,-0.021900808438658714,0.0042150625959038734
1767708909627382800,6.9513828125,0.009396840818226337,-0.018562136217951775,0.002100311452522874
1767708909637382700,6.961382568359375,0.005427399650216103,-0.016874490305781364,-0.0009700469672679901
1767708909647383800,6.9713837890625,0.006841281428933144,-0.010852949693799019,-0.004617101047188044
1767708909657383700,6.9813837890625,0.006399995647370815,-0.012326477095484734,-0.0021219858899712563
1767708909667383600,6.991383544921875,0.0058663394302129745,-0.015216272324323654,-0.002564819995313883
1767708909677383700,7.0013837890625,0.005094288848340511,-0.013180818408727646,-0.009408611804246902
1767708909687384800,7.011384765625,0.00004887906834483147,-0.011265872977674007,-0.010703900828957558
1767708909697385000,7.021385009765625,0.0005657986621372402,-0.008551579900085926,-0.0164954774081707
1767708909707384800,7.031384765625,0.0009919244330376387,-0.005303055047988892,-0.018681108951568604
1767708909717384700,7.041384765625,0.0018417390529066324,-0.006812534295022488,-0.014190221205353737
1767708909727385900,7.0513857421875,0.0023008817806839943,-0.006715861614793539,-0.010586059652268887
1767708909737385700,7.0613857421875,0.003498771693557501,-0.011759888380765915,-0.009809481911361217
1767708909747385900,7.0713857421875,0.0023306594230234623,-0.011207683943212032,-0.009031767025589943
1767708909757385700,7.0813857421875,0.00007229880429804325,-0.003092232858762145,-0.011107168160378933
1767708909767386600,7.09138671875,-0.001552182948216796,0.01255144365131855,-0.02070390060544014
1767708909777386800,7.10138671875,-0.003611339023336768,0.01994837261736393,-0.0243670791387558
1767708909787386600,7.11138671875,-0.006534204818308353,0.023956695571541786,-0.018422871828079224
1767708909797386800,7.12138671875,-0.007349131628870964,0.02709869295358658,-0.012672308832406998
1767708909807388000,7.131387939453125,-0.006055311765521765,0.02125238999724388,-0.01342826709151268
1767708909817387800,7.1413876953125,-0.008336042985320091,0.016095444560050964,-0.0199828390032053
1767708909827388000,7.151387939453125,-0.00997414905577898,0.007349223829805851,-0.02238105610013008
1767708909837387800,7.1613876953125,-0.011780837550759315,-0.002245612908154726,-0.026206154376268387
1767708909847388700,7.171388671875,-0.01323839370161295,0.00206178380176425,-0.02300601825118065
1767708909857388800,7.181388916015625,-0.017744194716215134,-0.0007499814964830875,-0.01764853671193123
1767708909867388700,7.191388671875,-0.017919206991791725,-0.00020483322441577911,-0.02187129482626915
1767708909877388800,7.201388916015625,-0.020626043900847435,0.009382280521094799,-0.023405540734529495
1767708909887389700,7.2113896484375,-0.0197431743144989,0.012924951501190662,-0.024424031376838684
1767708909897389600,7.2213896484375,-0.017160706222057343,0.015155081637203693,-0.021288424730300903
1767708909907389700,7.2313896484375,-0.014492192305624485,0.014596085995435715,-0.012506441213190556
1767708909917389600,7.2413896484375,-0.013181650079786777,0.013402722775936127,-0.012266223318874836
1767708909927390700,7.251390625,-0.012725242413580418,0.009494133293628693,-0.007332032546401024
1767708909937390800,7.261390869140625,-0.013124183751642704,0.008046705275774002,-0.0071293655782938
1767708909947390700,7.271390625,-0.011960335075855255,0.010096007958054543,-0.009550478309392929
1767708909957390800,7.281390869140625,-0.01094034407287836,0.024568689987063408,-0.012963585555553436
1767708909967391700,7.291391845703125,-0.010922025889158249,0.04133502021431923,-0.013270228169858456
1767708909977391600,7.3013916015625,-0.008185095153748989,0.0483684279024601,-0.014424975030124187
1767708909987391700,7.311391845703125,-0.005777067970484495,0.0419711172580719,-0.019287068396806717
1767708909997391600,7.3213916015625,-0.006370420567691326,0.0348743237555027,-0.013749556615948677
1767708910007392800,7.331392822265625,-0.0048981923609972,0.035752102732658386,-0.008840423077344894
1767708910017392600,7.341392578125,-0.0032398421317338943,0.03792710602283478,-0.005034232512116432
1767708910027392500,7.351392578125,0.000264338799752295,0.030025508254766464,-0.015850581228733063
1767708910037394000,7.361393798828125,-0.0028992299921810627,0.013570633716881275,-0.020726295188069344
1767708910047393800,7.371393798828125,-0.001986311748623848,0.0028612639289349318,-0.018931962549686432
1767708910057393700,7.3813935546875,-0.0032036430202424526,0.001732350094243884,-0.011366987600922585
1767708910067393800,7.391393798828125,-0.0037237415090203285,-0.005982161499559879,-0.008734388276934624
1767708910077394700,7.401394775390625,-0.006517930421978235,-0.008373147808015347,-0.00931362621486187
1767708910087394800,7.411394775390625,-0.006453454494476318,-0.0014409380964934826,-0.01017255149781704
1767708910097394700,7.421394775390625,-0.004425989463925362,0.007021256256848574,-0.0012482991442084312
1767708910107394800,7.431394775390625,-0.003070976585149765,0.003614407032728195,0.0043659512884914875
1767708910117395700,7.441395751953125,-0.004192966502159834,-0.0015707677230238914,0.0030863024294376373
1767708910127395600,7.4513955078125,-0.00848652794957161,-0.007000686600804329,-0.004223114810883999
1767708910137395700,7.461395751953125,-0.013051185756921768,-0.008501910604536533,-0.013456827029585838
1767708910147395800,7.471395751953125,-0.012314866296947002,-0.01077532023191452,-0.02191396802663803
1767708910157396700,7.481396728515625,-0.014021952636539936,-0.014766066335141659,-0.0210614912211895
1767708910167396900,7.49139697265625,-0.014505328610539436,-0.021033816039562225,-0.017520658671855927
1767708910177396700,7.501396728515625,-0.012720744125545025,-0.014010527171194553,-0.009192420169711113
1767708910187396900,7.51139697265625,-0.01555139571428299,-0.003438443411141634,-0.0111466646194458
1767708910197397800,7.521397705078125,-0.011468769051134586,0.001789341913536191,-0.009423065930604935
1767708910207397600,7.531397705078125,-0.009537432342767715,0.010719453915953636,-0.013342335820198059
1767708910217397800,7.541397705078125,-0.011749720200896263,0.013186606578528881,-0.01719939149916172
1767708910227397600,7.551397705078125,-0.01027328334748745,0.009293329901993275,-0.009191290475428104
1767708910237398500,7.5613984375,-0.008900423534214497,0.006305263377726078,0.0021503136958926916
1767708910247398700,7.571398681640625,-0.00700322724878788,0.007602621801197529,0.008352542296051979
1767708910257398800,7.581398681640625,-0.007100433111190796,0.0042853886261582375,0.008683839812874794
1767708910267399000,7.59139892578125,-0.006376307457685471,-0.0018310938030481339,0.010436303913593292
1767708910277399800,7.60139990234375,-0.008790196850895882,-0.002080099191516638,0.010832049883902073
1767708910287399700,7.611399658203125,-0.011389114893972874,-0.0033814511261880398,0.002581076230853796
1767708910297399800,7.62139990234375,-0.010434371419250965,-0.011660419404506683,-0.006634792312979698
1767708910307400700,7.631400634765625,-0.012041392736136913,-0.007670474238693714,-0.010990835726261139
1767708910317400600,7.641400634765625,-0.013669649139046669,-0.004567359108477831,-0.01009920984506607
1767708910327400700,7.651400634765625,-0.01426461711525917,-0.004646189045161009,-0.009839043021202087
1767708910337400600,7.661400634765625,-0.016351470723748207,-0.0047002509236335754,-0.009084036573767662
1767708910347401700,7.671401611328125,-0.017554115504026413,-0.0027418944519013166,-0.008115970529615879
1767708910357402600,7.681402587890625,-0.018677968531847,-0.005473232362419367,-0.008526629768311977
1767708910367402500,7.691402587890625,-0.0206694845110178,-0.012698788195848465,-0.012351421639323235
1767708910377402600,7.701402587890625,-0.023116663098335266,-0.017168903723359108,-0.013756772503256798
1767708910387403500,7.711403564453125,-0.022084396332502365,-0.014858344569802284,-0.01041562668979168
1767708910397403400,7.7214033203125,-0.02120901457965374,-0.01622454635798931,-0.006207565311342478
1767708910407403500,7.731403564453125,-0.0205597672611475,-0.008997526951134205,-0.006628739647567272
1767708910417403400,7.7414033203125,-0.018658004701137543,-0.005294401664286852,-0.009990181773900986
1767708910427404300,7.751404296875,-0.014778588898479939,-0.004620356019586325,-0.008977485820651054
1767708910437404400,7.761404296875,-0.011554300785064697,-0.0025183227844536304,-0.0025672572664916515
1767708910447404300,7.771404296875,-0.0076926895417273045,-0.002947223838418722,0.0019112832378596067
1767708910457404400,7.781404296875,-0.00724740931764245,-0.004231666214764118,0.0023224754258990288
1767708910467405600,7.791405517578125,-0.010939272120594978,-0.003934056498110294,0.0005883625708520412
1767708910477405400,7.801405517578125,-0.013376064598560333,-0.0027351011522114277,0.002205700147897005
1767708910487405600,7.811405517578125,-0.014339137822389603,-0.004175073932856321,0.0045424457639455795
1767708910497405400,7.821405517578125,-0.014216365292668343,-0.005362844094634056,0.00166490045376122
1767708910507406600,7.831406494140625,-0.014499235898256302,-0.004307169001549482,-0.003061911091208458
1767708910517406500,7.841406494140625,-0.015136796981096268,-0.0090598464012146,-0.008256141096353531
1767708910527406300,7.85140625,-0.011119366623461246,-0.00920192338526249,-0.0069327037781476974
1767708910537406500,7.861406494140625,-0.011620040982961655,-0.010897558182477951,-0.005576621741056442
1767708910547407400,7.871407470703125,-0.010996595025062561,-0.012368954718112946,-0.0031126653775572777
1767708910557407500,7.881407470703125,-0.009288443252444267,-0.0062247756868600845,-0.00041488325223326683
1767708910567407400,7.891407470703125,-0.007755770348012447,-0.009718176908791065,-0.0020625973120331764
1767708910577407500,7.901407470703125,-0.011092444881796837,-0.011810090392827988,0.003508469322696328
1767708910587408600,7.91140869140625,-0.010681549087166786,-0.00405137101188302,0.0007455367594957352
1767708910597408500,7.921408447265625,-0.011501803062856197,0.0007889245171099901,-0.0065544540993869305
1767708910607408600,7.93140869140625,-0.013996153138577938,0.004253829829394817,-0.005000587552785873
1767708910617409500,7.941409423828125,-0.013432628475129604,0.00923633761703968,0.007925065234303474
1767708910627409400,7.951409423828125,-0.01293543353676796,0.014918724074959755,0.020332176238298416
1767708910637409500,7.961409423828125,-0.013104810379445553,0.015211671590805054,0.026715774089097977
1767708910647409400,7.971409423828125,-0.011251994408667088,0.015185574069619179,0.030903931707143784
1767708910657410300,7.981410400390625,-0.010017086751759052,0.010492284782230854,0.031214455142617226
1767708910667410400,7.991410400390625,-0.011859138496220112,0.009587211534380913,0.030112819746136665
1767708910677410300,8.001410400390625,-0.013346513733267784,0.009181346744298935,0.02230842597782612
1767708910687410700,8.01141064453125,-0.008497198112308979,0.010675378143787384,0.004265912808477879
1767708910697411600,8.02141162109375,-0.0012038651620969176,0.015261340886354446,-0.00853723380714655
1767708910707411500,8.031411376953125,0.0038579604588449,0.015448560938239098,-0.007097230292856693
1767708910717411600,8.04141162109375,-0.0006531683029606938,-0.003902500495314598,-0.005498267710208893
1767708910727411500,8.051411376953125,-0.00709991529583931,-0.01898997463285923,-0.002584857866168022
1767708910737412400,8.061412353515625,-0.005995235405862331,-0.02379591576755047,-0.012422841042280197
1767708910747412500,8.07141259765625,-0.0020505038555711508,-0.025166774168610573,-0.01785006746649742
1767708910757412400,8.081412353515624,-0.002513627288863063,-0.025416046380996704,-0.017492137849330902
1767708910767412500,8.09141259765625,-0.007928140461444855,-0.03121228702366352,-0.019315078854560852
1767708910777413400,8.101413330078126,-0.00874200277030468,-0.035447511821985245,-0.02676180750131607
1767708910787413500,8.11141357421875,-0.00433928519487381,-0.03227981552481651,-0.031156808137893677
1767708910797413600,8.12141357421875,-0.005810681730508804,-0.023491915315389633,-0.026711992919445038
1767708910807414500,8.13141455078125,-0.009209825657308102,-0.020826352760195732,-0.023789027705788612
1767708910817414400,8.141414306640625,-0.01097070798277855,-0.022818664088845253,-0.018638208508491516
1767708910827414500,8.15141455078125,-0.010625917464494705,-0.02049385942518711,-0.013269783928990364
1767708910837414400,8.161414306640625,-0.014206803403794765,-0.024411369115114212,-0.010456953197717667
1767708910847415600,8.17141552734375,-0.0128049086779356,-0.03711997717618942,-0.015610250644385815
1767708910857415400,8.18141552734375,-0.013985488563776016,-0.05197162553668022,-0.018819890916347504
1767708910867415600,8.19141552734375,-0.009298043325543404,-0.04609948769211769,-0.021743446588516235
1767708910877415400,8.20141552734375,-0.006398926023393869,-0.042622197419404984,-0.024164792150259018
1767708910887416300,8.211416259765626,-0.00384741579182446,-0.03426253795623779,-0.025473644956946373
1767708910897416700,8.221416748046876,-0.000023382832296192646,-0.02166392281651497,-0.026491770520806313
1767708910907416600,8.23141650390625,-0.0005232121329754591,-0.009606990963220596,-0.024129396304488182
1767708910917416400,8.24141650390625,0.004421745426952839,-0.0021176498848944902,-0.01623339019715786
1767708910927417600,8.25141748046875,0.0037996130995452404,0.005329879932105541,-0.008694536983966827
1767708910937417500,8.26141748046875,0.0004128711298108101,0.001812643138691783,-0.011043445207178593
1767708910947417600,8.27141748046875,0.0031133624725043774,-0.00646805576980114,-0.013719197362661362
1767708910957417500,8.28141748046875,0.003257439471781254,-0.0047338055446743965,-0.0164159145206213
1767708910967418400,8.29141845703125,0.0003711117897182703,-0.005907726474106312,-0.014476679265499115
1767708910977418500,8.30141845703125,-0.0006302366964519024,-0.008099507540464401,-0.005099423695355654
1767708910987418400,8.31141845703125,0.001272797118872404,-0.0036762654781341553,0.0027702264487743378
1767708910997418500,8.32141845703125,0.0011249918024986982,0.0012633653823286295,0.004536168649792671
1767708911007419600,8.331419677734376,-0.0012369542382657528,0.000036447541788220406,0.013427767902612686
1767708911017419500,8.34141943359375,-0.0002931299386546016,-0.0046645645052194595,0.016413971781730652
1767708911027419600,8.351419677734375,0.00044513161992654204,-0.0034050210379064083,0.016211658716201782
1767708911037420500,8.361420654296875,0.000016628997400403023,0.005726424977183342,0.012117581441998482
1767708911047420400,8.37142041015625,-0.001009792322292924,0.00895643886178732,0.014986330643296242
1767708911057420500,8.381420654296875,-0.0007719721179455519,0.0027624585200101137,0.01642417162656784
1767708911067420400,8.39142041015625,0.001747433445416391,0.002022102242335677,0.01683410443365574
1767708911077421300,8.40142138671875,0.002348508918657899,0.0019344838801771402,0.02491386979818344
1767708911087421400,8.41142138671875,-0.000379116740077734,0.011837313883006573,0.027252858504652977
1767708911097421300,8.42142138671875,-0.0014028358273208141,0.017852064222097397,0.027353791519999504
1767708911107421400,8.43142138671875,-0.0032824589870870113,0.013463574461638927,0.024655833840370178
1767708911117422600,8.441422607421876,-0.0035288012586534023,0.002367248060181737,0.01846824400126934
1767708911127422500,8.45142236328125,-0.005178444087505341,-0.00010523293167352676,0.015246337279677391
1767708911137422600,8.461422607421875,-0.004170703701674938,-0.009189807809889317,0.014224216341972351
1767708911147422500,8.47142236328125,-0.003384287003427744,-0.01081154029816389,0.015481695532798767
1767708911157423600,8.481423583984375,-0.007270371541380882,-0.0069345105439424515,0.01922956295311451
1767708911167423500,8.491423583984375,-0.006059926934540272,-0.004452043678611517,0.01500552985817194
1767708911177423400,8.50142333984375,-0.006343820132315159,-0.003062406089156866,0.009119411930441856
1767708911187424500,8.511424560546875,-0.00738724647089839,-0.0003592977300286293,0.0020601702854037285
1767708911197424400,8.52142431640625,-0.006672453600913286,-0.0012908715289086103,0.00577208399772644
1767708911207424500,8.531424560546874,-0.005779239349067211,-0.006401345133781433,0.0016086192335933447
1767708911217424400,8.54142431640625,-0.004570430144667625,-0.0023344315122812986,-0.005090029910206795
1767708911227425500,8.551425537109376,-0.0003871277440339327,-0.00012174365110695362,-0.0005529234185814857
1767708911237425700,8.56142578125,0.0024163820780813694,0.003933451138436794,0.004673263989388943
1767708911247425500,8.571425537109375,0.005719773005694151,0.011055010370910168,0.003378354012966156
1767708911257425700,8.58142578125,0.007030847482383251,0.01245316956192255,0.003675829153507948
1767708911267426600,8.591426513671875,0.005127743352204561,0.014867991209030151,0.01345694251358509
1767708911277426400,8.601426513671875,0.007357608526945114,0.009638874791562557,0.014671610668301582
1767708911287426600,8.611426513671875,0.0075277723371982574,0.0023990708868950605,0.010077020153403282
1767708911297426400,8.621426513671874,0.006994341034442186,-0.0010635710787028074,-0.0007900088094174862
1767708911307427300,8.63142724609375,0.007263566367328167,0.0025784338358789682,-0.0034267879091203213
1767708911317427500,8.641427490234374,0.008386089466512203,0.00026734243147075176,0.0038550933822989464
1767708911327427300,8.65142724609375,0.010695608332753181,0.0005005032289773226,0.013102023862302303
1767708911337427500,8.661427490234376,0.013702050782740116,0.0005790668074041605,0.017338048666715622
1767708911347428600,8.6714287109375,0.00977307464927435,-0.004494388587772846,0.01559973880648613
1767708911357428700,8.6814287109375,0.008420188911259174,-0.006633439566940069,0.010830549523234367
1767708911367428900,8.691428955078125,0.005334673915058374,-0.006900021340698004,0.00760540459305048
1767708911377429800,8.7014296875,0.0019937383476644754,-0.002190487226471305,0.0073918187990784645
1767708911387429600,8.7114296875,0.0019356845878064632,0.0030528774950653315,0.008235733956098557
1767708911397429800,8.7214296875,-0.0006880618166178465,0.004798046313226223,0.012656314298510551
1767708911407430000,8.731429931640625,0.0011654803529381752,0.011316133663058281,0.01716768741607666
1767708911417430800,8.7414306640625,0.0004650690243579447,0.012554770335555077,0.01776476576924324
1767708911427431000,8.751430908203124,0.004620668478310108,0.009029143489897251,0.01982388272881508
1767708911437430800,8.7614306640625,0.002817708533257246,0.00818678643554449,0.021735500544309616
1767708911447431000,8.771430908203126,0.0009050204535014927,0.006900478154420853,0.018842322751879692
1767708911457431800,8.781431884765626,-0.0006729024462401867,0.0045587606728076935,0.012557528913021088
1767708911467431700,8.791431640625,-0.002125902334228158,0.0033468904439359903,0.008545992895960808
1767708911477431800,8.801431884765625,-0.0021549309603869915,0.0038108129519969225,0.008459972217679024
1767708911487431700,8.811431640625,-0.0003945406060665846,0.004940127953886986,0.003851379733532667
1767708911497432800,8.821432861328125,0.0018880547722801566,-0.004576145671308041,-0.003240617923438549
1767708911507432700,8.8314326171875,0.005328579805791378,-0.010043615475296974,-0.004416508600115776
1767708911517432800,8.841432861328125,0.008943288587033749,-0.012912106700241566,-0.00840832106769085
1767708911527434000,8.85143408203125,0.0072234091348946095,-0.013424365781247616,-0.01287085935473442
1767708911537433900,8.861433837890624,0.005734435748308897,-0.005865515675395727,-0.014055965468287468
1767708911547433700,8.871433837890624,0.007949402555823326,-0.001466372748836875,-0.012483570724725723
1767708911557433900,8.881433837890626,0.00755205936729908,-0.0007843370549380779,-0.005405420903116465
1767708911567434800,8.891434814453126,0.004110164940357208,0.004034118726849556,-0.0022151637822389603
1767708911577435000,8.901434814453125,0.003757029538974166,0.008554302155971527,-0.005909767467528582
1767708911587434800,8.911434814453125,0.0019436739385128021,0.007622861303389072,-0.00967215932905674
1767708911597435000,8.921434814453125,-0.0010558443609625101,0.009420761838555336,-0.012149432674050331
1767708911607435800,8.931435791015625,-0.0011132906656712294,0.009831955656409264,-0.012885966338217258
1767708911617436000,8.941435791015625,0.0009927371283993125,0.006722982041537762,-0.011682217009365559
1767708911627436000,8.95143603515625,0.0001231019850820303,-0.001309381565079093,-0.012005934491753578
1767708911637436000,8.961435791015624,0.002214216161519289,-0.008040787652134895,-0.008147813379764557
1767708911647436800,8.971436767578124,0.004842549562454224,-0.01068450603634119,-0.0013386532664299011
1767708911657437000,8.98143701171875,0.004793813917785883,-0.006608271971344948,0.0007889461703598499
1767708911667436800,8.991436767578126,0.005151425022631884,-0.004642726853489876,-0.0043401471339166164
1767708911677437700,9.001437744140626,0.00430214311927557,0.0012516474816948175,-0.002900975290685892
1767708911687437800,9.011437744140625,0.004283769987523556,0.0025961443316191435,-0.0037300577387213707
1767708911697437700,9.021437744140625,0.003115174826234579,0.0028257088270038366,-0.007258213125169277
1767708911707437800,9.031437744140625,0.0036949687637388706,-0.0009069768711924553,-0.004157285671681166
1767708911717438700,9.041438720703125,0.0044726114720106125,-0.010553212836384773,-0.004835859406739473
1767708911727438800,9.05143896484375,0.0029572551138699055,-0.01014548260718584,-0.010471398010849953
1767708911737439000,9.06143896484375,0.005318680312484503,-0.008428010158240795,-0.018711749464273453
1767708911747438800,9.07143896484375,0.00704170623794198,-0.012889871373772621,-0.020219065248966217
1767708911757439700,9.081439697265624,0.007102426141500473,-0.020129675045609474,-0.022479292005300522
1767708911767440000,9.09143994140625,0.007041242904961109,-0.02161278761923313,-0.01946742832660675
1767708911777439700,9.101439697265626,0.0059093995951116085,-0.02058853581547737,-0.012061444111168385
1767708911787439900,9.11143994140625,0.007320348173379898,-0.02219655178487301,-0.0040677799843251705
1767708911797440800,9.121440673828126,0.005581303965300322,-0.019406890496611595,0.0011368361301720142
1767708911807440600,9.131440673828125,0.0061461301520466805,-0.01812644489109516,-0.0008047372102737427
1767708911817440800,9.141440673828125,0.00503159686923027,-0.015238512307405472,-0.005836513824760914
1767708911827442000,9.15144189453125,0.003755723126232624,-0.010091818869113922,-0.004614196252077818
1767708911837442000,9.161442138671875,0.003663311479613185,-0.0016045907977968454,-0.004993429873138666
1767708911847442000,9.17144189453125,0.0026685954071581364,0.0011741502676159143,0.001620853552594781
1767708911857441800,9.18144189453125,0.000877087062690407,0.0006111578550189734,0.0020560140255838633
1767708911867443000,9.19144287109375,0.0023378499317914248,0.0031829734798520803,0.001654166728258133
1767708911877442800,9.20144287109375,0.001796961878426373,0.004521744325757027,0.0011026260908693075
1767708911887443000,9.21144287109375,0.0026512551121413708,0.006005655974149704,0.00039274152368307114
1767708911897442800,9.22144287109375,0.0027655046433210373,0.007822464220225811,0.0051195863634347916
1767708911907443700,9.231443603515626,0.001284515019506216,0.009543665684759617,0.0066019827499985695
1767708911917443800,9.24144384765625,0.002111426554620266,0.007260537706315517,0.003156917402520776
1767708911927443700,9.251443603515625,0.003272588364779949,0.00824164692312479,0.0009261963423341513
1767708911937443800,9.26144384765625,0.003325052559375763,0.011683516204357147,0.0013821294996887445
1767708911947445000,9.271445068359375,0.001805198728106916,0.019014135003089905,0.002805694006383419
1767708911957444900,9.28144482421875,0.006440696772187948,0.02210766263306141,0.005405471660196781
1767708911967445000,9.291445068359375,0.003987348638474941,0.017580419778823853,0.006656432058662176
1767708911977446000,9.30144580078125,0.0026701493188738823,0.006499272771179676,0.0073901331052184105
1767708911987445800,9.31144580078125,-0.0027014550287276506,-0.002056531375274062,0.007212887518107891
1767708911997446000,9.32144580078125,-0.004312667064368725,0.0030724506359547377,0.0020085382275283337
1767708912007445800,9.33144580078125,-0.01124750729650259,0.0027404881548136473,0.00009754160419106483
1767708912017446700,9.34144677734375,-0.008764642290771008,0.01061465684324503,0.001530322479084134
1767708912027446800,9.35144677734375,-0.009822449646890163,0.007257475517690182,0.003064569551497698
1767708912037446700,9.36144677734375,-0.0047565847635269165,0.001785745145753026,0.0068537150509655476
1767708912047446800,9.37144677734375,-0.00426358450204134,-0.0004249436315149069,0.012158351950347424
1767708912057448000,9.381447998046875,-0.0010864329524338245,-0.001719239866361022,0.010578032582998276
1767708912067447800,9.39144775390625,-0.0007967277197167277,-0.0027263157535344362,0.005152447614818811
1767708912077448000,9.401447998046875,-0.0011754293227568269,0.00007825926877558231,0.001965442905202508
1767708912087447800,9.41144775390625,-0.0027496295515447855,0.0014370039571076632,-0.00040202680975198746
1767708912097448700,9.42144873046875,-0.0035837318282574415,0.004859698936343193,-0.0027328254655003548
1767708912107448800,9.43144873046875,-0.0013557194033637643,0.011206544004380703,-0.0005145738832652569
1767708912117448700,9.44144873046875,-0.0018151147523894906,0.010931972414255142,0.0016074329614639282
1767708912127449900,9.451449951171876,-0.0005419057561084628,0.005146387033164501,-0.0025674495846033096
1767708912137449700,9.46144970703125,-0.00359814940020442,-0.005839952267706394,0.007246298715472221
1767708912147449900,9.471449951171875,-0.0029752226546406746,0.0015704270917922258,0.0048726871609687805
1767708912157449700,9.48144970703125,-0.0017584239831194282,0.008281593210995197,0.0029213891830295324
1767708912167451000,9.491450927734375,-0.0006978937890380621,0.017512377351522446,0.0023956717923283577
1767708912177451000,9.501450927734375,0.0009543313062749803,0.02392473630607128,0.002441211836412549
1767708912187451000,9.511450927734375,0.0028651156462728977,0.019103748723864555,0.007041734177619219
1767708912197450800,9.52145068359375,0.0014033064944669604,0.016504770144820213,0.005963952746242285
1767708912207452000,9.531451904296874,0.0014326043892651796,0.014043076895177364,0.003188366536051035
1767708912217451800,9.54145166015625,0.001490395050495863,0.009013431146740913,0.005581482779234648
1767708912227452000,9.551451904296876,0.00505024241283536,-0.0012602454517036676,0.011983988806605339
1767708912237452800,9.561452880859376,0.00008930591866374016,0.01052770484238863,0.01445593498647213
1767708912247452700,9.57145263671875,0.0012733654584735632,0.01450273860245943,0.007059028372168541
1767708912257452800,9.581452880859375,0.004947994835674763,0.015447362326085567,0.009902752004563808
1767708912267452700,9.59145263671875,0.00653037428855896,0.014688227325677872,0.01209581084549427
1767708912277453800,9.601453857421875,0.00932296458631754,0.013829357922077179,0.01997317560017109
1767708912287454000,9.611453857421875,0.0116849634796381,0.006626172922551632,0.017821267247200012
1767708912297453800,9.621453857421875,0.010456714779138565,0.0036716617178171873,0.012971118092536926
1767708912307454000,9.631453857421874,0.009946141391992569,0.011625724844634533,0.012336067855358124
1767708912317454800,9.641454833984374,0.008710435591638088,0.018962198868393898,0.008196717128157616
1767708912327454700,9.651454833984374,0.007080899551510811,0.01996634714305401,0.006307234056293964
1767708912337454800,9.661454833984376,0.004747437778860331,0.01818043179810047,0.004052868578583002
1767708912347454700,9.671454833984376,0.0037558982148766518,0.014303132891654968,0.003762432374060154
1767708912357454600,9.68145458984375,0.00508161960169673,0.010755003429949284,0.0051675159484148026
1767708912367454500,9.691454345703125,0.005887242034077644,0.011365932412445545,0.008012328296899796
1767708912377454600,9.70145458984375,0.0066707441583275795,0.01575269177556038,0.0045036138035357
1767708912387455500,9.71145556640625,0.005920268129557371,0.016138983890414238,0.003318466478958726
1767708912397455400,9.721455322265625,0.005880853161215782,0.012817754410207272,0.002709135413169861
1767708912407455700,9.731455810546874,0.002789714140817523,0.012366482987999916,0.0019457284361124039
1767708912417455600,9.74145556640625,0.0044616470113396645,0.01522139087319374,-0.002580846194177866
1767708912427456500,9.75145654296875,0.0010901308851316571,0.012532398104667664,-0.002534355502575636
1767708912437456600,9.76145654296875,-0.00013332534581422806,0.013435743749141693,-0.00015082629397511482
1767708912447456500,9.77145654296875,0.00090823695063591,0.0156397745013237,0.005438349675387144
1767708912457456600,9.78145654296875,0.002738094888627529,0.01431325450539589,0.01114070974290371
1767708912467457500,9.79145751953125,0.0031817397102713585,0.014851878397166729,0.014541027136147022
1767708912477457400,9.80145751953125,0.001968936063349247,0.012737327255308628,0.011029649525880814
1767708912487457500,9.81145751953125,0.002467251382768154,0.012122005224227905,0.005692947655916214
1767708912497457400,9.82145751953125,0.003696300322189927,0.0025127881672233343,-0.004204956348985434
1767708912507458600,9.83145849609375,0.002528228797018528,-0.005399863235652447,-0.005220032297074795
1767708912517458700,9.841458740234375,0.0030542032327502966,-0.007216671481728554,-0.007637383416295052
1767708912527458600,9.85145849609375,0.002365170046687126,-0.004437265917658806,-0.010287201032042503
1767708912537459700,9.861459716796874,0.0011244032066315413,-0.0004473179578781128,-0.00819049496203661
1767708912547459600,9.87145947265625,0.002202189527451992,0.0026187801267951727,-0.007710140664130449
1767708912557459700,9.881459716796876,0.0026701069436967373,0.005394859239459038,-0.01028994470834732
1767708912567459600,9.89145947265625,0.002890401054173708,0.01891745999455452,-0.009567933157086372
1767708912577460500,9.90146044921875,0.0032736300490796566,0.02408772148191929,-0.005456543993204832
1767708912587460600,9.911460693359375,0.0037401774898171425,0.02091216668486595,0.005914121866226196
1767708912597460500,9.92146044921875,0.005248592235147953,0.013245991431176662,0.00864466093480587
1767708912607460600,9.931460693359375,0.0015931320376694202,0.011178046464920044,0.008175225928425789
1767708912617461800,9.941461669921875,-0.0022764410823583603,0.011943971738219261,0.0008552619256079197
1767708912627461600,9.951461669921875,-0.007788318675011396,0.01347635593265295,-0.0034917215816676617
1767708912637461800,9.961461669921874,-0.006010125856846571,0.01262733992189169,-0.0003265547566115856
1767708912647462700,9.971462646484374,-0.009296227246522903,0.012816290371119976,0.002474655397236347
1767708912657462500,9.981462646484376,-0.008267980068922043,0.010252200067043304,-0.001395183615386486
1767708912667462700,9.991462646484376,-0.005746785085648298,0.004693781957030296,-0.006105232983827591
1767708912677462500,10.001462646484375,-0.0048817903734743595,0.007872797548770905,0.000006454996764659882
1767708912687463400,10.01146337890625,-0.005061516538262367,0.014450142160058022,0.00014547863975167274
1767708912697463600,10.021463623046875,-0.003521943697705865,0.02087555080652237,0.003281617071479559
1767708912707463400,10.03146337890625,-0.0072804712690413,0.024676013737916946,0.006875674240291119
1767708912717463600,10.041463623046875,-0.009142819792032242,0.025398794561624527,0.010955104604363441
1767708912727464700,10.051464599609375,-0.007073525805026293,0.02771654725074768,0.01689237914979458
1767708912737464600,10.061464599609375,-0.003327257465571165,0.02825823426246643,0.019357135519385338
1767708912747464700,10.071464599609374,-0.000478210742585361,0.02231685258448124,0.017413601279258728
1767708912757465600,10.081465576171874,0.0017567139584571123,0.011929193511605263,0.014157885685563087
1767708912767465500,10.091465576171874,0.003968451637774706,0.01133983489125967,0.004297775216400623
1767708912777465600,10.101465576171876,0.004547422751784325,0.014057590626180172,-0.0006117625162005424
1767708912787465500,10.111465576171875,0.0034427079372107983,0.008675741031765938,-0.008830550126731396
1767708912797466600,10.121466552734375,0.002854948164895177,0.008275467902421951,-0.013497739098966122
1767708912807466500,10.131466552734375,0.00023336545564234257,0.004716952331364155,-0.015343263745307922
1767708912817466600,10.141466552734375,-0.0008569327183067799,0.01010745670646429,-0.018888462334871292
1767708912827466500,10.151466552734375,0.0007199221290647984,0.017364703118801117,-0.017020748928189278
1767708912837467600,10.161467529296875,-0.003027678234502673,0.014753474853932858,-0.013227874413132668
1767708912847467800,10.1714677734375,-0.00023886887356638908,0.022703008726239204,-0.018001047894358635
1767708912857467600,10.181467529296874,0.00034063495695590973,0.01972000114619732,-0.00813163910061121
1767708912867468500,10.191468505859374,0.004684558603912592,0.013421094045042992,0.0022218171507120132
1767708912877468700,10.20146875,-0.002489997074007988,0.02485058270394802,0.0054090884514153
1767708912887468500,10.211468505859376,0.004747129511088133,0.035194702446460724,0.014300253242254257
1767708912897468700,10.22146875,-0.0005797254852950573,0.028937334194779396,0.011720716021955013
1767708912907469600,10.231469482421875,0.0020310410764068365,0.017039133235812187,0.010628914460539818
1767708912917469400,10.241469482421875,0.0005679003661498427,0.01308833435177803,0.00922409724444151
1767708912927469600,10.251469482421875,0.00045623123878613114,0.0034358378034085035,0.008214067667722702
1767708912937469400,10.261469482421875,0.0002450426109135151,0.005493662320077419,0.0034366233740001917
1767708912947470600,10.271470703125,-0.004407178610563278,-0.0018313603941351175,0.002222477924078703
1767708912957470700,10.281470703125,-0.009277833625674248,-0.010791033506393433,0.007008710876107216
1767708912967470600,10.291470703125,-0.00754065066576004,-0.006687767803668976,0.0059932079166173935
1767708912977471500,10.301471435546874,-0.010236568748950958,-0.003597435774281621,0.008640123531222343
1767708912987471600,10.3114716796875,-0.009611822664737701,-0.008181935176253319,0.011298935860395432
1767708912997471500,10.321471435546876,-0.004560338798910379,-0.006017051637172699,0.017498774453997612
1767708913007471600,10.3314716796875,-0.003257500473409891,-0.008778084069490433,0.014696313068270683
1767708913017472500,10.341472412109376,-0.005600282922387123,-0.003923940006643534,0.016225766390562057
1767708913027472400,10.351472412109375,-0.0025131613947451115,-0.004048975184559822,0.015634747222065926
1767708913037472500,10.361472412109375,-0.00009394553489983082,-0.006674053147435188,0.02113870158791542
1767708913047472400,10.371472412109375,-0.0019333589589223266,0.0004423137288540602,0.01883435621857643
1767708913057473500,10.3814736328125,-0.0011005884734913707,0.005551587790250778,0.015223110094666481
1767708913067473700,10.3914736328125,-0.00253314059227705,0.01184343732893467,0.008186765015125275
1767708913077473500,10.4014736328125,-0.005112411919981241,0.019416136667132378,0.00016026431694626808
1767708913087473700,10.4114736328125,-0.0021044083405286074,0.02340395376086235,-0.008595108985900879
1767708913097474600,10.421474609375,-0.0035321288742125034,0.0173892043530941,-0.008649172261357307
1767708913107474700,10.431474609375,-0.0042513832449913025,0.010354199446737766,0.002171877771615982
1767708913117474600,10.441474609375,-0.0028023573104292154,0.00510990247130394,0.006407635286450386
1767708913127475500,10.451475341796876,0.0004152397159487009,0.006064910441637039,0.0026860872749239206
1767708913137475600,10.4614755859375,0.0025851833634078503,0.006644681096076965,0.00017952034249901772
1767708913147475500,10.471475341796875,0.007002296857535839,0.013709781691432,0.0005638953298330307
1767708913157475600,10.4814755859375,0.0016269725747406483,0.025736350566148758,0.0009212915319949389
1767708913167476700,10.491476806640625,0.0019231056794524193,0.040403444319963455,-0.006970824673771858
1767708913177476600,10.5014765625,0.001323894364759326,0.04308897629380226,-0.008561531081795692
1767708913187476700,10.511476806640625,0.0017167320474982262,0.04249109700322151,-0.004027023445814848
1767708913197476600,10.5214765625,0.0011976819951087236,0.04210679978132248,-0.007629747968167067
1767708913207477500,10.5314775390625,0.0043516745790839195,0.03638393431901932,-0.008323663845658302
1767708913217477600,10.5414775390625,0.0018011655192822218,0.017944473773241043,-0.007914336398243904
1767708913227477500,10.5514775390625,-0.001128323026932776,0.004419343546032906,-0.004269104916602373
1767708913237478400,10.561478515625,0.000980900600552559,-0.00023000291548669338,0.0021616299636662006
1767708913247478500,10.571478515625,-0.0018401831621304154,-0.00040430668741464615,0.0016731657087802887
1767708913257478400,10.581478515625,-0.0018873211229220033,0.0012902624439448118,-0.00250080693513155
1767708913267478500,10.591478515625,-0.0017544483998790383,-0.0002731464337557554,-0.001030458603054285
1767708913277479700,10.601479736328125,0.0001585001591593027,-0.0043424563482403755,-0.006065431050956249
1767708913287479600,10.6114794921875,0.007059041410684586,0.00613109115511179,-0.020217832177877426
1767708913297479700,10.621479736328125,0.012133961543440819,0.021854128688573837,-0.025192884728312492
1767708913307479600,10.6314794921875,0.01084681786596775,0.0353986956179142,-0.03888416290283203
1767708913317480400,10.64148046875,0.013431948609650135,0.04383159801363945,-0.031323179602622986
1767708913327480600,10.65148046875,0.017844069749116898,0.05406079813838005,-0.028411637991666794
1767708913337480400,10.66148046875,0.01744246482849121,0.0463714562356472,-0.03541069105267525
1767708913347481600,10.671481689453126,0.017949741333723068,0.04029705002903938,-0.033027950674295425
1767708913357482000,10.68148193359375,0.015893246978521347,0.03258080780506134,-0.026240618899464607
1767708913367481900,10.69148193359375,0.016954531893134117,0.022904744371771812,-0.025136716663837433
1767708913377482200,10.701482177734375,0.01451134867966175,0.023652827367186546,-0.02763449400663376
1767708913387483100,10.711483154296875,0.011913667432963848,0.010489219799637794,-0.023651210591197014
1767708913397483000,10.72148291015625,0.00993520487099886,-0.007464214693754911,-0.015589555725455284
1767708913407483100,10.731483154296875,0.0059966640546917915,-0.01131607685238123,-0.007666772231459618
1767708913417483000,10.74148291015625,0.004957498051226139,-0.014976859092712402,-0.009089166298508644
1767708913427484200,10.751484130859374,0.0018054437823593616,-0.019774407148361206,-0.0017174025997519493
1767708913437484000,10.761484130859374,-0.0033400498796254396,-0.027493048459291458,0.0027769480366259813
1767708913447484000,10.77148388671875,-0.006168338004499674,-0.03194212540984154,0.011217999272048473
1767708913457485000,10.781485107421876,-0.012838492169976234,-0.03275332599878311,0.0129780825227499
1767708913467485000,10.79148486328125,-0.009963122196495533,-0.024187667295336723,-0.0027655716985464096
1767708913477485000,10.801485107421875,-0.00856363121420145,-0.011404493823647499,-0.014236873015761375
1767708913487485200,10.811485107421875,-0.008334820158779621,-0.0117034325376153,-0.020470421761274338
1767708913497486000,10.821486083984375,-0.008856799453496933,-0.014478180557489395,-0.009698468260467052
1767708913507486200,10.831486328125,-0.007179837208241224,-0.013661256060004234,0.0016795333940535784
1767708913517486000,10.841486083984375,-0.008200626820325851,-0.018584109842777252,0.0015809964388608932
1767708913527486200,10.851486328125,-0.006834389176219702,-0.01571362093091011,0.006925168447196484
1767708913537487000,10.861487060546875,-0.007592058274894953,-0.014941303059458733,0.013345783576369286
1767708913547487000,10.871487060546874,-0.009803342632949352,-0.01523598376661539,0.012648966163396835
1767708913557487000,10.881487060546876,-0.011611362919211388,-0.01430068165063858,0.010346397757530212
1767708913567488000,10.891488037109376,-0.013167377561330795,-0.018497822806239128,0.010961068794131279
1767708913577488000,10.90148779296875,-0.014272588305175304,-0.014936642721295357,0.005533279851078987
1767708913587488300,10.91148828125,-0.013055820018053055,-0.010190891101956367,-0.004271276295185089
1767708913597488000,10.921488037109375,-0.009825405664741993,-0.008921096101403236,-0.008360027335584164
1767708913607489000,10.931489013671875,-0.009692790918052197,-0.010083032771945,0.0031899979803711176
1767708913617489200,10.9414892578125,-0.009782273322343826,-0.014712139964103699,0.0076233623549342155
1767708913627489000,10.951489013671875,-0.0074991448782384396,-0.015133984386920929,0.01023512426763773
1767708913637490000,10.961489990234375,-0.005545716267079115,-0.0069500901736319065,0.005266464315354824
1767708913647490000,10.971489990234375,-0.005919896066188812,-0.004064023029059172,-0.00041371118277311325
1767708913657490000,10.981489990234374,-0.006571305450052023,-0.004498118534684181,-0.002306952141225338
1767708913667490000,10.991489990234374,-0.006146525498479605,-0.002324711997061968,0.004941026214510202
1767708913677491000,11.001490966796876,-0.007063185330480337,-0.003338311333209276,0.012148339301347733
1767708913687491000,11.011490966796876,-0.0023728013038635254,0.00447447132319212,0.012392985634505749
1767708913697491200,11.0214912109375,-0.006202959455549717,0.004734129644930363,0.006008589640259743
1767708913707491000,11.031490966796875,-0.005884969606995583,0.003650623606517911,0.008069755509495735
1767708913717492200,11.0414921875,-0.0060447584837675095,-0.00007647043094038963,0.008406378328800201
1767708913727492000,11.0514921875,-0.007072512526065111,-0.000643991632387042,0.007858599536120892
1767708913737492000,11.061491943359375,-0.004125724546611309,0.0002758640330284834,0.010235738009214401
1767708913747492000,11.0714921875,-0.0021624229848384857,-0.005718511063605547,0.011143592186272144
1767708913757493000,11.081492919921875,-0.002056695520877838,-0.008953719399869442,0.013486374169588089
1767708913767493000,11.0914931640625,0.0024213651195168495,-0.007682726718485355,0.013390123844146729
1767708913777493000,11.101492919921874,0.004536980297416449,-0.009236148558557034,0.00602994579821825
1767708913787494100,11.111494140625,0.006042757071554661,0.00018398533575236797,0.0025879377499222755
1767708913797494300,11.121494384765626,0.010390367358922958,0.01149070169776678,-0.0010816319845616817
1767708913807494100,11.131494140625,0.0099839698523283,0.012904041446745396,-0.003129336517304182
1767708913817494300,11.141494384765625,0.005682964343577623,0.003087629796937108,-0.010197099298238754
1767708913827495200,11.1514951171875,-0.00014480052050203085,-0.0021275044418871403,-0.00880524329841137
1767708913837495000,11.1614951171875,-0.003810109104961157,-0.007675934117287397,-0.005263771861791611
1767708913847495200,11.1714951171875,-0.008140475489199162,-0.011738455854356289,-0.004309614188969135
1767708913857496000,11.18149609375,-0.008488817140460014,-0.012353379279375076,-0.001523149199783802
1767708913867496000,11.191495849609375,-0.005351846572011709,-0.01469203270971775,0.002266002120450139
1767708913877496000,11.20149609375,-0.001197581528685987,-0.014599354937672615,0.009890366345643997
1767708913887496000,11.211495849609374,0.0020040604285895824,-0.014721861109137535,0.012270062230527401
1767708913897497000,11.2214970703125,0.004724479280412197,-0.01080941129475832,0.009153098799288273
1767708913907497200,11.231497314453126,0.008483311161398888,-0.009094733744859695,0.00808874424546957
1767708913917497000,11.2414970703125,0.009728871285915375,-0.0035439070779830217,0.0016617376822978258
1767708913927497200,11.251497314453125,0.006364195607602596,-0.0018794320058077574,-0.000768628902733326
1767708913937498000,11.261498046875,0.0036674784496426582,0.0047742100432515144,-0.003941785544157028
1767708913947498000,11.271498046875,0.0016365391202270985,0.0073000844568014145,-0.009446869604289532
1767708913957498000,11.281498046875,0.001108700642362237,-0.0014305566437542439,-0.007217004895210266
1767708913967499000,11.2914990234375,0.005649118684232235,-0.0008917991071939468,-0.006680828984826803
1767708913977499100,11.3014990234375,0.00557721359655261,-0.004380806349217892,-0.009125610813498497
1767708913987499000,11.3114990234375,0.006026531103998423,-0.010354808531701565,-0.00728042284026742
1767708913997499000,11.321498779296874,0.004924248903989792,-0.008752650581300259,-0.00044968072324991226
1767708914007500300,11.331500244140624,0.005920523777604103,-0.010177042335271835,-0.0019014333374798298
1767708914017500200,11.341500244140626,0.0041894689202308655,-0.01104709692299366,-0.004378972575068474
1767708914027500000,11.3515,0.00600918335840106,-0.008051973767578602,-0.005278224125504494
1767708914037501200,11.361501220703126,0.004964425228536129,-0.0028151338919997215,-0.008022078312933445
1767708914047501000,11.3715009765625,0.0020828924607485533,-0.0012812858913093805,-0.010939426720142365
1767708914057501200,11.381501220703125,-0.0008641615277156234,0.0004329907242208719,-0.008158020675182343
1767708914067501000,11.3915009765625,-0.001304922392591834,0.005898995324969292,-0.002770857885479927
1767708914077502000,11.401501953125,-0.0037174797616899014,0.0055959271267056465,-0.0026454227045178413
1767708914087502000,11.411502197265625,-0.002784814452752471,0.008283856324851513,-0.004008567426353693
1767708914097502000,11.421501953125,-0.00014269247185438871,0.007447890006005764,-0.006731383036822081
1767708914107502000,11.431502197265624,0.0031045079231262207,0.005081271752715111,-0.0046885935589671135
1767708914117503200,11.441503173828124,0.004701073281466961,0.0019826844800263643,-0.0023375549353659153
1767708914127503000,11.451503173828126,0.006499207112938166,-0.003631792264059186,0.0032198824919760227
1767708914137503200,11.461503173828126,0.00487068435177207,-0.0054813576862216,0.0009471410885453224
1767708914147504000,11.471504150390626,0.0040797577239573,-0.002412862842902541,-0.001944472547620535
1767708914157504000,11.48150390625,0.0005529334302991629,-0.00009644543752074242,-0.0024510053917765617
1767708914167504100,11.491504150390625,0.0004322576569393277,-0.001258250093087554,-0.001401726622134447
1767708914177504000,11.50150390625,0.0010778079740703106,0.005289929918944836,-0.0009926650673151016
1767708914187505000,11.5115048828125,0.0010919685009866953,0.008341248147189617,-0.0003358181565999985
1767708914197505000,11.521505126953125,0.0007643997087143362,0.006737226620316505,0.0009382378775626421
1767708914207505000,11.5315048828125,-0.0024793739430606365,0.004661290906369686,-0.0010611489415168762
1767708914217505000,11.541505126953124,0.0005174812977202237,-0.00011109351180493832,-0.004887045826762915
1767708914227506200,11.551506103515624,-0.00025828962679952383,-0.002882777713239193,-0.007840080186724663
1767708914237506000,11.561506103515624,0.004448847379535437,-0.004556308500468731,-0.01005423255264759
1767708914247506200,11.571506103515626,0.0031196773052215576,0.0017536527011543512,-0.007685553282499313
1767708914257507000,11.581507080078126,0.005761533044278622,0.0005629535298794508,-0.003972041420638561
1767708914267507200,11.591507080078125,0.0037612328305840492,0.004365148022770882,-0.002676946111023426
1767708914277507000,11.601507080078125,0.002976665273308754,0.006486888974905014,-0.0013935687020421028
1767708914287507000,11.6115068359375,0.0005238484009169042,0.011052876710891724,-0.002573153004050255
1767708914297508000,11.621508056640625,0.00020000804215669632,0.008303695358335972,-0.002786471974104643
1767708914307508000,11.631508056640625,-0.0016878389287739992,0.0047510406002402306,-0.005410205107182264
1767708914317508000,11.641508056640625,-0.004293476231396198,0.004442380741238594,-0.0033055092208087444
1767708914327508000,11.651508056640624,-0.005532959476113319,0.005698858760297298,-0.000364118255674839
1767708914337509000,11.661509033203124,-0.0035411810968071222,0.006091408431529999,-0.003909051418304443
1767708914347509200,11.67150927734375,-0.0049049705266952515,0.014837230555713177,-0.00039285700768232346
1767708914357508600,11.681508544921876,-0.007177446037530899,0.012718685902655125,0.004095102194696665
1767708914367509500,11.691509521484376,-0.002817600267007947,0.014330962672829628,0.007701531518250704
1767708914377509600,11.701509521484375,-0.002547289477661252,0.0025760361459106207,0.002279335632920265
1767708914387509500,11.711509521484375,-0.0063175600953400135,0.012392180971801281,-0.004599574953317642
1767708914397509600,11.721509521484375,-0.00014515151269733906,0.022080494090914726,-0.009573294781148434
1767708914407510500,11.731510498046875,0.0044137099757790565,0.018846219405531883,-0.005476767662912607
1767708914417510400,11.741510498046875,-0.0021642979700118303,0.013520164415240288,0.001535601681098342
1767708914427510500,11.751510498046875,-0.002552323043346405,0.005681282840669155,-0.007764915004372597
1767708914437510400,11.761510498046874,-0.003323041833937168,-0.002953484421595931,-0.01346967276185751
1767708914447511600,11.771511474609374,-0.00672553014010191,-0.0040106275118887424,-0.009350301697850227
1767708914457511700,11.78151171875,-0.009766061790287495,-0.0023557390086352825,-0.004579514265060425
1767708914467511600,11.791511474609376,-0.011296269483864307,0.002062313025817275,0.0008662277832627296
1767708914477512700,11.8015126953125,-0.00944483932107687,0.007731916382908821,0.010542556643486023
1767708914487512600,11.8115126953125,-0.006750005763024092,0.009872165508568287,0.021167520433664322
1767708914497512700,11.8215126953125,-0.0033174576237797737,0.005524821579456329,0.022018935531377792
1767708914507512600,11.8315126953125,-0.003228252287954092,0.0023782963398844004,0.018692275509238243
1767708914517513500,11.841513427734375,-0.00035656546242535114,0.00044058053754270077,0.01681075245141983
1767708914527513600,11.851513671875,-0.0003844964085146785,-0.002044414170086384,0.017117861658334732
1767708914537513500,11.861513427734375,-0.0008582727750763297,-0.0007660966366529465,0.016291748732328415
