time,seconds_elapsed,z,y,x
1767708902723470600,0.047470703125,0.008193481713533401,0.022458171471953392,-0.007096791639924049
1767708902733470700,0.057470703125,0.007735684048384428,0.020013654604554176,0.0007701861904934049
1767708902743470600,0.067470703125,0.007766043767333031,0.011236408725380898,-0.0032498554792255163
1767708902753471500,0.077471435546875,0.012693158350884914,0.009486446157097816,-0.011189005337655544
1767708902763472000,0.087471923828125,0.016268718987703323,0.005369198974221945,-0.020314592868089676
1767708902773471700,0.0974716796875,0.015983493998646736,0.0024027039762586355,-0.016988305374979973
1767708902783471900,0.107471923828125,0.018142251297831535,0.00010519486386328936,-0.010779676958918571
1767708902793472800,0.11747265625,0.01853480190038681,0.002843989757820964,-0.0032256206031888723
1767708902803472600,0.12747265625,0.021090904250741005,0.007030212786048651,-0.003913515247404575
1767708902813472800,0.13747265625,0.021258417516946793,0.017121994867920876,0.0017507621087133884
1767708902823472600,0.14747265625,0.017528926953673363,0.018504176288843155,0.0034874093253165483
1767708902833472800,0.15747265625,0.0137227363884449,0.014515292830765247,-0.004306331276893616
1767708902843473700,0.1674736328125,0.013561614789068699,0.011862251907587051,-0.010100836865603924
1767708902853473500,0.1774736328125,0.009387110359966755,0.020418722182512283,-0.011254518292844296
1767708902863473700,0.1874736328125,0.008975119329988956,0.023749537765979767,-0.010967696085572243
1767708902873473500,0.1974736328125,0.008347677998244762,0.018568623811006546,-0.013003416359424591
1767708902883475000,0.207474853515625,0.008315187878906727,0.01332778949290514,-0.014586399309337139
1767708902893474800,0.217474853515625,0.010010023601353168,0.01004917174577713,-0.011885154992341995
1767708902903474700,0.227474609375,0.01077142171561718,0.009792443364858627,-0.008610532619059086
1767708902913474800,0.237474853515625,0.011994345113635063,0.01296426821500063,-0.007224090863019228
1767708902923474700,0.247474609375,0.01022547297179699,0.01643143780529499,-0.005360144190490246
1767708902933475800,0.257475830078125,0.009063003584742546,0.018622154369950294,-0.006929545197635889
1767708902943475700,0.267475830078125,0.007982558570802212,0.024748222902417183,-0.004282363224774599
1767708902953475800,0.277475830078125,0.00612420542165637,0.030117422342300415,0.0013851100811734796
1767708902963475700,0.287475830078125,0.0037148434203118086,0.03575107455253601,0.007685350254178047
1767708902973475600,0.2974755859375,-0.004048271104693413,0.03527223691344261,0.017076721414923668
1767708902983476700,0.307476806640625,-0.011114968918263912,0.043954409658908844,0.019784091040492058
1767708902993476600,0.3174765625,-0.00920228660106659,0.0547785609960556,0.012809005565941334
1767708903003476700,0.327476806640625,-0.006704241503030062,0.058765310794115067,0.007841943763196468
1767708903013476900,0.337476806640625,-0.003915912006050348,0.06102047860622406,0.00364719913341105
1767708903023477800,0.347477783203125,-0.0014112089993432164,0.06054243817925453,0.010497648268938065
1767708903033478000,0.357477783203125,-0.00407437002286315,0.05499933660030365,0.027284618467092514
1767708903043477800,0.367477783203125,-0.00737189594656229,0.053708501160144806,0.02532240003347397
1767708903053478000,0.377477783203125,-0.004185956437140703,0.03982650861144066,0.008647018112242222
1767708903063477800,0.387477783203125,-0.002752376953139901,0.029988525435328484,0.008892827667295933
1767708903073478700,0.397478759765625,-0.0032027175184339285,0.03251133859157562,0.019364643841981888
1767708903083478800,0.407478759765625,-0.0034200313966721296,0.03753379359841347,0.036672525107860565
1767708903093478700,0.417478759765625,-0.00506799528375268,0.04958060383796692,0.04481274634599686
1767708903103478800,0.427478759765625,-0.004491953644901514,0.05824173614382744,0.04511101916432381
1767708903113479700,0.437479736328125,-0.002079928759485483,0.061229802668094635,0.0356791689991951
1767708903123479800,0.447479736328125,-0.0019947076216340065,0.06443225592374802,0.024461401626467705
1767708903133480000,0.45747998046875,-0.003553189570084214,0.07286861538887024,0.015677763149142265
1767708903143479800,0.467479736328125,-0.006798517424613237,0.06729541718959808,0.012494486756622791
1767708903153480000,0.47747998046875,-0.006104231346398592,0.05013613775372505,0.0178743377327919
1767708903163480800,0.487480712890625,-0.00105354655534029,0.040660079568624496,0.03209375590085983
1767708903173480700,0.497480712890625,0.011806059628725052,0.03961292281746864,0.04343855381011963
1767708903183480800,0.507480712890625,0.028870264068245888,0.04692729562520981,0.05372900888323784
1767708903193480700,0.517480712890625,0.031071100383996964,0.04865781590342522,0.05374312400817871
1767708903203481600,0.527481689453125,0.02617621049284935,0.042560774832963943,0.05396096780896187
1767708903213481700,0.537481689453125,0.022536734119057655,0.043470777571201324,0.04952014982700348
1767708903223481600,0.547481689453125,0.022358302026987076,0.04840455204248428,0.03743205964565277
1767708903233481700,0.557481689453125,0.025047030299901962,0.06144418567419052,0.02514529973268509
1767708903243481600,0.567481689453125,0.027354925870895386,0.08086129277944565,0.02726544253528118
1767708903253482800,0.577482666015625,0.026161829009652138,0.10477913916110992,0.04820001870393753
1767708903263483000,0.58748291015625,0.03320722281932831,0.12152297049760818,0.06873725354671478
1767708903273482800,0.597482666015625,0.03880571946501732,0.09780432283878326,0.06423171609640121
1767708903283483000,0.60748291015625,0.031149929389357567,0.0525958314538002,0.037394244223833084
1767708903293482800,0.617482666015625,0.016208797693252563,-0.006028864067047834,0.0025574336759746075
1767708903303483600,0.627483642578125,0.01152802538126707,-0.027588218450546265,-0.02268959954380989
1767708903313483800,0.63748388671875,0.004340420011430979,-0.012799418531358242,-0.013770140707492828
1767708903323483600,0.647483642578125,0.00723607512190938,-0.013354421593248844,0.011289140209555626
1767708903333483800,0.65748388671875,-0.0010090717114508152,-0.004978513345122337,0.039265379309654236
1767708903343484700,0.667484619140625,-0.0020841897930949926,0.0038400120101869106,0.063911072909832
1767708903353484800,0.67748486328125,-0.0006607302348129451,0.00817936658859253,0.07085872441530228
1767708903363485000,0.68748486328125,0.0013590110465884209,-0.003579022129997611,0.06482453644275665
1767708903373484800,0.69748486328125,0.008348743431270123,-0.014940333552658558,0.05047063156962395
1767708903383485000,0.70748486328125,0.005449626594781876,-0.013760553672909737,0.03184288367629051
1767708903393485800,0.71748583984375,0.004736165516078472,-0.019116437062621117,0.00549303600564599
1767708903403485700,0.727485595703125,-0.0009643306257203221,-0.022555110976099968,-0.008772718720138073
1767708903413485800,0.73748583984375,-0.0028386632911860943,-0.025624403730034828,-0.0101375887170434
1767708903423485700,0.747485595703125,-0.008215852081775665,-0.027162645012140274,-0.006922088097780943
1767708903433486800,0.75748681640625,-0.012927516363561153,-0.025109080597758293,-0.00948245171457529
1767708903443487000,0.767487060546875,-0.01967996172606945,-0.023419838398694992,-0.011321363970637321
1767708903453486800,0.77748681640625,-0.019120164215564728,-0.0056954361498355865,-0.0023329290561378
1767708903463487000,0.787487060546875,-0.016465792432427406,0.021204354241490364,0.006150037981569767
1767708903473486800,0.79748681640625,-0.013569071888923645,0.033314015716314316,0.018748387694358826
1767708903483487700,0.80748779296875,-0.013917679898440838,0.0341036431491375,0.024688567966222763
1767708903493487900,0.81748779296875,-0.010247311554849148,0.03160399943590164,0.01738112047314644
1767708903503487700,0.82748779296875,-0.00666269613429904,0.03506584092974663,0.006216350477188826
1767708903513488000,0.83748779296875,-0.0031523837242275476,0.038176149129867554,0.0009334379574283957
1767708903523488800,0.84748876953125,-0.003913515247404575,0.03558063134551048,-0.010688863694667816
1767708903533488600,0.857488525390625,-0.003457848448306322,0.015115569345653057,-0.01992523856461048
1767708903543488800,0.86748876953125,-0.0062704128213226795,0.0005067995516583323,-0.017102021723985672
1767708903553489000,0.877489013671875,-0.0031129689887166023,-0.015471368096768856,-0.01673317328095436
1767708903563489000,0.887489013671875,-0.0018764632986858487,-0.0249029528349638,-0.011659319512546062
1767708903573490000,0.897489990234375,0.00044661210267804563,-0.03749491274356842,-0.0028455876745283604
1767708903583489800,0.90748974609375,0.003847202518954873,-0.038115959614515305,0.007737015374004841
1767708903593490000,0.917489990234375,0.007604124024510384,-0.02906334213912487,0.010822554118931293
1767708903603489800,0.92748974609375,0.005679191090166569,-0.02762177400290966,0.0044195158407092094
1767708903613491000,0.937490966796875,0.004734035115689039,-0.03026336431503296,-0.0006093312404118478
1767708903623490800,0.94749072265625,0.006127400789409876,-0.02629711851477623,-0.006271744146943092
1767708903633490700,0.95749072265625,0.0073111760430037975,-0.025983396917581558,-0.016259929165244102
1767708903643490800,0.96749072265625,0.0036338833160698414,-0.03452042490243912,-0.024276044219732285
1767708903653490700,0.97749072265625,-0.0024714134633541107,-0.031383223831653595,-0.02388961985707283
1767708903663491800,0.987491943359375,-0.00640756543725729,-0.03638570383191109,-0.02377430535852909
1767708903673492000,0.997491943359375,-0.010413758456707,-0.04561994969844818,-0.011317369528114796
1767708903683491800,1.007491943359375,-0.016227705404162407,-0.05113109573721886,0.002969424705952406
1767708903693492000,1.017491943359375,-0.020373715087771416,-0.06045402213931084,0.00564030883833766
1767708903703492900,1.027492919921875,-0.02490348555147648,-0.061951253563165665,0.003742007538676262
1767708903713493000,1.037492919921875,-0.024106135591864586,-0.060266535729169846,-0.0018293253378942609
1767708903723492900,1.047492919921875,-0.025194834917783737,-0.06121169030666351,0.002624545246362686
1767708903733492700,1.05749267578125,-0.02124456875026226,-0.05192551389336586,0.007003581151366234
1767708903743492900,1.067492919921875,-0.019638948142528534,-0.04758962243795395,0.01429291907697916
1767708903753493800,1.07749365234375,-0.02003762312233448,-0.0550970733165741,0.02273700386285782
1767708903763494000,1.087493896484375,-0.021269602701067924,-0.05829606205224991,0.028735240921378136
1767708903773493800,1.09749365234375,-0.025056084617972374,-0.057854510843753815,0.032585106790065765
1767708903783493600,1.10749365234375,-0.03086337447166443,-0.05348586291074753,0.030670294538140297
1767708903793493800,1.11749365234375,-0.037211816757917404,-0.051001399755477905,0.0341811403632164
1767708903803495000,1.127494873046875,-0.03983156755566597,-0.044984519481658936,0.04765327274799347
1767708903813495000,1.1374951171875,-0.04181376099586487,-0.04247715324163437,0.07727907598018646
1767708903823495000,1.147494873046875,-0.05018700286746025,-0.026566630229353905,0.1128610372543335
1767708903833494800,1.157494873046875,-0.05540333688259125,-0.01804637908935547,0.1351567506790161
1767708903843496000,1.167495849609375,-0.0581999234855175,-0.011118963360786438,0.13725905120372772
1767708903853495800,1.177495849609375,-0.057909637689590454,-0.0049188584089279175,0.12225134670734406
1767708903863496000,1.187495849609375,-0.06143193691968918,0.021578794345259666,0.12817713618278503
1767708903873495800,1.197495849609375,-0.08738470822572708,0.09167718887329102,0.21411468088626862
1767708903883495700,1.20749560546875,-0.1075749322772026,0.1313827931880951,0.3307078778743744
1767708903893496800,1.217496826171875,-0.11682195961475372,0.09978864341974258,0.33436015248298645
1767708903903496700,1.22749658203125,-0.10536131262779236,0.09191740304231644,0.2758563458919525
1767708903913497000,1.2374970703125,-0.07672886550426483,0.1007218137383461,0.2107846736907959
1767708903923497000,1.2474970703125,-0.04969644919037819,0.07105420529842377,0.1342286467552185
1767708903933497900,1.257497802734375,-0.0302583035081625,0.013361611403524876,0.06706558912992477
1767708903943498000,1.267498046875,-0.02961035631597042,-0.032218921929597855,0.03592151403427124
1767708903953497900,1.277497802734375,-0.03492283076047897,-0.042518433183431625,0.03952557221055031
1767708903963498000,1.287498046875,-0.04729507863521576,-0.06006280332803726,0.041007619351148605
1767708903973497900,1.297497802734375,-0.05078861117362976,-0.08032573014497757,0.03900519013404846
1767708903983498800,1.307498779296875,-0.048051148653030396,-0.08793704956769943,0.038417164236307144
1767708903993499000,1.317498779296875,-0.04116048663854599,-0.10783059149980545,0.020423516631126404
1767708904003498800,1.327498779296875,-0.03458620607852936,-0.12801282107830048,-0.004945490043610334
1767708904013499000,1.337498779296875,-0.026074742898344994,-0.13952088356018066,-0.03416622430086136
1767708904023500000,1.3475,-0.010703776963055134,-0.1334986686706543,-0.053523145616054535
1767708904033500000,1.3575,0.010636931285262108,-0.12156904488801956,-0.06685865670442581
1767708904043500000,1.3675,0.015396267175674438,-0.14328818023204803,-0.08632423728704453
1767708904053500000,1.3775,-0.03819532319903374,-0.27995920181274414,-0.12972231209278107
1767708904063500000,1.3875,0.0028812738601118326,-0.18307368457317352,-0.02202753722667694
1767708904073501000,1.3975009765625,0.013258014805614948,-0.1766757071018219,0.02749420888721943
1767708904083500800,1.407500732421875,0.02454608865082264,-0.18162518739700317,0.014363759197294712
1767708904093501000,1.4175009765625,0.028842832893133163,-0.17004257440567017,0.026732811704277992
1767708904103500800,1.427500732421875,0.029439382255077362,-0.09436485171318054,0.07798907160758972
1767708904113501700,1.437501708984375,0.02786758355796337,-0.05064213648438454,0.08787818998098373
1767708904123501800,1.447501708984375,0.013848970644176006,-0.05116225406527519,0.070868581533432
1767708904133501700,1.457501708984375,-0.006570018362253904,-0.05659909546375275,0.06964725255966187
1767708904143501800,1.467501708984375,-0.028916602954268456,-0.0575900599360466,0.07241294533014297
1767708904153501700,1.477501708984375,-0.04813157767057419,-0.06688608974218369,0.06899664551019669
1767708904163502800,1.4875029296875,-0.05774452164769173,-0.09534862637519836,0.07100173830986023
1767708904173503000,1.4975029296875,-0.06772418320178986,-0.10237403959035873,0.07213810831308365
1767708904183502800,1.5075029296875,-0.06424982845783234,-0.1042632907629013,0.05007515102624893
1767708904193503000,1.5175029296875,-0.05300436168909073,-0.08919592201709747,0.026972495019435883
1767708904203503900,1.52750390625,-0.027409520000219345,-0.05537697300314903,-0.017904166132211685
1767708904213503700,1.537503662109375,-0.01890072040259838,-0.03941851109266281,-0.03446369990706444
1767708904223504000,1.54750390625,-0.010075803846120834,-0.024761272594332695,-0.04054263234138489
1767708904233503700,1.557503662109375,-0.0005233111442066729,0.07980641722679138,-0.09383328258991241
1767708904243503900,1.56750390625,-0.0073532541282474995,0.06057706102728844,-0.11507066339254379
1767708904253504800,1.5775048828125,-0.020680245012044907,-0.010899253189563751,-0.03971146047115326
1767708904263504600,1.587504638671875,-0.023145532235503197,-0.03141225129365921,0.014148576185107231
1767708904273505000,1.597505126953125,-0.02160862274467945,-0.03482003137469292,0.031922779977321625
1767708904283505000,1.6075048828125,-0.013037238270044327,-0.040830519050359726,0.026374615728855133
1767708904293505800,1.617505859375,-0.006371612660586834,-0.07295224070549011,0.019962523132562637
1767708904303506000,1.627505859375,0.00025486451340839267,-0.1014816164970398,0.022038722410798073
1767708904313505800,1.637505859375,0.005637645721435547,-0.1104908213019371,0.017716679722070694
1767708904323506000,1.647505859375,0.011958392336964607,-0.09426525235176086,0.007279750891029835
1767708904333505800,1.657505859375,0.0207686610519886,-0.04616323485970497,-0.021155884489417076
1767708904343506700,1.667506591796875,0.036433640867471695,-0.02333834581077099,-0.05642732232809067
1767708904353507300,1.67750732421875,0.04018763452768326,-0.017297230660915375,-0.07937551289796829
1767708904363507200,1.687507080078125,0.0462588407099247,-0.027968784794211388,-0.07261881232261658
1767708904373507300,1.69750732421875,0.05044160038232803,-0.04193413257598877,-0.07465159893035889
1767708904383508200,1.70750830078125,0.06016533449292183,-0.05407894775271416,-0.09338533878326416
1767708904393508000,1.717508056640625,0.06409935653209686,-0.054485347121953964,-0.10622310638427734
1767708904403508500,1.727508544921875,0.06326552480459213,-0.04641224071383476,-0.08435323089361191
1767708904413508400,1.73750830078125,0.05859833210706711,-0.04652702063322067,-0.06341252475976944
1767708904423509200,1.74750927734375,0.04813849925994873,-0.04126328229904175,-0.0507822223007679
1767708904433509400,1.75750927734375,0.04242974892258644,-0.013982128351926804,-0.05862309783697128
1767708904443509200,1.76750927734375,0.03690448775887489,0.013059609569609165,-0.059726979583501816
1767708904453509400,1.77750927734375,0.01865810714662075,0.04014608636498451,-0.0379047729074955
1767708904463509200,1.78750927734375,-0.018666628748178482,0.08184453099966049,-0.0060179452411830425
1767708904473510100,1.79751025390625,-0.050089798867702484,0.07958324253559113,0.04011386260390282
1767708904483510300,1.80751025390625,-0.04048404470086098,0.03514467179775238,0.04244599491357803
1767708904493510100,1.81751025390625,-0.027951207011938095,0.0304401982575655,0.034378211945295334
1767708904503510300,1.82751025390625,-0.00535428524017334,0.034685008227825165,0.030822627246379852
1767708904513511400,1.837511474609375,0.007770837750285864,0.02245284430682659,0.014902516268193722
1767708904523511300,1.84751123046875,0.014767760410904884,-0.004939364735037088,0.0031521173659712076
1767708904533511400,1.857511474609375,0.018172612413764,-0.03699183836579323,-0.003153981640934944
1767708904543511300,1.86751123046875,0.012240687385201454,-0.0676639974117279,0.014611433260142803
1767708904553511400,1.877511474609375,0.00634817685931921,-0.07339858263731003,0.03196272626519203
1767708904563512300,1.88751220703125,0.004201669245958328,-0.06684534251689911,0.03880119323730469
1767708904573512200,1.89751220703125,0.00418515782803297,-0.07073275744915009,0.031000526621937752
1767708904583512300,1.90751220703125,0.0035923379473388195,-0.08020509034395218,0.024533571675419807
1767708904593512200,1.91751220703125,0.0041273669339716434,-0.08395428955554962,0.03447648510336876
1767708904603513300,1.927513427734375,0.0029356025625020266,-0.07474055141210556,0.047687094658613205
1767708904613513200,1.93751318359375,0.004544684197753668,-0.06228361278772354,0.05361369252204895
1767708904623513300,1.947513427734375,0.007665376644581556,-0.05733359605073929,0.050149720162153244
1767708904633513200,1.95751318359375,0.008615059778094292,-0.057009223848581314,0.0458092987537384
1767708904643513000,1.96751318359375,0.006572415120899677,-0.06693588942289352,0.05158383026719093
1767708904653514500,1.977514404296875,0.002682868391275406,-0.08418039232492447,0.06921315938234329
1767708904663514400,1.987514404296875,-0.006915696896612644,-0.09543997049331665,0.08226823806762695
1767708904673514200,1.99751416015625,-0.011863583698868752,-0.10794483870267868,0.09045027196407318
1767708904683514400,2.007514404296875,-0.014452708885073662,-0.09437496960163116,0.09175548702478409
1767708904693515300,2.017515380859375,-0.013139237649738789,-0.07444014400243759,0.06999693065881729
1767708904703515400,2.027515380859375,-0.011867045424878597,-0.060809023678302765,0.04622209072113037
1767708904713515300,2.037515380859375,-0.014446050859987736,-0.04987035319209099,0.033299632370471954
1767708904723515400,2.047515380859375,-0.012939234264194965,-0.045215949416160583,0.030769895762205124
1767708904733515300,2.057515380859375,-0.00857271533459425,-0.03972850367426872,0.029352828860282898
1767708904743516200,2.06751611328125,-0.004845355171710253,-0.030593594536185265,0.02359187789261341
1767708904753516300,2.077516357421875,-0.005064267199486494,-0.023333817720413208,0.015562980435788631
1767708904763516400,2.087516357421875,-0.001767273643054068,-0.014488928020000458,0.01130724884569645
1767708904773516500,2.0975166015625,-0.002126800362020731,-0.012971725314855576,0.007503456436097622
1767708904783517400,2.107517333984375,-0.0028431906830519438,0.0014474280178546906,0.0059841228649020195
1767708904793517300,2.117517333984375,0.0005334311863407493,0.012053733691573143,-0.0034298852551728487
1767708904803517400,2.127517333984375,0.0007819040911272168,0.010369017720222473,-0.014065485447645187
1767708904813517300,2.137517333984375,-0.002743055811151862,0.011620703153312206,-0.021099692210555077
1767708904823517400,2.147517333984375,-0.005061870440840721,0.01498321071267128,-0.025614816695451736
1767708904833518300,2.157518310546875,-0.0022053637076169252,0.01751427911221981,-0.021747106686234474
1767708904843518200,2.167518310546875,-0.00014381069922819734,0.023211846128106117,-0.027774905785918236
1767708904853518300,2.177518310546875,0.00119602563790977,0.02449708618223667,-0.022891201078891754
1767708904863518200,2.187518310546875,0.002326803747564554,0.017884191125631332,-0.010979680344462395
1767708904873519400,2.197519287109375,0.0028461201582103968,0.005113801918923855,-0.007876299321651459
1767708904883519500,2.20751953125,0.00395665830001235,-0.008309595286846161,-0.011711517348885536
1767708904893519400,2.217519287109375,0.003611512714996934,-0.015906793996691704,-0.009334912523627281
1767708904903519500,2.22751953125,0.004870389122515917,-0.010252105072140694,-0.006711432244628668
1767708904913520400,2.237520263671875,0.007218498270958662,-0.00663366774097085,-0.023933028802275658
1767708904923520300,2.247520263671875,0.0100238723680377,-0.011096060276031494,-0.03292838856577873
1767708904933520400,2.257520263671875,0.007764712441712618,-0.008886968716979027,-0.02455274760723114
1767708904943520300,2.267520263671875,0.004279966000467539,-0.009660083800554276,-0.013630058616399765
1767708904953520400,2.277520263671875,0.004551874939352274,-0.013411945663392544,-0.011799934320151806
1767708904963521300,2.287521240234375,0.005678924731910229,-0.008612928912043571,-0.02190343476831913
1767708904973521200,2.297521240234375,0.00033156355493701994,-0.008535430766642094,-0.022418489679694176
1767708904983521300,2.307521240234375,-0.002977147698402405,-0.012011655606329441,-0.013902232982218266
1767708904993521200,2.317521240234375,-0.0041153826750814915,-0.016702547669410706,-0.006894125137478113
1767708905003522300,2.327522216796875,-0.008713330142199993,-0.016163790598511696,-0.003891677362844348
1767708905013522400,2.3375224609375,-0.014772821217775345,-0.02430027909576893,-0.0041276332922279835
1767708905023522300,2.347522216796875,-0.016703879460692406,-0.0345209576189518,-0.006052832584828138
1767708905033522400,2.3575224609375,-0.019466109573841095,-0.032594162970781326,-0.007901865057647228
1767708905043522300,2.367522216796875,-0.018747854977846146,-0.029258819296956062,-0.006670952308923006
1767708905053523200,2.377523193359375,-0.019815249368548393,-0.02984018623828888,-0.0022471752017736435
1767708905063523300,2.3875234375,-0.0180000402033329,-0.026020148769021034,0.001657551503740251
1767708905073523200,2.397523193359375,-0.015330486930906773,-0.019294336438179016,0.0022120214998722076
1767708905083523300,2.4075234375,-0.014196778647601604,-0.015031147748231888,0.004038683604449034
1767708905093524200,2.417524169921875,-0.01577017456293106,-0.009692841209471226,0.00043649208964779973
1767708905103524000,2.427524169921875,-0.018215755000710487,-0.005527124274522066,0.002511360915377736
1767708905113524200,2.437524169921875,-0.017139306291937828,-0.005854959599673748,0.0033894050866365433
1767708905123524400,2.4475244140625,-0.016682308167219162,-0.0026229473296552896,0.00044581317342817783
1767708905133524500,2.4575244140625,-0.01555232796818018,0.0008849684381857514,0.00015180018090177327
1767708905143525400,2.467525390625,-0.018486598506569862,-0.0011883024126291275,0.002923884429037571
1767708905153525200,2.477525146484375,-0.015785887837409973,0.00216594897210598,0.0113413380458951
1767708905163525400,2.487525390625,-0.012110458686947823,0.012753346003592014,0.013942713849246502
1767708905173525200,2.497525146484375,-0.007457383442670107,0.012289423495531082,0.013341904617846012
1767708905183526400,2.5075263671875,-0.006579605862498283,0.0062792012467980385,0.010230266489088535
1767708905193526300,2.5175263671875,-0.004574778024107218,0.009765811264514923,0.006487726699560881
1767708905203526100,2.527526123046875,-0.0062677497044205666,0.00851705577224493,0.010208428837358952
1767708905213526300,2.5375263671875,-0.006852047052234411,0.013263873755931854,0.010222277604043484
1767708905223527400,2.54752734375,-0.008407066576182842,0.016169382259249687,0.005511678289622068
1767708905233527300,2.55752734375,-0.00663526589050889,0.010932542383670807,0.007861917838454247
1767708905243527400,2.56752734375,-0.005178783088922501,0.01059192419052124,0.008731972426176071
1767708905253527300,2.57752734375,-0.0012072109384462237,0.008450210094451904,0.005446697119623423
1767708905263527400,2.58752734375,-0.0004756405542138964,0.006022738758474588,0.008096275851130486
1767708905273528300,2.5975283203125,0.001401089015416801,0.0023606258910149336,0.011363974772393703
1767708905283528400,2.607528564453125,0.004710865672677755,0.0009752495680004358,0.008400408551096916
1767708905293528300,2.6175283203125,0.002183259464800358,0.006070409435778856,-0.001026382320560515
1767708905303528200,2.627528076171875,0.0038192393258213997,0.003765709698200226,-0.0027654264122247696
1767708905313529300,2.637529296875,0.0012740562669932842,0.0004945489927195013,0.0007773766992613673
1767708905323529200,2.647529296875,0.0023031015880405903,-0.007863515987992287,0.004827778320759535
1767708905333529300,2.657529296875,0.003994208760559559,-0.011847072280943394,0.010434797964990139
1767708905343529200,2.667529296875,0.005149488337337971,-0.016993630677461624,0.008460063487291336
1767708905353530600,2.677530517578125,0.005033374298363924,-0.013728861697018147,0.00624138442799449
1767708905363530800,2.68753076171875,0.007620369084179401,-0.01366308145225048,0.0014889733865857124
1767708905373530600,2.697530517578125,0.009688845835626125,-0.015490276739001274,-0.0007590008899569511
1767708905383530500,2.707530517578125,0.010477940551936626,-0.007093862164765596,-0.008624913170933723
1767708905393530600,2.717530517578125,0.011924037709832191,-0.009150355122983456,-0.0038895467296242714
1767708905403531500,2.727531494140625,0.010264355689287186,-0.006946056615561247,-0.0028937908355146646
1767708905413531600,2.73753173828125,0.009755425155162811,-0.004257062915712595,-0.0035095135681331158
1767708905423531500,2.747531494140625,0.007394000422209501,-0.003942277282476425,-0.005090366117656231
1767708905433531600,2.75753173828125,0.005239236634224653,-0.00920148752629757,-0.00481259822845459
1767708905443532500,2.767532470703125,0.004022704903036356,-0.012919261120259762,0.0022538332268595695
1767708905453532400,2.777532470703125,0.001859685406088829,-0.009807622991502285,0.0029973878990858793
1767708905463532500,2.787532470703125,-0.0010724549647420645,-0.009369799867272377,-0.004391552414745092
1767708905473532700,2.79753271484375,-0.001529187080450356,-0.011786085553467274,-0.003640541108325124
1767708905483533600,2.807533447265625,-0.002377936616539955,-0.01383964903652668,-0.00011478224041638896
1767708905493533700,2.81753369140625,-0.00043223105603829026,-0.012989035807549953,0.002767290687188506
1767708905503533600,2.827533447265625,0.005515939090400934,-0.013222594745457172,0.0018628811230883002
1767708905513533700,2.83753369140625,0.005526059307157993,-0.020016318187117577,-0.0006191849242895842
1767708905523533600,2.847533447265625,0.00612393906340003,-0.01635606959462166,-0.0026072347536683083
1767708905533534500,2.857534423828125,0.008156463503837585,-0.01611878164112568,-0.007530886679887772
1767708905543534600,2.86753466796875,0.00415453128516674,-0.013282516039907932,-0.003674097126349807
1767708905553534500,2.877534423828125,0.0019680759869515896,-0.014319817535579205,-0.0010157296201214194
1767708905563534600,2.88753466796875,0.002400306984782219,-0.00965688843280077,-0.002802977105602622
1767708905573535700,2.89753564453125,0.0011792477453127503,-0.0018967032665386796,-0.004078897647559643
1767708905583535600,2.90753564453125,-0.0002487392339389771,0.004391286056488752,0.00012303804396651685
1767708905593535700,2.91753564453125,-0.0023166837636381388,0.007859254255890846,-0.000008255799002654385
1767708905603535600,2.92753564453125,-0.001005343277938664,0.009463543072342873,-0.001210939371958375
1767708905613536500,2.93753662109375,-0.0003307645965833217,0.006926882080733776,-0.0016706009628251195
1767708905623536600,2.94753662109375,-0.0004394215648062527,0.008957276120781898,-0.0016823188634589314
1767708905633536500,2.95753662109375,-0.0018700717482715845,0.006954312324523926,-0.000360059377271682
1767708905643536600,2.96753662109375,-0.002587793627753854,0.004349474795162678,0.0004854942671954632
1767708905653536500,2.97753662109375,-0.0035750274546444416,0.005032575689256191,0.005424859002232552
1767708905663537400,2.987537353515625,-0.0062483083456754684,0.007065898738801479,0.0057494984939694405
1767708905673537500,2.99753759765625,-0.005185973364859819,0.009491506032645702,-0.0013851100811734796
1767708905683537400,3.007537353515625,-0.006429403554648161,0.01480531133711338,-0.0038959383964538574
1767708905693537500,3.01753759765625,-0.005452822428196669,0.013287842273712158,-0.0020783308427780867
1767708905703538700,3.02753857421875,-0.00495081627741456,0.01341860368847847,-0.00044314999831840396
1767708905713538600,3.03753857421875,-0.004932973068207502,0.014342454262077808,0.002703907433897257
1767708905723538700,3.04753857421875,-0.006198240909725428,0.017613880336284637,0.0038991342298686504
1767708905733538600,3.05753857421875,-0.004773183725774288,0.018855713307857513,0.003698598127812147
1767708905743538700,3.06753857421875,-0.005056277383118868,0.016346748918294907,0.004355067387223244
1767708905753539600,3.07753955078125,-0.001761148450896144,0.011020692996680737,0.004954544827342033
1767708905763539500,3.08753955078125,-0.00006684534309897572,0.009689378552138805,0.0059628174640238285
1767708905773539600,3.09753955078125,0.0018077536951750517,0.009246761910617352,-0.001817607437260449
1767708905783539500,3.10753955078125,0.0020383833907544613,0.011855061165988445,-0.009170861914753914
1767708905793540400,3.117540283203125,0.0005882922559976578,0.008806008845567703,-0.011259312741458416
1767708905803540500,3.12754052734375,0.0035931370221078396,0.009019593708217144,-0.005736448802053928
1767708905813540400,3.137540283203125,0.0030330740846693516,0.008245679549872875,-0.0034256239887326956
1767708905823540500,3.14754052734375,0.0012069445801898837,0.0022620889358222485,-0.004441353492438793
1767708905833541600,3.157541748046875,-0.004267981741577387,-0.007388674188405275,-0.006177468225359917
1767708905843541500,3.16754150390625,-0.005958290304988623,-0.00811971165239811,-0.004117247182875872
1767708905853541600,3.177541748046875,-0.007906392216682434,-0.005963882897049189,-0.006997722201049328
1767708905863541500,3.18754150390625,-0.005570800509303808,-0.0034378746058791876,-0.006256830412894487
1767708905873542700,3.197542724609375,-0.005286907311528921,-0.0017089504981413484,-0.004369448404759169
1767708905883542500,3.20754248046875,-0.001704689348116517,0.0007281082216650248,-0.0067511131055653095
1767708905893542700,3.217542724609375,0.0031902005430310965,0.010580206289887428,-0.005528722424060106
1767708905903542500,3.22754248046875,0.005015797447413206,0.015324627980589867,-0.0028823392931371927
1767708905913542400,3.23754248046875,0.00564137427136302,0.017314808443188667,0.0006439523422159255
1767708905923543600,3.24754345703125,0.0001030643325066194,0.022494656965136528,0.001035436987876892
1767708905933543700,3.257543701171875,-0.001989913871511817,0.02702549286186695,0.0016588830621913075
1767708905943543600,3.26754345703125,-0.004535097163170576,0.022457905113697052,0.0010692591313272715
1767708905953543700,3.277543701171875,-0.0067694890312850475,0.02468297630548477,-0.0029763488564640284
1767708905963544600,3.287544677734375,-0.005517537239938974,0.02840767242014408,-0.003510046284645796
1767708905973544700,3.297544677734375,-0.005571599118411541,0.027574103325605392,0.0034525219816714525
1767708905983544600,3.307544677734375,-0.0019076223252341151,0.024393755942583084,0.005085572600364685
1767708905993544700,3.317544677734375,0.00037630466977134347,0.02323608100414276,0.008008657954633236
1767708906003545600,3.327545654296875,0.002650644164532423,0.015985624864697456,-0.00008309062832267955
1767708906013545500,3.33754541015625,0.003884486621245742,0.012702745385468006,-0.004059989005327225
1767708906023545600,3.347545654296875,0.004068511072546244,0.012605806812644005,-0.010135192424058914
1767708906033545500,3.35754541015625,0.005369198974221945,0.010962902568280697,-0.009918943047523499
1767708906043546600,3.367546630859375,0.00404614070430398,0.010424677282571793,-0.008377771824598312
1767708906053546800,3.377546630859375,0.003299922915175557,0.014791728928685188,-0.009190568700432777
1767708906063546600,3.387546630859375,0.0006988134700804949,0.017485782504081726,-0.004804342519491911
1767708906073546800,3.397546630859375,-0.005113535560667515,0.020728981122374535,0.0018421085551381111
1767708906083546600,3.407546630859375,-0.0033041839487850666,0.02648353949189186,0.001517202821560204
1767708906093547500,3.417547607421875,-0.007790278643369675,0.028655612841248512,0.000502804818097502
1767708906103547600,3.427547607421875,-0.004914863966405392,0.034573156386613846,-0.0041526672430336475
1767708906113547500,3.437547607421875,-0.0020391824655234814,0.032218124717473984,0.0011025486746802926
1767708906123547600,3.447547607421875,0.0007544735562987626,0.0356765054166317,0.00041864890954457223
1767708906133548500,3.457548583984375,0.006136455573141575,0.04225717484951019,-0.002133724745362997
1767708906143548400,3.46754833984375,0.00914689339697361,0.0408552885055542,0.003718838095664978
1767708906153548500,3.477548583984375,0.010153568349778652,0.04414855316281319,0.006703975144773722
1767708906163548400,3.48754833984375,0.009518403559923172,0.04415760561823845,0.003757720347493887
1767708906173549600,3.497549560546875,0.007503989152610302,0.043231360614299774,0.000645550258923322
1767708906183549700,3.5075498046875,0.0031579763162881136,0.040594831109046936,-0.0017560884589329362
1767708906193549600,3.517549560546875,0.0025510420091450214,0.039574574679136276,-0.004741758108139038
1767708906203549700,3.5275498046875,-0.0009829727932810783,0.037521541118621826,-0.005152151454240084
1767708906213549600,3.537549560546875,-0.0031166973058134317,0.034513235092163086,-0.012795424088835716
1767708906223550500,3.547550537109375,-0.0032056469935923815,0.032580845057964325,-0.019234415143728256
1767708906233550600,3.557550537109375,-0.006061088293790817,0.027881965041160583,-0.02479988895356655
1767708906243550500,3.567550537109375,-0.005465338937938213,0.02592693828046322,-0.021495439112186432
1767708906253550600,3.577550537109375,-0.005139900837093592,0.02376897819340229,-0.02352423407137394
1767708906263551500,3.587551513671875,-0.005856557283550501,0.026327211409807205,-0.020848821848630905
1767708906273551400,3.59755126953125,-0.0054735951125621796,0.02990676648914814,-0.02202354371547699
1767708906283551500,3.607551513671875,-0.003478354774415493,0.027239343151450157,-0.018849054351449013
1767708906293551600,3.617551513671875,-0.00035127095179632306,0.024321051314473152,-0.01053120382130146
1767708906303552500,3.627552490234375,-0.000004793690095539205,0.025480326265096664,-0.009743707254529
1767708906313552600,3.637552734375,0.0006671218434348702,0.020329240709543228,-0.005915679503232241
1767708906323552500,3.647552490234375,-0.0028455876745283604,0.014599449001252651,-0.0013294500531628728
1767708906333552600,3.657552734375,-0.006402239203453064,0.013112340122461319,0.00008655273268232122
1767708906343553500,3.667553466796875,-0.0073447320610284805,0.02375752665102482,0.003162237349897623
1767708906353553200,3.67755322265625,-0.008895223960280418,0.03021169826388359,0.0047148605808615685
1767708906363553000,3.687552978515625,-0.011030014604330063,0.0349997952580452,0.007390804588794708
1767708906373553200,3.69755322265625,-0.014096643775701523,0.0391806922852993,0.007539675105363131
1767708906383553000,3.707552978515625,-0.011844408698379993,0.042689938098192215,0.013364807702600956
1767708906393554200,3.71755419921875,-0.011481952853500843,0.032534241676330566,0.019599268212914467
1767708906403554300,3.72755419921875,-0.011419101618230343,0.023984694853425026,0.0333331897854805
1767708906413554200,3.73755419921875,-0.011745339259505272,0.021145498380064964,0.04134184867143631
1767708906423554300,3.74755419921875,-0.013891047798097134,0.029763488098978996,0.03711434453725815
1767708906433555200,3.75755517578125,-0.008929046802222729,0.04741385579109192,0.016033561900258064
1767708906443555000,3.76755517578125,-0.006706106010824442,0.06360027939081192,-0.0012061456218361855
1767708906453555200,3.77755517578125,-0.0019630161114037037,0.07026883959770203,-0.011843076907098293
1767708906463555000,3.78755517578125,-0.0007366303470917046,0.06191796064376831,-0.012774384580552578
1767708906473556000,3.797555908203125,0.0007313040550798178,0.0548001304268837,-0.012180766090750694
1767708906483556000,3.80755615234375,0.001597630325704813,0.053648848086595535,-0.014673484489321709
1767708906493556000,3.817555908203125,0.0002695118892006576,0.058287009596824646,-0.01618828997015953
1767708906503556000,3.82755615234375,-0.0014884406700730324,0.056350890547037125,-0.010524280369281769
1767708906513557200,3.83755712890625,-0.003916444722563028,0.051297809928655624,-0.0029177593532949686
1767708906523557000,3.84755712890625,-0.004119910299777985,0.047869253903627396,-0.00042450788896530867
1767708906533557200,3.85755712890625,-0.0019481023773550987,0.0472993366420269,-0.006311425473541021
1767708906543557000,3.86755712890625,-0.0012242551892995834,0.03425650671124458,-0.0075455340556800365
1767708906553557200,3.87755712890625,-0.00038216362008824944,0.02840900421142578,-0.0044227116741240025
1767708906563558100,3.88755810546875,0.005814213305711746,0.025256887078285217,0.003832821501418948
1767708906573558000,3.89755810546875,0.00720491586253047,0.028379177674651146,0.006669087801128626
1767708906583558100,3.90755810546875,0.006406234111636877,0.02863484062254429,0.005405950825661421
1767708906593558000,3.91755810546875,0.005241101142019033,0.017782991752028465,0.010966897010803223
1767708906603559000,3.927558837890625,-0.0007590008899569511,0.0070278155617415905,0.015411446802318096
1767708906613559000,3.93755908203125,0.0002878876985050738,-0.002335858531296253,0.019578494131565094
1767708906623559000,3.947558837890625,0.0037318875547498465,-0.01931537501513958,0.018665030598640442
1767708906633559000,3.95755908203125,0.007253651972860098,-0.03158189356327057,0.01606711745262146
1767708906643560200,3.967560302734375,0.005172657780349255,-0.01781068928539753,0.009492305107414722
1767708906653560000,3.97756005859375,0.008980978280305862,-0.022779613733291626,0.011215636506676674
1767708906663560200,3.987560302734375,0.008223574608564377,-0.036724723875522614,0.014057761989533901
1767708906673560000,3.99756005859375,0.007513576187193394,-0.03996392711997032,0.010924020782113075
1767708906683561000,4.00756103515625,0.008067513816058636,-0.038491733372211456,0.004000334069132805
1767708906693561000,4.01756103515625,0.004486627411097288,-0.03429299220442772,0.0009472863748669624
1767708906703561000,4.02756103515625,0.002823483431711793,-0.034928955137729645,-0.00484349112957716
1767708906713561000,4.03756103515625,0.0020900487434118986,-0.03274036943912506,-0.007664577569812536
1767708906723561000,4.04756103515625,-0.005166266113519669,-0.1402905285358429,0.09027823060750961
1767708906733562000,4.05756201171875,-0.00606508320197463,-0.025013741105794907,0.027168504893779755
1767708906743562200,4.067562255859375,0.0019089538836851716,-0.038111165165901184,-0.00620995881035924
1767708906753562000,4.07756201171875,0.00017443705291952938,-0.04975983127951622,0.01067927572876215
1767708906763562200,4.087562255859375,0.002412024885416031,-0.038669098168611526,0.012938168831169605
1767708906773563100,4.097563232421875,0.00818229652941227,-0.02298201434314251,0.002927080262452364
1767708906783563300,4.107563232421875,0.015410381369292736,-0.005696235224604607,-0.014613031409680843
1767708906793563100,4.117563232421875,0.018202705308794975,-0.004365986213088036,-0.01900484971702099
1767708906803563000,4.12756298828125,0.01781175471842289,-0.014256699942052364,-0.012595154345035553
1767708906813564200,4.137564208984375,0.021229920908808708,-0.016169115900993347,-0.003307912265881896
1767708906823564000,4.14756396484375,0.0075940038077533245,-0.09178505092859268,0.05390797182917595
1767708906833564200,4.157564208984375,0.010396447964012623,-0.021685054525732994,0.03573083132505417
1767708906843564000,4.16756396484375,0.01629854552447796,-0.0018937737913802266,-0.014023673720657825
1767708906853565200,4.177565185546875,0.00863157119601965,-0.009409480728209019,-0.0065710837952792645
1767708906863565300,4.1875654296875,0.009886985644698143,-0.008286692202091217,-0.0012215919559821486
1767708906873565200,4.197565185546875,0.008665925823152065,0.005354018881917,-0.005873868241906166
1767708906883565300,4.2075654296875,0.00911253783851862,-0.0030035129748284817,-0.002858903491869569
1767708906893566200,4.217566162109375,0.000480434246128425,-0.060087572783231735,0.0342373326420784
1767708906903566000,4.227566162109375,0.005148422904312611,-0.03157417103648186,0.047501739114522934
1767708906913566200,4.237566162109375,0.010878746397793293,0.001886317040771246,-0.0073503246530890465
1767708906923566000,4.247566162109375,0.007996407337486744,-0.004502340219914913,-0.010055297054350376
1767708906933566200,4.257566162109375,0.004510862287133932,-0.00842837244272232,-0.004826979245990515
1767708906943567000,4.267567138671875,0.0034938009921461344,-0.005260542035102844,-0.0023347933311015368
1767708906953567000,4.27756689453125,0.004032026045024395,0.0008652610122226179,0.002089249901473522
1767708906963567000,4.287567138671875,0.0019566244445741177,0.004220045171678066,0.00794287770986557
1767708906973567000,4.29756689453125,0.0001174454009742476,0.007926899008452892,0.005875199567526579
1767708906983568100,4.307568115234375,-0.0019462381023913622,0.012645754031836987,0.0019385149935260415
1767708906993568300,4.317568359375,0.000639691308606416,0.010747719556093216,-0.0012996225850656629
1767708907003568000,4.327568115234375,-0.0011853729374706745,0.004041613079607487,0.0022708773612976074
1767708907013568300,4.337568359375,-0.0049556102603673935,-0.004531634971499443,0.009502957575023174
1767708907023569200,4.347569091796875,-0.007234210614115,-0.007722367998212576,0.016821857541799545
1767708907033569000,4.357569091796875,-0.012972258031368256,-0.002368615474551916,0.017179785296320915
1767708907043569200,4.367569091796875,-0.01122202817350626,0.0023909860756248236,0.009810286574065685
1767708907053569000,4.377569091796875,-0.013199691660702229,0.009013468399643898,0.001113201375119388
1767708907063570000,4.38756982421875,-0.01179354265332222,0.019328691065311432,-0.003462908323854208
1767708907073570000,4.397570068359375,-0.010041715577244759,0.031862325966358185,-0.006535930093377829
1767708907083570000,4.40756982421875,-0.008557535707950592,0.020120447501540184,-0.004793157335370779
1767708907093570000,4.417570068359375,-0.00945289060473442,0.0022056300658732653,-0.0022426480427384377
1767708907103571200,4.4275712890625,-0.011204184964299202,-0.010073672980070114,-0.0011065434664487839
1767708907113571000,4.437571044921875,-0.01671799272298813,-0.013187707401812077,0.0002913498319685459
1767708907123571200,4.4475712890625,-0.02244698628783226,-0.016922790557146072,0.002671683207154274
1767708907133571000,4.457571044921875,-0.022368421778082848,-0.018636267632246017,0.0010096043115481734
1767708907143572000,4.467572021484375,-0.02160835638642311,-0.011686217039823532,-0.002858637133613229
1767708907153572000,4.477572021484375,-0.020592892542481422,-0.0002844255941454321,-0.006433397997170687
1767708907163572000,4.487572021484375,-0.020048808306455612,0.007978564128279686,-0.008282430469989777
1767708907173572000,4.497572021484375,-0.013426059857010841,0.014631407335400581,-0.010208428837358952
1767708907183572000,4.507572021484375,-0.012298477813601494,0.013087039813399315,-0.013492106460034847
1767708907193573000,4.517572998046875,-0.013529391027987003,0.007428088691085577,-0.009559150785207748
1767708907203573000,4.527572998046875,-0.013439375907182693,0.0017747305100783706,-0.0017422399250790477
1767708907213573000,4.537572998046875,-0.014547783881425858,-0.0008609999786131084,0.005588643718510866
1767708907223573200,4.5475732421875,-0.01871350035071373,-0.003054911969229579,0.01672864705324173
1767708907233574100,4.55757421875,-0.016708938404917717,-0.006000634748488665,0.026639066636562347
1767708907243574000,4.567573974609375,-0.021407287567853928,-0.008498147130012512,0.030719297006726265
1767708907253574100,4.57757421875,-0.019306054338812828,-0.012469985522329807,0.027641747146844864
1767708907263574000,4.587573974609375,-0.013767477124929428,-0.01679549179971218,0.02010020799934864
1767708907273575200,4.5975751953125,-0.01098713744431734,-0.02461479790508747,0.010960238985717297
1767708907283575000,4.607574951171875,-0.013013004325330257,-0.03550766035914421,0.01895984262228012
1767708907293575200,4.6175751953125,-0.014088388532400131,-0.038001976907253265,0.030478812754154205
1767708907303575000,4.627574951171875,-0.01254934724420309,-0.03050917387008667,0.026455575600266457
1767708907313576200,4.637576171875,-0.008324242196977139,-0.00893836747854948,0.007268565706908703
1767708907323576300,4.647576416015625,-0.006406234111636877,0.00580915343016386,-0.015898538753390312
1767708907333576200,4.657576171875,-0.005820871330797672,0.009039035066962242,-0.021285580471158028
1767708907343576300,4.667576416015625,-0.008402273058891296,0.013529124669730663,-0.018637066707015038
1767708907353577700,4.67757763671875,-0.009195628575980663,0.018205102533102036,-0.013550695963203907
1767708907363577600,4.68757763671875,-0.01098367478698492,0.02292262576520443,-0.008901615627110004
1767708907373577500,4.697577392578125,-0.0086028091609478,0.021573735401034355,-0.004225371405482292
1767708907383577600,4.70757763671875,-0.00899855513125658,0.023983895778656006,0.004002464935183525
1767708907393578500,4.71757861328125,-0.00355851580388844,0.025913355872035027,0.0009137305896729231
1767708907403578600,4.72757861328125,0.00003941478280466981,0.022161494940519333,-0.0068155620247125626
1767708907413578500,4.73757861328125,0.004009921569377184,0.021225659176707268,-0.005412076134234667
1767708907423578600,4.74757861328125,0.006720487028360367,0.021952437236905098,-0.005419532768428326
1767708907433579800,4.757579833984375,0.007514108903706074,0.02219238691031933,-0.008742891252040863
1767708907443579600,4.76757958984375,0.006306897848844528,0.01864772103726864,-0.012508334591984749
1767708907453579800,4.777579833984375,0.0041555967181921005,0.01450091227889061,-0.012429239228367805
1767708907463579600,4.78757958984375,0.0018399780383333564,0.016039153560996056,-0.014611699618399143
1767708907473579500,4.79757958984375,0.0016929714474827051,0.017909491434693336,-0.016589095816016197
1767708907483580700,4.80758056640625,-0.000046339002437889576,0.02611921913921833,-0.016829313710331917
1767708907493580500,4.81758056640625,0.002400839701294899,0.028072914108633995,-0.018380871042609215
1767708907503580700,4.82758056640625,0.004904477391391993,0.03068254515528679,-0.016274310648441315
1767708907513580500,4.83758056640625,0.007248591631650925,0.02791125886142254,-0.01787939853966236
1767708907523581400,4.84758154296875,0.009097890928387642,0.01906610280275345,-0.01751747541129589
1767708907533581600,4.85758154296875,0.007449127733707428,0.015149392187595367,-0.015981363132596016
1767708907543581700,4.867581787109375,0.009781258180737495,0.013193832710385323,-0.016834907233715057
1767708907553581800,4.877581787109375,0.007405451964586973,0.013309147208929062,-0.013712350279092789
1767708907563582700,4.887582763671875,0.005148689262568951,0.013164271600544453,-0.010565558448433876
1767708907573582600,4.89758251953125,0.0025238776579499245,0.01218609232455492,-0.002481533447280526
1767708907583582700,4.907582763671875,0.0006697850185446441,0.012015383690595627,0.0017387778498232365
1767708907593582600,4.91758251953125,-0.0005488775204867125,0.012064119800925255,0.0012695288751274347
1767708907603583500,4.92758349609375,0.0034708979073911905,0.014133129268884659,-0.005765477195382118
1767708907613583600,4.93758349609375,0.005894108209758997,0.02461346797645092,-0.013175456784665585
1767708907623583500,4.94758349609375,0.007045126520097256,0.028976790606975555,-0.013688914477825165
1767708907633583600,4.95758349609375,0.008798818103969097,0.02558152563869953,-0.012775982730090618
1767708907643584500,4.96758447265625,0.009376191534101963,0.020229903981089592,-0.015981096774339676
1767708907653584600,4.977584716796875,0.009765544906258583,0.017619207501411438,-0.019937755540013313
1767708907663584800,4.987584716796875,0.010958641767501831,0.02105894684791565,-0.01804478093981743
1767708907673584600,4.997584716796875,0.010957043617963791,0.02659272775053978,-0.020924989134073257
1767708907683585500,5.00758544921875,0.01233629509806633,0.02256709337234497,-0.026911508291959763
1767708907693585700,5.017585693359375,0.010877414606511593,0.011394334957003593,-0.026022013276815414
1767708907703585500,5.02758544921875,0.004569185432046652,0.007748466916382313,-0.021764684468507767
1767708907713585700,5.037585693359375,0.0025563682429492474,0.011152786202728748,-0.015672435984015465
1767708907723586600,5.047586669921875,-0.0005842975224368274,0.012943761423230171,-0.01269981637597084
1767708907733586400,5.05758642578125,-0.0044349622912704945,0.016347015276551247,-0.007685350254178047
1767708907743586600,5.067586669921875,-0.005898635368794203,0.020086092874407768,-0.008755408227443695
1767708907753586400,5.07758642578125,-0.008154865354299545,0.022236330434679985,-0.012041216716170311
1767708907763587800,5.087587890625,-0.005841909907758236,0.01961684413254261,-0.009123191237449646
1767708907773587700,5.097587646484375,-0.0065199509263038635,0.018861571326851845,0.0035689021460711956
1767708907783587600,5.107587646484375,0.00009454221435589716,0.016031164675951004,0.013497965410351753
1767708907793587700,5.117587646484375,0.0011744539951905608,-0.009321862831711769,0.024984978139400482
1767708907803588600,5.127588623046875,-0.0005803027888759971,-0.024232635274529457,0.03610634058713913
1767708907813588700,5.137588623046875,-0.0065654912032186985,-0.02257375232875347,0.04147526994347572
1767708907823588600,5.147588623046875,-0.011012171395123005,-0.009268066845834255,0.03133155778050423
1767708907833588500,5.15758837890625,-0.01702984981238842,0.007171093951910734,0.01973988302052021
1767708907843589600,5.167589599609375,-0.019996611401438713,0.026704847812652588,0.017365140840411186
1767708907853589500,5.177589599609375,-0.022362830117344856,0.031327828764915466,0.005558549892157316
1767708907863589600,5.187589599609375,-0.019041335210204124,0.03361841291189194,-0.005585447885096073
1767708907873589500,5.197589599609375,-0.021523667499423027,0.04041746258735657,-0.00758042186498642
1767708907883589600,5.207589599609375,-0.02105175517499447,0.037281591445207596,-0.003450924064964056
1767708907893590800,5.2175908203125,-0.0199795663356781,0.04249872267246246,-0.006971090566366911
1767708907903590700,5.227590576171875,-0.018458636477589607,0.05483102425932884,-0.002662894781678915
1767708907913590800,5.2375908203125,-0.0132111432030797,0.05862149968743324,-0.0007555388147011399
1767708907923590700,5.247590576171875,-0.008670187555253506,0.058823902159929276,0.002977946773171425
1767708907933591600,5.257591552734375,-0.00580915343016386,0.06569299101829529,0.010122142732143402
1767708907943591700,5.267591796875,-0.004653341136872768,0.07422256469726562,0.016817595809698105
1767708907953591600,5.277591552734375,0.00021784658019896597,0.08176250755786896,0.019703397527337074
1767708907963591700,5.287591796875,0.001740109408274293,0.09059461206197739,0.02454262785613537
1767708907973592600,5.297592529296875,0.003236006945371628,0.09521253407001495,0.02509097196161747
1767708907983592400,5.307592529296875,0.002814162289723754,0.08791440725326538,0.03892635926604271
1767708907993592600,5.317592529296875,0.0064863949082791805,0.0851559042930603,0.047932371497154236
1767708908003592400,5.327592529296875,0.0034434671979397535,0.07856857776641846,0.04844236746430397
1767708908013593600,5.337593505859375,-0.0002492718631401658,0.08137821406126022,0.04168938845396042
1767708908023593700,5.34759375,-0.004954278469085693,0.08300087600946426,0.022818762809038162
1767708908033593600,5.357593505859375,-0.00638013519346714,0.0745549276471138,0.005323925521224737
1767708908043593700,5.36759375,-0.005228051450103521,0.07605428993701935,0.00430153775960207
1767708908053594600,5.3775947265625,0.0013438310706987977,0.06566183269023895,-0.0034794199746102095
1767708908063594500,5.387594482421875,0.009269132278859615,0.04861387610435486,-0.0075785573571920395
1767708908073594600,5.3975947265625,0.013286510482430458,0.04062971845269203,0.0051681301556527615
1767708908083594500,5.407594482421875,0.01624368503689766,0.03370523452758789,0.007994011044502258
1767708908093595400,5.417595458984375,0.01847381517291069,0.038303978741168976,0.0059718722477555275
1767708908103595500,5.427595458984375,0.024690432474017143,0.05299663916230202,-0.006573214195668697
1767708908113595600,5.437595703125,0.025201493874192238,0.06627782434225082,-0.013858291320502758
1767708908123595800,5.447595703125,0.02189677581191063,0.07260416448116302,-0.013876667246222496
1767708908133596700,5.4575966796875,0.013432984240353107,0.06863418966531754,-0.005918875336647034
1767708908143596500,5.467596435546875,0.0026261431630700827,0.06624586880207062,0.0035116442013531923
1767708908153596700,5.4775966796875,-0.003320429241284728,0.06880249828100204,0.0056954361498355865
1767708908163596500,5.487596435546875,-0.009187639690935612,0.06648235768079758,-0.007844074629247189
1767708908173597700,5.49759765625,-0.015813050791621208,0.06624773144721985,-0.02111673727631569
1767708908183597600,5.50759765625,-0.018030932173132896,0.06667622923851013,-0.021879466250538826
1767708908193597400,5.517597412109375,-0.01737925596535206,0.06834976375102997,-0.015308382920920849
1767708908203597600,5.52759765625,-0.014737134799361229,0.07285290211439133,-0.004591822158545256
1767708908213598500,5.537598388671875,-0.014388793148100376,0.08027806133031845,0.006401706486940384
1767708908223598600,5.5475986328125,-0.013104350306093693,0.08271698653697968,0.012572516687214375
1767708908233598700,5.5575986328125,-0.011657188646495342,0.0917365774512291,0.015629293397068977
1767708908243598600,5.5675986328125,-0.0035020567011088133,0.09499628841876984,0.01528920792043209
1767708908253599700,5.577599853515625,0.0011941614793613553,0.10542389750480652,0.0076211681589484215
1767708908263599600,5.587599609375,0.005046423990279436,0.12221325933933258,-0.0005645901546813548
1767708908273599700,5.597599853515625,0.0067812069319188595,0.14362747967243195,-0.0018647453980520368
1767708908283599600,5.607599609375,0.008236091583967209,0.14533668756484985,0.0016732640797272325
1767708908293600500,5.6176005859375,0.01095597818493843,0.13204538822174072,0.00971521157771349
1767708908303600600,5.6276005859375,0.00860201008617878,0.11303947120904922,0.020063189789652824
1767708908313600500,5.6376005859375,0.010772486217319965,0.10942183434963226,0.017044497653841972
1767708908323600600,5.6476005859375,0.0032352081034332514,0.10073087364435196,0.00950721837580204
1767708908333601800,5.657601806640625,-0.002064748667180538,0.09137359261512756,0.008412392809987068
1767708908343601700,5.6676015625,-0.00660384027287364,0.08403844386339188,0.008825182914733887
1767708908353601000,5.67760107421875,-0.009911753237247467,0.07420764863491058,0.0049582733772695065
1767708908363601000,5.687600830078125,-0.012506204657256603,0.07911559194326401,0.0012865731259807944
1767708908373602000,5.69760205078125,-0.01136690378189087,0.0830666571855545,0.005847502965480089
1767708908383602200,5.707602294921875,-0.009843575768172741,0.07291149348020554,0.005067463032901287
1767708908393602000,5.71760205078125,-0.0035390746779739857,0.07312934100627899,0.011956794187426567
1767708908403602200,5.727602294921875,-0.0015361113473773003,0.0726262629032135,0.01877501979470253
1767708908413603000,5.73760302734375,-0.004332962911576033,0.06413770467042923,0.012664396315813065
1767708908423603000,5.74760302734375,-0.01125398650765419,0.06363117694854736,0.0023696806747466326
1767708908433603000,5.75760302734375,-0.018989935517311096,0.06283196061849594,-0.006566556170582771
1767708908443603000,5.76760302734375,-0.023239275440573692,0.06071474775671959,-0.011977567337453365
1767708908453604000,5.77760400390625,-0.03104553371667862,0.06101062148809433,-0.01432221382856369
1767708908463604000,5.78760400390625,-0.03151505067944527,0.06558433920145035,-0.022946061566472054
1767708908473603800,5.797603759765625,-0.029404759407043457,0.06435928493738174,-0.03230494260787964
1767708908483604000,5.80760400390625,-0.0275016650557518,0.05542410910129547,-0.035772643983364105
1767708908493605000,5.817605224609375,-0.02654186263680458,0.04908791929483414,-0.033968087285757065
1767708908503605200,5.827605224609375,-0.018966766074299812,0.05439399927854538,-0.034027475863695145
1767708908513605000,5.837605224609375,-0.015200524590909481,0.060320064425468445,-0.03599821403622627
1767708908523605000,5.84760498046875,-0.012949087657034397,0.06205644831061363,-0.04886847361922264
1767708908533605000,5.857605224609375,-0.008732771500945091,0.06376193463802338,-0.057912036776542664
1767708908543606000,5.86760595703125,-0.00746271014213562,0.061523813754320145,-0.059973057359457016
1767708908553606100,5.877606201171875,-0.008647283539175987,0.05741828680038452,-0.04939284920692444
1767708908563606000,5.88760595703125,-0.006131129339337349,0.04863065108656883,-0.03723445534706116
1767708908573606000,5.89760595703125,-0.005164402071386576,0.03804032504558563,-0.030374683439731598
1767708908583607000,5.90760693359375,-0.005459479987621307,0.029817815870046616,-0.020606208592653275
1767708908593607000,5.91760693359375,-0.0035270904190838337,0.020054934546351433,-0.013303288258612156
1767708908603607300,5.927607177734375,-0.00029587719473056495,0.02263500541448593,-0.003187004942446947
1767708908613607200,5.937607177734375,-0.00030173614504747093,0.026279008015990257,-0.005892776418477297
1767708908623608000,5.947608154296875,0.0029909962322562933,0.028610339388251305,-0.017369668930768967
1767708908633608200,5.957608154296875,0.0033872744534164667,0.024703215807676315,-0.019543606787919998
1767708908643608000,5.967608154296875,0.004355067387223244,0.020113257691264153,-0.015459916554391384
1767708908653608200,5.977608154296875,0.005161472596228123,0.011843076907098293,-0.010095776990056038
1767708908663609000,5.987609130859375,0.0070491209626197815,0.009329586289823055,-0.006365221459418535
1767708908673609000,5.99760888671875,0.002645584288984537,0.012665728107094765,-0.007033142261207104
1767708908683609000,6.007609130859375,0.001847434788942337,0.01786661520600319,-0.01805010624229908
1767708908693609000,6.01760888671875,0.0014263890916481614,0.024176176637411118,-0.03194648027420044
1767708908703610000,6.027610107421875,-0.0007986819837242365,0.023359118029475212,-0.030012227594852448
1767708908713610200,6.0376103515625,0.004225371405482292,0.02479243092238903,-0.02388855442404747
1767708908723610000,6.047610107421875,0.007544735446572304,0.02298547700047493,-0.018987540155649185
1767708908733610200,6.0576103515625,0.014758972451090813,0.015338475815951824,-0.01672731526196003
1767708908743611100,6.067611083984375,0.01068007480353117,0.010578874498605728,-0.013185310177505016
1767708908753611000,6.077611083984375,0.008920790627598763,0.004037352278828621,-0.0014594122767448425
1767708908763611100,6.087611083984375,0.0106505136936903,-0.0023731428664177656,0.006600644905120134
1767708908773611000,6.097611083984375,0.009384979493916035,-0.005471464246511459,0.001614940818399191
1767708908783612000,6.10761181640625,0.00678227236494422,-0.0027955202385783195,-0.006491188891232014
1767708908793612000,6.117612060546875,0.004704740364104509,-0.0009568737586960196,-0.0011976235546171665
1767708908803612000,6.12761181640625,0.0009882990270853043,0.0037209687288850546,0.007419033907353878
1767708908813612000,6.137612060546875,0.0021654162555933,0.008547415025532246,0.00797110702842474
1767708908823613200,6.14761328125,-0.0011946940794587135,0.013852432370185852,0.0065404572524130344
1767708908833613000,6.157613037109375,-0.0010258496040478349,0.017466075718402863,-0.002719353651627898
1767708908843613200,6.16761328125,-0.0030597057193517685,0.022052837535738945,-0.00458782771602273
1767708908853613000,6.177613037109375,-0.002326537622138858,0.017583254724740982,0.006704774219542742
1767708908863614200,6.1876142578125,-0.0020032296888530254,0.012346947565674782,0.011729360558092594
1767708908873614000,6.197614013671875,-0.0003701793903019279,0.009498430415987968,0.01182177197188139
1767708908883614000,6.207614013671875,0.0019859191961586475,0.006440322380512953,0.012229502201080322
1767708908893614000,6.217614013671875,0.0037348170299082994,0.006215285509824753,0.008904545567929745
1767708908903615000,6.227614990234375,0.002766757970675826,0.005215268116444349,0.010601511225104332
1767708908913615000,6.237614990234375,0.00012144014181103557,-0.01275494322180748,0.024225978180766106
1767708908923615000,6.247614990234375,-0.0026937874499708414,-0.024336231872439384,0.023971378803253174
1767708908933614800,6.25761474609375,-0.0007060039788484573,-0.022943399846553802,0.017941715195775032
1767708908943616300,6.2676162109375,0.0028573055751621723,-0.01888633891940117,0.010178867727518082
1767708908953616100,6.2776162109375,0.008709069341421127,-0.013286510482430458,-0.0012474246323108673
1767708908963616300,6.2876162109375,0.010971425101161003,-0.0003581951605156064,-0.007388141471892595
1767708908973616000,6.2976162109375,0.012588229961693287,0.010041449218988419,-0.006611031014472246
1767708908983617000,6.307616943359375,0.014637266285717487,0.009870474226772785,0.0002884203568100929
1767708908993617200,6.3176171875,0.013881194405257702,0.009572199545800686,0.010427340865135193
1767708909003617000,6.327616943359375,0.015165637247264385,0.005333246197551489,0.013516074977815151
1767708909013618000,6.337617919921875,0.012775982730090618,0.002049568807706237,0.016762735322117805
1767708909023618000,6.3476181640625,0.01263776421546936,0.002186188939958811,0.018486332148313522
1767708909033618000,6.357617919921875,0.010718690231442451,-0.0049558766186237335,0.02244299091398716
1767708909043618000,6.3676181640625,0.009327189065515995,-0.012900352478027344,0.02093404345214367
1767708909053619200,6.377619140625,0.010637464001774788,-0.012172776274383068,0.01378319039940834
1767708909063619000,6.387619140625,0.010002566501498222,-0.01552116870880127,0.012566924095153809
1767708909073619200,6.397619140625,0.009777262806892395,-0.02154950052499771,0.006560697220265865
1767708909083619000,6.407619140625,0.007134342100471258,-0.024880049750208855,-0.0023521038237959146
1767708909093620000,6.417619873046875,0.0028783443849533796,-0.02544890157878399,-0.0073226275853812695
1767708909103620000,6.4276201171875,0.00023675501870457083,-0.02352902851998806,-0.0019353191601112485
1767708909113620000,6.437619873046875,0.001490571303293109,-0.024527447298169136,0.0006301039247773588
1767708909123620000,6.4476201171875,0.00415346585214138,-0.01685168407857418,-0.012989834882318974
1767708909133621000,6.45762109375,0.004502606578171253,-0.01188169326633215,-0.02315911464393139
1767708909143620900,6.467620849609375,0.0054632085375487804,-0.009272860363125801,-0.028545623645186424
1767708909153621000,6.47762109375,0.004744155332446098,-0.004257329273968935,-0.030991205945611
1767708909163620900,6.487620849609375,0.003103115363046527,0.0008029430755414069,-0.027595940977334976
1767708909173622000,6.4976220703125,0.0014106763992458582,-0.0035803536884486675,-0.019650399684906006
1767708909183622100,6.5076220703125,0.002231196267530322,-0.010786334984004498,-0.011871573515236378
1767708909193622000,6.5176220703125,0.0028783443849533796,-0.01817367784678936,-0.0036575854755938053
1767708909203622100,6.5276220703125,0.005899700801819563,-0.020909009501338005,0.0070616379380226135
1767708909213623000,6.537623046875,0.00863130483776331,-0.02395060658454895,0.016151273623108864
1767708909223623000,6.547622802734375,0.008816927671432495,-0.030705181881785393,0.01372433453798294
1767708909233623000,6.557623046875,0.005297826137393713,-0.033940389752388,0.002189118415117264
1767708909243623000,6.567622802734375,0.0038211036007851362,-0.0323888324201107,-0.007837682962417603
1767708909253624000,6.5776240234375,0.0023555660154670477,-0.038486938923597336,-0.007607319392263889
1767708909263624000,6.5876240234375,0.0001448759576305747,-0.044252149760723114,-0.009399360977113247
1767708909273624000,6.5976240234375,-0.004850947763770819,-0.04441620036959648,-0.006841660942882299
1767708909283624200,6.607624267578125,-0.005622199270874262,-0.04640717804431915,0.0008362325606867671
1767708909293625000,6.617625,-0.005172924138605595,-0.05162404477596283,-0.004222175572067499
1767708909303625200,6.627625244140625,-0.007202252745628357,-0.04544204846024513,-0.005856025032699108
1767708909313625000,6.637625,-0.007208644412457943,-0.03647838160395622,-0.014488928020000458
1767708909323625000,6.647625,-0.00570049649104476,-0.025561818853020668,-0.030162429437041283
1767708909333626000,6.657626220703125,-0.003962517250329256,-0.013981595635414124,-0.04276876896619797
1767708909343626000,6.6676259765625,-0.005590774118900299,-0.0011286477092653513,-0.043483562767505646
1767708909353625900,6.6776259765625,-0.0039292280562222,0.013891580514609814,-0.043419912457466125
1767708909363625700,6.687625732421875,-0.007976699620485306,0.02183445915579796,-0.033965155482292175
1767708909373626600,6.697626708984375,-0.007764712441712618,0.01455763727426529,-0.0227990560233593
1767708909383626800,6.707626708984375,-0.012269449420273304,0.004547613672912121,-0.017139306291937828
1767708909393626600,6.717626708984375,-0.01703091524541378,0.0032684975303709507,-0.02003362961113453
1767708909403626800,6.727626708984375,-0.017257817089557648,0.0070190271362662315,-0.014986938796937466
1767708909413627600,6.737627685546875,-0.015166702680289745,0.005190767347812653,-0.013155216351151466
1767708909423627500,6.74762744140625,-0.013221795670688152,0.003722566645592451,-0.011167965829372406
1767708909433628000,6.7576279296875,-0.009097091853618622,-0.005046956706792116,-0.001344363670796156
1767708909443627800,6.767627685546875,-0.004555603489279747,-0.020558005198836327,0.0038099181838333607
1767708909453628700,6.777628662109375,-0.0023933828342705965,-0.02118038572371006,0.002808303339406848
1767708909463628800,6.78762890625,-0.0011486213188618422,-0.018871426582336426,0.0002956108655780554
1767708909473628700,6.797628662109375,-0.00014674017438665032,-0.019755061715841293,-0.0013792511308565736
1767708909483628800,6.80762890625,0.0016759273130446672,-0.01793106272816658,-0.0005739112384617329
1767708909493629700,6.817629638671875,0.0038490667939186096,-0.012819658033549786,-0.0010748518398031592
1767708909503629600,6.827629638671875,0.0051894355565309525,-0.015168832615017891,0.0013611416798084974
1767708909513629700,6.837629638671875,0.004734567832201719,-0.021820610389113426,0.006691724993288517
1767708909523629600,6.847629638671875,0.005155880004167557,-0.0241391584277153,0.007260309532284737
1767708909533630700,6.857630615234375,0.0024767396971583366,-0.02341105043888092,0.0005512743373401463
1767708909543630800,6.867630859375,-0.0025150892324745655,-0.022102639079093933,-0.0020003002136945724
1767708909553630700,6.877630615234375,-0.004165982827544212,-0.02250690758228302,0.0018407768802717328
1767708909563630800,6.887630859375,-0.0035979305393993855,-0.024838769808411598,0.0010700580896809697
1767708909573631700,6.8976318359375,-0.0006122607155703008,-0.024729048833251,-0.002752643311396241
1767708909583632000,6.9076318359375,0.0007515440811403096,-0.01798805594444275,0.0002990729990415275
1767708909593631700,6.9176318359375,0.005209143273532391,-0.018435467034578323,0.0005185174522921443
1767708909603631600,6.927631591796875,0.0046365633606910706,-0.021378258243203163,0.002603239845484495
1767708909613632800,6.9376328125,0.007690676487982273,-0.01980353146791458,0.0015190670965239406
1767708909623632600,6.947632568359375,0.005147890187799931,-0.016077237203717232,-0.0005989448982290924
1767708909633632800,6.9576328125,0.0046967510133981705,-0.01401461847126484,-0.003371029393747449
1767708909643632600,6.967632568359375,0.004276237916201353,-0.009397496469318867,-0.00749067310243845
1767708909653633800,6.9776337890625,0.006825948134064674,-0.008232097141444683,-0.008801480755209923
1767708909663634000,6.987634033203125,0.0054666707292199135,-0.009692841209471226,-0.006902647204697132
1767708909673633800,6.9976337890625,0.004633633885532618,-0.010232397355139256,-0.010509898886084557
1767708909683634000,7.007634033203125,0.0020639498252421618,-0.006881874520331621,-0.01558188907802105
1767708909693634800,7.017634765625,-0.0028240159153938293,-0.005813414230942726,-0.01811056025326252
1767708909703634700,7.027634765625,-0.0025092302821576595,-0.0014146711910143495,-0.022047245875000954
1767708909713634800,7.037634765625,-0.0007041397620923817,-0.0029736857395619154,-0.020773189142346382
1767708909723634700,7.047634765625,-0.0009361011325381696,-0.00352868833579123,-0.014749119058251381
1767708909733635600,7.057635498046875,0.0027081684675067663,-0.00407623453065753,-0.013132313266396523
1767708909743635700,7.0676357421875,0.003053047927096486,-0.00920574925839901,-0.01312032900750637
1767708909753635600,7.077635498046875,0.00011211907985853031,-0.003954794257879257,-0.013765080831944942
1767708909763635700,7.0876357421875,-0.0017771273851394653,0.010352506302297115,-0.02015426941215992
1767708909773636900,7.097636962890625,-0.004412857815623283,0.021410483866930008,-0.02965669520199299
1767708909783636700,7.10763671875,-0.006707703694701195,0.024396685883402824,-0.02544250898063183
1767708909793636900,7.117636962890625,-0.008521316573023796,0.029978938400745392,-0.018514296039938927
1767708909803636700,7.12763671875,-0.009488577023148537,0.028623389080166817,-0.015751799568533897
1767708909813637600,7.1376376953125,-0.009516539983451366,0.02147866040468216,-0.021984394639730453
1767708909823637800,7.1476376953125,-0.010732538998126984,0.014794126152992249,-0.026993799954652786
1767708909833637600,7.1576376953125,-0.012339490465819836,0.0033726270776242018,-0.03074965626001358
1767708909843638800,7.167638671875,-0.014268950559198856,0.0043960800394415855,-0.028926189988851547
1767708909853638700,7.177638671875,-0.016259929165244102,0.004378503188490868,-0.02467738278210163
1767708909863638500,7.187638427734375,-0.01966957561671734,0.0023217438720166683,-0.02544836886227131
1767708909873638700,7.197638671875,-0.02149144373834133,0.010313889943063259,-0.02684146724641323
1767708909883639800,7.207639892578125,-0.02159850299358368,0.014695323072373867,-0.029281189665198326
1767708909893639700,7.2176396484375,-0.01852414943277836,0.016349678859114647,-0.026869431138038635
1767708909903639800,7.227639892578125,-0.014781609177589417,0.02082059346139431,-0.020073842257261276
1767708909913639700,7.2376396484375,-0.01575659215450287,0.01673237420618534,-0.01624288596212864
1767708909923640800,7.247640869140625,-0.01506816502660513,0.013941914774477482,-0.013529923744499683
1767708909933640700,7.257640625,-0.014027934521436691,0.011234811507165432,-0.011576761491596699
1767708909943640800,7.267640869140625,-0.013108078390359879,0.012737899087369442,-0.012346947565674782
1767708909953640700,7.277640625,-0.01341940276324749,0.022107433527708054,-0.016042616218328476
1767708909963641600,7.2876416015625,-0.011229218915104866,0.038957785815000534,-0.01703570783138275
1767708909973641700,7.297641845703125,-0.010492055676877499,0.05072496086359024,-0.018250109627842903
1767708909983641600,7.3076416015625,-0.008919725194573402,0.05101098492741585,-0.022413164377212524
1767708909993641700,7.317641845703125,-0.006988401059061289,0.040887244045734406,-0.02173032984137535
1767708910003643000,7.327642822265625,-0.008189752697944641,0.038422755897045135,-0.015536881983280182
1767708910013642800,7.337642822265625,-0.0060086240991950035,0.0410504974424839,-0.006678941659629345
1767708910023643000,7.347642822265625,-0.002959570847451687,0.03771568834781647,-0.01450011320412159
1767708910033642800,7.357642822265625,-0.00048363005043938756,0.023988157510757446,-0.024233967065811157
1767708910043643600,7.3676435546875,-0.0037409423384815454,0.00993119366466999,-0.02527925744652748
1767708910053643800,7.377643798828125,-0.00407516909763217,0.005694104824215174,-0.016822656616568565
1767708910063643600,7.3876435546875,-0.003855458227917552,0.0010250506456941366,-0.014099041000008583
1767708910073643800,7.397643798828125,-0.006074137985706329,-0.00555082643404603,-0.01390090212225914
1767708910083644700,7.407644775390625,-0.006352171767503023,-0.0004346278728917241,-0.015528359450399876
1767708910093644500,7.41764453125,-0.006371879018843174,0.00839721318334341,-0.011019893921911716
1767708910103645000,7.42764501953125,-0.0055004931055009365,0.010961304418742657,-0.0007603325066156685
1767708910113644800,7.437644775390625,-0.00589570589363575,0.00746004655957222,-0.0001371527905575931
1767708910123645700,7.447645751953125,-0.008413191884756088,-0.002112419344484806,-0.005876797717064619
1767708910133645800,7.457645751953125,-0.012254003435373306,-0.002526274649426341,-0.01552356593310833
1767708910143645700,7.467645751953125,-0.01432301290333271,-0.004526042379438877,-0.02231489308178425
1767708910153645800,7.477645751953125,-0.013796239160001278,-0.007771902717649937,-0.026613501831889153
1767708910163646700,7.487646728515625,-0.016804546117782593,-0.014971492812037468,-0.02274765633046627
1767708910173646600,7.497646484375,-0.012793026864528656,-0.012616192921996117,-0.016099873930215836
1767708910183646700,7.507646728515625,-0.017421867698431015,-0.0043902210891246796,-0.016538230702280998
1767708910193647600,7.517647705078125,-0.013456686399877071,0.003923102747648954,-0.013655091635882854
1767708910203647500,7.5276474609375,-0.011749600060284138,0.01077008992433548,-0.01618562825024128
1767708910213648000,7.53764794921875,-0.011489409022033215,0.016983777284622192,-0.020927386358380318
1767708910223647700,7.547647705078125,-0.01278929878026247,0.014721155166625977,-0.017173660919070244
1767708910233649000,7.55764892578125,-0.010276872664690018,0.011592740193009377,-0.00526666734367609
1767708910243648800,7.567648681640625,-0.009550095535814762,0.01011202298104763,0.004221110139042139
1767708910253648600,7.577648681640625,-0.008933307603001595,0.009644105099141598,0.0057737333700060844
1767708910263648800,7.587648681640625,-0.008557002991437912,0.004933239426463842,0.003923901356756687
1767708910273649700,7.597649658203125,-0.008517853915691376,0.0018168084789067507,0.007309312000870705
1767708910283649800,7.60764990234375,-0.011571701616048813,0.0021971079986542463,0.000990962260402739
1767708910293649700,7.617649658203125,-0.011001517996191978,-0.004712729714810848,-0.009464608505368233
1767708910303649500,7.6276494140625,-0.01284815464168787,-0.00666429428383708,-0.014372281730175018
1767708910313651000,7.63765087890625,-0.014145912602543831,-0.0006599313346669078,-0.015112906694412231
1767708910323650800,7.64765087890625,-0.013465208932757378,0.0016128103015944362,-0.014874286949634552
1767708910333651000,7.65765087890625,-0.016881512477993965,-0.0010974886827170849,-0.013785586692392826
1767708910343650800,7.66765087890625,-0.01960699073970318,0.0020548950415104628,-0.012606872245669365
1767708910353652500,7.677652587890625,-0.017942780628800392,0.0011060107499361038,-0.012031096033751965
1767708910363652400,7.68765234375,-0.021215273067355156,-0.004822984803467989,-0.014719557948410511
1767708910373652500,7.697652587890625,-0.024219851940870285,-0.012074505910277367,-0.0190820824354887
1767708910383652400,7.70765234375,-0.022639798000454903,-0.011695804074406624,-0.01581464894115925
1767708910393653500,7.717653564453125,-0.02383582480251789,-0.01332672405987978,-0.012035624124109745
1767708910403653400,7.7276533203125,-0.023300262168049812,-0.006963899824768305,-0.010863566771149635
1767708910413653200,7.7376533203125,-0.01961924135684967,-0.003251453395932913,-0.014252172783017159
1767708910423653400,7.7476533203125,-0.01739283837378025,0.0009733853512443602,-0.013654293492436409
1767708910433654500,7.757654541015625,-0.014343253336846828,0.0005763080553151667,-0.008115450851619244
1767708910443654700,7.767654541015625,-0.010353571735322475,0.002516420790925622,-0.0028242822736501694
1767708910453654500,7.777654541015625,-0.008919725194573402,-0.0022069616243243217,-0.0009480853332206607
1767708910463654400,7.787654296875,-0.011296330019831657,0.00039015308720991015,-0.0023872575256973505
1767708910473655600,7.797655517578125,-0.012136823497712612,0.002910302486270666,-0.003638144349679351
1767708910483655400,7.807655517578125,-0.016040751710534096,0.0005099953268654644,-0.00046099317842163146
1767708910493655600,7.817655517578125,-0.017061540856957436,-0.0009675264009274542,0.00027057717670686543
1767708910503656400,7.827656494140625,-0.01666739396750927,0.0008237157016992569,-0.004854676313698292
1767708910513656300,7.83765625,-0.015267369337379932,-0.0026314693968743086,-0.011113104410469532
1767708910523656400,7.847656494140625,-0.014575746841728687,-0.005570800509303808,-0.012634036131203175
1767708910533656600,7.857656494140625,-0.01263989508152008,-0.004780374001711607,-0.00857484620064497
1767708910543657500,7.867657470703125,-0.011419101618230343,-0.007979363203048706,-0.008895756676793098
1767708910553657600,7.87765771484375,-0.011070228181779385,-0.0038277613930404186,-0.004987035412341356
1767708910563657500,7.887657470703125,-0.008009190671145916,-0.0036456012167036533,-0.004800347611308098
1767708910573657600,7.89765771484375,-0.011451326310634613,-0.009676329791545868,-0.0027134947013109922
1767708910583658500,7.907658447265625,-0.011070494540035725,-0.004514058120548725,-0.001555818715132773
1767708910593658400,7.917658447265625,-0.012655074708163738,0.0024770060554146767,-0.007473895326256752
1767708910603658500,7.927658447265625,-0.01489239651709795,0.006281065288931131,-0.011289671994745731
1767708910613658400,7.937658447265625,-0.01414431445300579,0.010905911214649677,-0.0012737899087369442
1767708910623659300,7.9476591796875,-0.0145299406722188,0.014212758280336857,0.01218609232455492
1767708910633659400,7.957659423828125,-0.0143520412966609,0.019356653094291687,0.021748971194028854
1767708910643659500,7.967659423828125,-0.013338175602257252,0.019352925941348076,0.02665318176150322
1767708910653659600,7.97765966796875,-0.00923397857695818,0.015560850501060486,0.027417242527008057
1767708910663660500,7.98766064453125,-0.011963185854256153,0.012980513274669647,0.027295004576444626
1767708910673660400,7.997660400390625,-0.016016250476241112,0.013067332096397877,0.02244911715388298
1767708910683660500,8.00766064453125,-0.00959963072091341,0.010479272343218327,0.006075202953070402
1767708910693660400,8.017660400390625,-0.006400641519576311,0.01835663616657257,-0.00820866134017706
1767708910703661600,8.02766162109375,-0.0011353056179359555,0.019887154921889305,-0.013104616664350033
1767708910713661400,8.037661376953125,0.0019632822368294,0.00974610447883606,-0.00965502392500639
1767708910723661300,8.047661376953124,-0.007201720029115677,-0.010162089951336384,-0.005910885985940695
1767708910733662500,8.057662353515624,-0.00583791546523571,-0.018032530322670937,-0.011596734635531902
1767708910743662600,8.06766259765625,-0.003944674041122198,-0.020841898396611214,-0.02100701443850994
1767708910753662500,8.077662353515626,-0.003989148885011673,-0.019116703420877457,-0.021393172442913055
1767708910763662600,8.08766259765625,-0.008714395575225353,-0.02502439357340336,-0.022775886580348015
1767708910773663500,8.09766357421875,-0.008287491276860237,-0.03295661881566048,-0.02684519626200199
1767708910783663600,8.10766357421875,-0.007978830486536026,-0.029860960319638252,-0.0344272144138813
1767708910793663500,8.11766357421875,-0.00794554129242897,-0.0232952032238245,-0.03379444777965546
1767708910803663600,8.12766357421875,-0.00999218039214611,-0.015592541545629501,-0.029271336272358894
1767708910813664500,8.13766455078125,-0.011801266111433506,-0.019359316676855087,-0.024514930322766304
1767708910823664400,8.147664306640625,-0.011114169843494892,-0.01913214847445488,-0.0210709311068058
1767708910833664500,8.15766455078125,-0.012443353421986103,-0.016694026067852974,-0.01420396938920021
1767708910843664400,8.167664306640624,-0.014153103344142437,-0.0275083240121603,-0.01629801280796528
1767708910853665500,8.17766552734375,-0.018986741080880165,-0.04483591392636299,-0.023076556622982025
1767708910863665700,8.187665771484374,-0.010702711530029774,-0.04234639182686806,-0.024226244539022446
1767708910873665500,8.19766552734375,-0.008766327053308487,-0.040353816002607346,-0.02623293548822403
1767708910883666400,8.20766650390625,-0.004445348400622606,-0.032470591366291046,-0.02971528470516205
1767708910893666600,8.21766650390625,-0.0046160570345819,-0.022895196452736855,-0.031688421964645386
1767708910903666400,8.22766650390625,-0.0017172062071040273,-0.008670985698699951,-0.030498255044221878
1767708910913666600,8.23766650390625,0.0014301175251603127,-0.0024972460232675076,-0.024021446704864502
1767708910923667500,8.24766748046875,0.002560895634815097,0.007415838539600372,-0.016538230702280998
1767708910933667300,8.257667236328125,0.00007057376933516935,0.008464325219392776,-0.013798370026051998
1767708910943667500,8.26766748046875,0.0026229473296552896,0.00013156015484128147,-0.016024772077798843
1767708910953667300,8.277667236328124,0.001674595638178289,-0.0011832424206659198,-0.020191820338368416
1767708910963668500,8.28766845703125,-0.0011001517996191978,0.00022157499915920198,-0.020981181412935257
1767708910973668600,8.297668701171874,-0.0014120079576969147,-0.002642122097313404,-0.013068930245935917
1767708910983668500,8.30766845703125,-0.00044022052315995097,-0.0017811221769079566,-0.0028751487843692303
1767708910993668600,8.317668701171876,-0.001285241567529738,0.0029087045695632696,-0.000027430558475316502
1767708911003669500,8.32766943359375,-0.0005624596378766,0.004973985720425844,0.003919374197721481
1767708911013669400,8.33766943359375,-0.002007490722462535,0.0008495483780279756,0.010492854751646519
1767708911023669500,8.34766943359375,-0.0012359730899333954,0.0006186523241922259,0.012232697568833828
1767708911033669400,8.35766943359375,-0.002404035534709692,0.005649363622069359,0.009316802956163883
1767708911043670500,8.36767041015625,-0.0035230957437306643,0.012524846941232681,0.010663829743862152
1767708911053670400,8.37767041015625,-0.0032738239970058203,0.008731439709663391,0.010907774791121483
1767708911063670300,8.387670166015624,0.00009747169679030776,0.0073042516596615314,0.012998090125620365
1767708911073670400,8.39767041015625,-0.0004679173871409148,0.007873103022575378,0.018022676929831505
1767708911083671600,8.407671630859374,-0.00037710359902121127,0.010937602259218693,0.023624636232852936
1767708911093671700,8.417671630859376,-0.0030210898257791996,0.01998782344162464,0.023541811853647232
1767708911103671600,8.427671630859376,-0.00564030883833766,0.02232714369893074,0.022431273013353348
1767708911113672400,8.43767236328125,-0.005014199763536453,0.00797536876052618,0.01666259951889515
1767708911123672600,8.447672607421875,-0.005935120861977339,0.0033537186682224274,0.01236558984965086
1767708911133672400,8.45767236328125,-0.0070643010549247265,-0.001350755337625742,0.009767675772309303
1767708911143672600,8.467672607421875,-0.006237389519810677,-0.008023039437830448,0.009559150785207748
1767708911153673500,8.477673583984375,-0.00669332267716527,-0.007771636825054884,0.014928615652024746
1767708911163673300,8.48767333984375,-0.006474144756793976,0.0007241134881041944,0.013699833303689957
1767708911173673500,8.497673583984374,-0.005608084611594677,-0.001802693703211844,0.006569752003997564
1767708911183673300,8.50767333984375,-0.008099472150206566,0.002989931032061577,-0.0013291836949065328
1767708911193674500,8.517674560546874,-0.00881160143762827,0.0017531589837744832,0.0018881811993196607
1767708911203674600,8.527674560546876,-0.008025435730814934,-0.0014479606179520488,-0.000669518718495965
1767708911213674500,8.537674560546876,-0.00663446681573987,-0.0007097324123606086,-0.007868842221796513
1767708911223674600,8.547674560546875,-0.002895122393965721,0.0035603800788521767,-0.006262423470616341
1767708911233675500,8.557675537109375,-0.0006109291571192443,0.005538842175155878,0.0006330333999358118
1767708911243675400,8.56767529296875,0.0023467775899916887,0.013014068827033043,-0.0007017429452389479
1767708911253675500,8.577675537109375,0.004043211229145527,0.016439693048596382,-0.001806155894882977
1767708911263676400,8.587676513671875,0.002793389605358243,0.01679735630750656,0.005227785091847181
1767708911273676300,8.59767626953125,0.005575594026595354,0.01684875413775444,0.01152802538126707
1767708911283676400,8.607676513671874,0.008357532322406769,0.007425159215927124,0.00875274557620287
1767708911293676300,8.61767626953125,0.006334328558295965,0.0033334787003695965,-0.00013608753215521574
1767708911303677400,8.627677490234374,0.006632602773606777,0.005334844347089529,-0.00827710423618555
1767708911313677600,8.637677490234376,0.007001450285315514,0.006133792456239462,-0.004004595335572958
1767708911323677400,8.647677490234376,0.008083226159214973,0.004804342519491911,0.0060211410745978355
1767708911333677600,8.657677490234375,0.009925068356096745,0.006013683974742889,0.011777297593653202
1767708911343678500,8.667678466796875,0.008746087551116943,0.0019542276859283447,0.011575163342058659
1767708911353678600,8.6776787109375,0.00481339730322361,-0.000922252656891942,0.010000968351960182
1767708911363679000,8.687678955078125,0.0065412563271820545,-0.004571049474179745,0.00458729499951005
1767708911373678800,8.697678955078125,0.0002889529860112816,0.0000018642127770363004,0.0043745082803070545
1767708911383679700,8.7076796875,0.0004673847579397261,0.004547347314655781,0.004677842371165752
1767708911393680000,8.717679931640625,0.000037017940485384315,0.007947138510644436,0.0059809270314872265
1767708911403679700,8.7276796875,0.0002287655370309949,0.011784753762185574,0.012501144781708717
1767708911413679900,8.737679931640624,0.0014183996245265007,0.016650082543492317,0.013936055824160576
1767708911423680800,8.7476806640625,0.0016245282022282481,0.013243899680674076,0.015848470851778984
1767708911433681000,8.757680908203126,0.0018224010709673166,0.011744007468223572,0.018012555316090584
1767708911443680800,8.7676806640625,-0.0002348908019484952,0.0121839614585042,0.016025038436055183
1767708911453681700,8.777681640625,-0.0015880429418757558,0.009301356039941311,0.010252105072140694
1767708911463681800,8.787681884765625,-0.0016964336391538382,0.0083085298538208,0.0065415226854383945
1767708911473682000,8.797681884765625,-0.004056526813656092,0.006145776715129614,0.00421391986310482
1767708911483681800,8.807681884765625,-0.0020477045327425003,0.008802013471722603,0.0011254518758505583
1767708911493683000,8.817682861328125,-0.00033875409280881286,0.002868224401026964,-0.0040855552069842815
1767708911503682800,8.827682861328125,0.0046453517861664295,-0.004999818746000528,-0.008226504549384117
1767708911513683000,8.837682861328124,0.007505586836487055,-0.007648864760994911,-0.009439041838049889
1767708911523682800,8.847682861328124,0.005964948330074549,-0.009589243680238724,-0.015426626428961754
1767708911533683700,8.85768359375,0.006731139495968819,-0.0037832865491509438,-0.016230368986725807
1767708911543683800,8.867683837890626,0.006308495998382568,0.002412823960185051,-0.018218152225017548
1767708911553683700,8.87768359375,0.006569485645741224,0.001939580193720758,-0.011578358709812164
1767708911563683800,8.887683837890625,0.006109823938459158,0.005755091086030006,-0.007174289785325527
1767708911573685000,8.89768505859375,0.002694586291909218,0.010268882848322392,-0.008665925823152065
1767708911583684900,8.907684814453125,0.0005209143273532391,0.012783439829945564,-0.011898737400770187
1767708911593685000,8.91768505859375,-0.0007044061203487217,0.011393269523978233,-0.01492355577647686
1767708911603686000,8.927685791015625,-0.0022450448013842106,0.01245187595486641,-0.01728231832385063
1767708911613685800,8.937685791015625,-0.0005725796218030155,0.012630041688680649,-0.017371267080307007
1767708911623686000,8.947685791015624,0.00003222424857085571,0.006361226551234722,-0.015564844943583012
1767708911633685800,8.957685791015624,0.0003102582704741508,-0.0013851100811734796,-0.014272945001721382
1767708911643686700,8.967686767578124,0.0027651600539684296,-0.0059630838222801685,-0.00881133507937193
1767708911653686800,8.977686767578126,0.005276787560433149,-0.005605954211205244,-0.0028543761000037193
1767708911663686700,8.987686767578126,0.003713511861860752,-0.002651443239301443,-0.006255765445530415
1767708911673686800,8.997686767578125,0.002528405049815774,0.0020210728980600834,-0.009344765916466713
1767708911683688000,9.00768798828125,0.0038149782922118902,0.006113019771873951,-0.005855492316186428
1767708911693687800,9.017687744140625,0.004590490832924843,0.005125519819557667,-0.009687514975667
1767708911703688000,9.02768798828125,0.002968092914670706,0.0065255435183644295,-0.009411611594259739
1767708911713687800,9.037687744140625,0.0014229270163923502,-0.004014182835817337,-0.007837416604161263
1767708911723689000,9.04768896484375,0.0012756541837006807,-0.008547947742044926,-0.010603642091155052
1767708911733688800,9.057688720703124,0.00441019469872117,-0.0054456316865980625,-0.02214391715824604
1767708911743688700,9.067688720703124,0.0038988678716123104,-0.006070942152291536,-0.024877386167645454
1767708911753689900,9.07768994140625,0.005185441114008427,-0.014507836662232876,-0.026379942893981934
1767708911763689700,9.087689697265626,0.0054365769028663635,-0.016872189939022064,-0.024327710270881653
1767708911773689900,9.09768994140625,0.006371879018843174,-0.017598435282707214,-0.019230153411626816
1767708911783689700,9.107689697265625,0.00592420157045126,-0.018483668565750122,-0.010426808148622513
1767708911793691000,9.11769091796875,0.005422462243586779,-0.017247164621949196,-0.0037803570739924908
1767708911803691000,9.12769091796875,0.005146026145666838,-0.016031431034207344,-0.0021552962716668844
1767708911813691000,9.13769091796875,0.0048738508485257626,-0.012301141396164894,-0.008791361004114151
1767708911823691000,9.14769091796875,0.003606186481192708,-0.007786816451698542,-0.007987885735929012
1767708911833692000,9.15769189453125,0.001216531964018941,-0.0006934871198609471,-0.009346097707748413
1767708911843691800,9.16769189453125,0.0005187837523408234,0.006735400762408972,-0.005169195588678122
1767708911853692000,9.17769189453125,0.001148355077020824,0.004008323885500431,-0.0008474178612232208
1767708911863691800,9.18769189453125,0.000969923275988549,0.006974020041525364,-0.003085272153839469
1767708911873692700,9.197692626953126,0.00011078749957960099,0.009839048609137535,-0.0027238810434937477
1767708911883692800,9.20769287109375,-0.0007371630053967237,0.008806274272501469,-0.003949734382331371
1767708911893692700,9.217692626953125,0.00017097493400797248,0.010448645800352097,0.0008727178792469203
1767708911903693800,9.22769384765625,0.00048123320448212326,0.012587963603436947,0.0038450718857347965
1767708911913694000,9.23769384765625,0.00011345066013745964,0.01185080036520958,-0.00021278657368384302
1767708911923693800,9.24769384765625,0.00013022858183830976,0.011204984039068222,-0.0004394215648062527
1767708911933694000,9.25769384765625,0.001972337020561099,0.013748835772275925,-0.004262122791260481
1767708911943694800,9.26769482421875,0.0007387608638964593,0.020539363846182823,-0.003549461020156741
1767708911953694700,9.27769482421875,0.0036618465092033148,0.02539324015378952,0.000045806369598722085
1767708911963694800,9.28769482421875,0.00370072852820158,0.024158332496881485,0.0020519655663520098
1767708911973694700,9.29769482421875,0.0012929646763950586,0.014780810102820396,0.0032498554792255163
1767708911983696000,9.30769580078125,-0.0008910936885513365,0.003621100215241313,0.0017651431262493134
1767708911993695700,9.31769580078125,-0.006475742440670729,0.0033601103350520134,-0.0013720606220886111
1767708912003695600,9.327695556640625,-0.00990323070436716,0.005600095260888338,-0.004056793171912432
1767708912013695700,9.33769580078125,-0.011009241454303265,0.014508103020489216,-0.002501773415133357
1767708912023697000,9.34769677734375,-0.011416705325245857,0.011867311783134937,-0.0022130869328975677
1767708912033696800,9.35769677734375,-0.008833172731101513,0.00726483715698123,0.0015869776252657175
1767708912043697000,9.36769677734375,-0.005583050660789013,0.005330583080649376,0.006759102921932936
1767708912053697800,9.37769775390625,-0.003471164032816887,0.0035393410362303257,0.007814247161149979
1767708912063698000,9.387697998046875,-0.0032168321777135134,0.0017755294684320688,0.004584631882607937
1767708912073697800,9.39769775390625,-0.0021489046048372984,0.0027949875220656395,-0.0014977618120610714
1767708912083698000,9.407697998046874,-0.0023587618488818407,0.00509782275184989,-0.003564907470718026
1767708912093698800,9.41769873046875,-0.004804076161235571,0.007586546707898378,-0.00640916358679533
1767708912103698700,9.42769873046875,-0.0049252500757575035,0.012618057429790497,-0.004248274490237236
1767708912113698800,9.43769873046875,-0.0025984463281929493,0.01582237333059311,-0.0018154769204556942
1767708912123698700,9.44769873046875,-0.0016077503096312284,0.02076147124171257,-0.00803209375590086
1767708912133699800,9.457699951171875,-0.004323109518736601,-0.001748897833749652,0.0007984156836755574
1767708912143700000,9.467699951171875,-0.00498064374551177,0.0041465419344604015,0.004311923868954182
1767708912153699800,9.477699951171875,-0.0036551884841173887,0.010348244570195675,0.002071140334010124
1767708912163700000,9.487699951171875,-0.0024085629265755415,0.016568856313824654,-0.00036618465674109757
1767708912173700900,9.497700927734375,0.00007723167072981596,0.026982881128787994,-0.001966744428500533
1767708912183700700,9.50770068359375,0.0012173309223726392,0.024996962398290634,0.0024168186355382204
1767708912193700900,9.517700927734374,-0.0001651159836910665,0.021928735077381134,0.0022479742765426636
1767708912203701800,9.52770166015625,0.0011528824688866735,0.017796041443943977,0.001026115962304175
1767708912213701600,9.53770166015625,0.0015877765836194158,0.013393836095929146,-0.0011147991754114628
1767708912223701800,9.54770166015625,0.004997421521693468,0.0029406624380499125,0.007169762160629034
1767708912233701600,9.55770166015625,-0.002511360915377736,0.012629508972167969,0.011946141719818115
1767708912243702800,9.567702880859375,0.00014327807002700865,0.01624208688735962,0.004474376793950796
1767708912253703000,9.577702880859375,0.00152359448838979,0.02106613665819168,0.004066380672156811
1767708912263702800,9.587702880859375,0.003614708548411727,0.017367005348205566,0.0073623089119791985
1767708912273703000,9.597702880859375,0.007475226651877165,0.018753448501229286,0.012896090745925903
1767708912283703800,9.607703857421875,0.007998538203537464,0.01305454969406128,0.015447932295501232
1767708912293703700,9.61770361328125,0.010262224823236465,0.00691995769739151,0.011246263049542904
1767708912303703800,9.627703857421874,0.008619320578873158,0.01179247722029686,0.009194031357765198
1767708912313704700,9.63770458984375,0.007249923422932625,0.018642393872141838,0.00600436283275485
1767708912323704800,9.647704833984376,0.0051777176558971405,0.024152474477887154,0.0035422705113887787
1767708912333704700,9.65770458984375,0.0046328348107635975,0.023253390565514565,0.0013936321483924985
1767708912343704600,9.66770458984375,0.0037910097744315863,0.0198016669601202,-0.0003531351685523987
1767708912353704400,9.677704345703125,0.003379551460966468,0.014549647457897663,0.0015760586829856038
1767708912363704600,9.68770458984375,0.0046160570345819,0.015929166227579117,0.0030533140525221825
1767708912373704700,9.69770458984375,0.005948969163000584,0.017652230337262154,0.0011406318517401814
1767708912383704600,9.70770458984375,0.0032589102629572153,0.01823333278298378,0.0010751180816441774
1767708912393705700,9.717705810546875,0.004476773552596569,0.017411481589078903,-0.002226136391982436
1767708912403705600,9.72770556640625,0.0023616913240402937,0.016143282875418663,-0.0024833977222442627
1767708912413705500,9.73770556640625,0.0026109630707651377,0.018981413915753365,-0.005501025356352329
1767708912423705600,9.74770556640625,0.0005560680292546749,0.01660534180700779,-0.007378287613391876
1767708912433706500,9.75770654296875,-0.000467118457891047,0.016162991523742676,-0.006338589824736118
1767708912443706600,9.76770654296875,-0.0011970909545198083,0.017854364588856697,-0.00227806787006557
1767708912453706500,9.77770654296875,-0.0008748483960516751,0.018459169194102287,0.004811000544577837
1767708912463707400,9.787707275390625,0.00007936220208648592,0.018728414550423622,0.010701379738748074
1767708912473707800,9.797707763671875,0.0018277274211868644,0.017353422939777374,0.010180998593568802
1767708912483707600,9.807707763671875,0.0017411747248843312,0.01690894179046154,0.0052325790748000145
1767708912493707800,9.817707763671875,0.0008769789128564298,0.011781824752688408,-0.004714594222605228
1767708912503708700,9.827708740234375,0.0019491675775498152,-0.0009925601771101356,-0.009898170828819275
1767708912513708500,9.83770849609375,0.0017438378417864442,-0.00421418622136116,-0.010336526669561863
1767708912523708700,9.847708740234374,0.0006609965930692852,-0.0020788635592907667,-0.012839099392294884
1767708912533708500,9.85770849609375,-0.0009259810904040933,0.002201635157689452,-0.013549364171922207
1767708912543709400,9.86770947265625,0.0020125508308410645,0.007655256427824497,-0.011859589256346226
1767708912553709600,9.87770947265625,0.002383529208600521,0.006350839976221323,-0.012957876548171043
1767708912563709400,9.88770947265625,0.001990180229768157,0.018383001908659935,-0.012555738911032677
1767708912573710600,9.897710693359375,0.0010282464791089296,0.026806579902768135,-0.011811652220785618
1767708912583710700,9.907710693359375,0.00239205127581954,0.02774667553603649,-0.0028607675340026617
1767708912593710600,9.917710693359375,0.004622448701411486,0.018064487725496292,0.00398728484287858
1767708912603710700,9.927710693359375,0.0025153555907309055,0.014484932646155357,0.004562527406960726
1767708912613711600,9.937711669921875,-0.0029385320376604795,0.014678810723125935,-0.0026285399217158556
1767708912623711500,9.94771142578125,-0.007282680366188288,0.016096411272883415,-0.00812344066798687
1767708912633711600,9.957711669921874,-0.009041964076459408,0.01739763282239437,-0.005646700505167246
1767708912643711500,9.96771142578125,-0.00956793874502182,0.01733504794538021,-0.0020777983590960503
1767708912653712400,9.97771240234375,-0.00920361839234829,0.014366156421601772,-0.0038541266694664955
1767708912663712500,9.98771240234375,-0.008491755463182926,0.012022308073937893,-0.006678408943116665
1767708912673712400,9.99771240234375,-0.007358047645539045,0.007428355049341917,-0.008227836340665817
1767708912683712500,10.00771240234375,-0.0065567027777433395,0.016709737479686737,-0.003763046581298113
1767708912693713700,10.017713623046875,-0.007361776195466518,0.02215217426419258,-0.003100185887888074
1767708912703713500,10.027713623046875,-0.008728244341909885,0.027028953656554222,0.0007986819837242365
1767708912713713700,10.037713623046875,-0.009674998000264168,0.028600485995411873,0.0052048820070922375
1767708912723714600,10.047714599609375,-0.008249407634139061,0.03007933869957924,0.010666492395102978
1767708912733714700,10.057714599609374,-0.0062576294876635075,0.03370150551199913,0.013324061408638954
1767708912743714600,10.067714599609374,-0.0035960664972662926,0.028863605111837387,0.01501170638948679
1767708912753714700,10.077714599609376,-0.0015949672088027,0.01792120933532715,0.012442555278539658
1767708912763715600,10.087715576171876,0.0010961571242660284,0.014521684497594833,0.0033156354911625385
1767708912773715500,10.097715576171876,0.003355849301442504,0.016748353838920593,-0.0049135321751236916
1767708912783715600,10.107715576171875,0.0026109630707651377,0.015469769947230816,-0.00794287770986557
1767708912793715500,10.117715576171875,0.0017504957504570484,0.011202054098248482,-0.016885239630937576
1767708912803716600,10.127716552734375,0.0001704423048067838,0.006804642733186483,-0.018140388652682304
1767708912813716700,10.137716796875,-0.0022865901701152325,0.011056912131607533,-0.020426178351044655
1767708912823716600,10.147716552734375,-0.001433845958672464,0.0205159280449152,-0.023139940574765205
1767708912833717500,10.157717529296875,-0.003935352899134159,0.01854172721505165,-0.018140388652682304
1767708912843717600,10.167717529296874,-0.002679938916116953,0.026379942893981934,-0.01997637189924717
1767708912853717500,10.177717529296874,-0.0013432984706014395,0.02322143316268921,-0.0177552942186594
1767708912863717600,10.187717529296876,0.0009094694978557527,0.022236064076423645,-0.004710599314421415
1767708912873718500,10.197718505859376,-0.0014152037911117077,0.023782560601830482,-0.001639441936276853
1767708912883718400,10.207718505859376,0.0014895059866830707,0.03792740777134895,0.007006510626524687
1767708912893718500,10.217718505859375,-0.003724697045981884,0.03188655897974968,0.0052381716668605804
1767708912903718400,10.227718505859375,0.0010452907299622893,0.02491893246769905,0.00691969133913517
1767708912913719600,10.237719482421875,-0.0013936321483924985,0.021072793751955032,0.005905826110392809
1767708912923719700,10.2477197265625,-0.00007430219557136297,0.008700813166797161,0.00475320965051651
1767708912933719600,10.257719482421875,-0.000716922979336232,0.00872211903333664,0.0025276062078773975
1767708912943720700,10.267720703125,-0.0023177489638328552,0.006870955694466829,-0.0032354744616895914
1767708912953720600,10.277720458984374,-0.012174907140433788,-0.004257062915712595,0.001407214323990047
1767708912963720400,10.287720458984374,-0.009946640580892563,-0.0067484499886631966,0.0019917781464755535
1767708912973720600,10.297720458984376,-0.013718475587666035,0.00038456046604551375,0.0008013451588340104
1767708912983721500,10.307721435546876,-0.009307747706770897,-0.0020032296888530254,0.005577990785241127
1767708912993721600,10.3177216796875,-0.00806458480656147,-0.001984054921194911,0.011831891722977161
1767708913003721500,10.327721435546875,-0.0054765245877206326,-0.004518851637840271,0.012553076259791851
1767708913013721300,10.337721435546875,-0.0052442969754338264,-0.001796834752894938,0.010584200732409954
1767708913023722800,10.34772265625,-0.004926315508782864,0.000441818410763517,0.012211658991873264
1767708913033722600,10.35772265625,-0.0025981799699366093,-0.002514290390536189,0.013917679898440838
1767708913043722800,10.36772265625,-0.0035332157276570797,0.001856223214417696,0.016082562506198883
1767708913053722600,10.37772265625,-0.0008764463127590716,0.007865912280976772,0.012528575025498867
1767708913063723500,10.3877236328125,-0.004277036525309086,0.0124220484867692,0.004997687879949808
1767708913073723600,10.3977236328125,-0.007005711551755667,0.019876236096024513,0.000461259507574141
1767708913083723500,10.4077236328125,-0.0031997880432754755,0.02695891261100769,-0.010441722348332405
1767708913093724400,10.417724365234376,-0.006489857099950314,0.02364674024283886,-0.014275874942541122
1767708913103724500,10.427724609375,-0.00580782163888216,0.018063688650727272,-0.006721019744873047
1767708913113724400,10.437724365234375,-0.004381965380162001,0.009181514382362366,0.003032541600987315
1767708913123724500,10.447724609375,-0.003695135936141014,0.009137571789324284,0.0014567491598427296
1767708913133725700,10.4577255859375,0.0016018913593143225,0.008845956064760685,-0.003528155852109194
1767708913143725600,10.4677255859375,0.003500725142657757,0.01734064146876335,-0.0037851508241146803
1767708913153725700,10.4777255859375,0.0023811322171241045,0.024563666433095932,-0.0008367652189917862
1767708913163726600,10.4877265625,0.0003406183095648885,0.04195943474769592,-0.008955145254731178
1767708913173726500,10.4977265625,0.0003741741238627583,0.04640611261129379,-0.012710468843579292
1767708913183726600,10.5077265625,-0.0015065502375364304,0.046976298093795776,-0.009224923327565193
1767708913193726500,10.5177265625,-0.00041492050513625145,0.046117961406707764,-0.009856625460088253
1767708913203727400,10.527727294921876,0.002947586588561535,0.04470568522810936,-0.010840130969882011
1767708913213727500,10.5377275390625,-0.0003992078418377787,0.029023662209510803,-0.011797270737588406
1767708913223727400,10.547727294921875,-0.0013379721203818917,0.014200507663190365,-0.008762865327298641
1767708913233727500,10.5577275390625,-0.0013435647124424577,0.0062544336542487144,-0.0054450989700853825
1767708913243728600,10.567728759765625,-0.0035028557758778334,0.0000250337143370416,0.0021369203459471464
1767708913253728500,10.577728515625,-0.0037800907157361507,0.003400324145331979,-0.007325024344027042
1767708913263728600,10.587728759765625,-0.003242398612201214,0.004596882499754429,-0.004228300880640745
1767708913273729500,10.5977294921875,-0.0006652576266787946,0.002228266792371869,-0.006958040874451399
1767708913283729700,10.607729736328125,0.0013606089632958174,0.0040975394658744335,-0.0188413318246603
1767708913293729500,10.6177294921875,0.006473612040281296,0.01834944635629654,-0.027716316282749176
1767708913303729400,10.6277294921875,0.010142914950847626,0.031067105010151863,-0.03930879011750221
1767708913313730600,10.63773046875,0.010819357819855213,0.04535869136452675,-0.03831329941749573
1767708913323730400,10.64773046875,0.015141136012971401,0.05528828874230385,-0.03003726154565811
1767708913333730600,10.65773046875,0.01786741428077221,0.05335323512554169,-0.034757714718580246
1767708913343730400,10.66773046875,0.017258882522583008,0.045824479311704636,-0.04038843512535095
1767708913353731600,10.677731689453125,0.014914766885340214,0.039445411413908005,-0.03166711702942848
1767708913363732200,10.687732177734375,0.016565660014748573,0.02761431783437729,-0.030462834984064102
1767708913373732000,10.697732177734375,0.01293603889644146,0.029581326991319656,-0.030044184997677803
1767708913383732000,10.70773193359375,0.010159160941839218,0.019824039191007614,-0.030908914282917976
1767708913393733000,10.717733154296875,0.008087221533060074,0.0013222594279795885,-0.022911973297595978
1767708913403733000,10.72773291015625,0.006136189214885235,-0.007819573394954205,-0.011521100997924805
1767708913413733000,10.737733154296874,0.004225371405482292,-0.008815329521894455,-0.013230318203568459
1767708913423734000,10.747734130859374,0.001466336427256465,-0.01498347707092762,-0.010428672656416893
1767708913433734100,10.757734130859374,-0.00242081331089139,-0.021679995581507683,-0.0044352286495268345
1767708913443734300,10.767734375,-0.007041131611913443,-0.02797730639576912,0.00487278588116169
1767708913453734100,10.777734130859375,-0.010274741798639297,-0.0297299325466156,0.009066198952496052
1767708913463735000,10.787735107421875,-0.011365040205419064,-0.02473464049398899,-0.00070493872044608
1767708913473735200,10.797735107421875,-0.010105897672474384,-0.012170912697911263,-0.01435150858014822
1767708913483735000,10.807735107421875,-0.010351440869271755,-0.007458981592208147,-0.024811074137687683
1767708913493736000,10.81773583984375,-0.01022653840482235,-0.010064352303743362,-0.018311096355319023
1767708913503736000,10.827736083984375,-0.008599613793194294,-0.010906443931162357,-0.004194744862616062
1767708913513736000,10.83773583984375,-0.008093879558146,-0.01314909104257822,-0.0023313311394304037
1767708913523736000,10.847736083984374,-0.008390022441744804,-0.012427108362317085,-0.00012250541476532817
1767708913533737200,10.8577373046875,-0.00911546777933836,-0.011770639568567276,0.007622765842825174
1767708913543737000,10.867737060546874,-0.011003382503986359,-0.01104359608143568,0.010238256305456161
1767708913553737200,10.8777373046875,-0.012044412083923817,-0.009796171449124813,0.006146575789898634
1767708913563737000,10.887737060546876,-0.014658304862678051,-0.013413277454674244,0.007437942549586296
1767708913573738000,10.897738037109375,-0.015409848652780056,-0.01266812440007925,0.004151069093495607
1767708913583738000,10.907738037109375,-0.014037256129086018,-0.007105047348886728,-0.006095176562666893
1767708913593738000,10.917738037109375,-0.012131497263908386,-0.004572913981974125,-0.011228952556848526
1767708913603739100,10.9277392578125,-0.011942679062485695,-0.007425159215927124,-0.005666940473020077
1767708913613739000,10.937739013671875,-0.010508300736546516,-0.008935438469052315,0.0022325278259813786
1767708913623739000,10.94773876953125,-0.008044610731303692,-0.012347480282187462,0.00577879324555397
1767708913633739000,10.957739013671874,-0.007163636852055788,-0.008389489725232124,0.0022423816844820976
1767708913643740200,10.967740234375,-0.0062826634384691715,-0.0019382486352697015,-0.004166249185800552
1767708913653740300,10.977740234375,-0.00800413079559803,0.0006689860601909459,-0.008695220574736595
1767708913663740200,10.987740234375,-0.006713029928505421,0.0002926813904196024,-0.002811499172821641
1767708913673740000,10.997739990234376,-0.006399842444807291,0.0005685848882421851,0.005650694947689772
1767708913683741200,11.0077412109375,-0.004994226153939962,0.004214984830468893,0.00660517206415534
1767708913693741000,11.017740966796875,-0.009543970227241516,0.006097307428717613,0.0029473204631358385
1767708913703741200,11.0277412109375,-0.005426457151770592,0.009153018705546856,0.0018546254141256213
1767708913713742000,11.0377421875,-0.007435013074427843,0.005285841878503561,0.006042446009814739
1767708913723742000,11.047741943359375,-0.007861118763685226,0.0010524812387302518,0.0032237565610557795
1767708913733742000,11.0577421875,-0.008050736039876938,0.0043838294222950935,0.006195844151079655
1767708913743742000,11.067741943359374,-0.006172674708068371,0.0004857605672441423,0.005967611446976662
1767708913753743000,11.0777431640625,-0.0051686628721654415,-0.00424374733120203,0.006703975144773722
1767708913763743200,11.0877431640625,0.0001030643325066194,-0.003968376200646162,0.010624414309859276
1767708913773743000,11.0977431640625,0.0027164241764694452,-0.00430100504308939,0.006108492612838745
1767708913783743200,11.1077431640625,0.003683418035507202,0.00001651159800530877,-0.0005912217311561108
1767708913793744100,11.117744140625,0.006666957400739193,0.013169864192605019,-0.005948170088231564
1767708913803744000,11.127743896484375,0.009796704165637493,0.018806977197527885,-0.007762315683066845
1767708913813744000,11.137744140625,0.0051990230567753315,0.009736782871186733,-0.011739213950932026
1767708913823745000,11.1477451171875,0.001603489276021719,0.0036719664931297302,-0.013223127461969852
1767708913833745000,11.157744873046875,-0.002951315138489008,-0.0011134676169604063,-0.01125398650765419
1767708913843745000,11.1677451171875,-0.0073327478021383286,-0.006518353242427111,-0.008359129540622234
1767708913853745000,11.177744873046874,-0.008893893100321293,-0.009497098624706268,-0.006584133021533489
1767708913863746000,11.18774609375,-0.00914476253092289,-0.009441439062356949,-0.004565456882119179
1767708913873746200,11.19774609375,-0.003952663857489824,-0.010935205966234207,0.0029856697656214237
1767708913883746000,11.20774609375,0.00021837920940015465,-0.009534116834402084,0.0071178306825459
1767708913893746200,11.21774609375,0.0031313446816056967,-0.009298427030444145,0.006083725020289421
1767708913903747000,11.2277470703125,0.005754824727773666,-0.004591555800288916,0.0037787591572850943
1767708913913747200,11.237747314453125,0.007014766335487366,-0.000601075473241508,0.0012000204296782613
1767708913923747000,11.2477470703125,0.004566255956888199,0.0009158611064776778,-0.004039482679218054
1767708913933748000,11.257748046875,0.002130262553691864,0.0041396175511181355,-0.007166832685470581
1767708913943748000,11.267748046875,0.001925199176184833,0.011187407188117504,-0.012073706835508347
1767708913953748000,11.277748046875,0.0014359764754772186,0.004039749037474394,-0.013438044115900993
1767708913963748000,11.287748046875,0.0015675366157665849,0.0036788906436413527,-0.010902182199060917
1767708913973749200,11.297749267578125,0.004126301966607571,0.0027081684675067663,-0.012493154965341091
1767708913983749000,11.3077490234375,0.004865861497819424,-0.004760134033858776,-0.012628976255655289
1767708913993749200,11.317749267578124,0.003768639173358679,-0.006767358630895615,-0.007546066772192717
1767708914003750100,11.327750244140624,0.0030927290208637714,-0.004163586068898439,-0.00424188282340765
1767708914013750000,11.33775,0.005784918554127216,-0.007443535141646862,-0.008814264088869095
1767708914023750100,11.347750244140625,0.003742007538676262,-0.0041220407001674175,-0.009255549870431423
1767708914033750000,11.35775,0.0028250813484191895,-0.0006815029191784561,-0.011464109644293785
1767708914043751000,11.3677509765625,0.0011046791914850473,0.002710299100726843,-0.013126987032592297
1767708914053751000,11.3777509765625,-0.0010311759542673826,0.003581951605156064,-0.013209811411798
1767708914063751000,11.3877509765625,-0.0009643306257203221,0.008155664429068565,-0.007044593803584576
1767708914073751000,11.3977509765625,-0.0035835495218634605,0.008729576133191586,-0.007419832982122898
1767708914083752200,11.407752197265625,-0.00529489666223526,0.011005779728293419,-0.00854581780731678
1767708914093752000,11.417751953125,-0.0020775320008397102,0.011786085553467274,-0.008831308223307133
1767708914103752200,11.427752197265624,-0.0004958806093782187,0.01091842819005251,-0.009682188741862774
1767708914113753000,11.437753173828124,0.002826146548613906,0.007339139468967915,-0.007069360930472612
1767708914123753000,11.4477529296875,0.004709533881396055,0.00387276872061193,-0.0014024205738678575
1767708914133753000,11.457753173828126,0.004895688965916634,-0.0015345134306699038,-0.00042450788896530867
1767708914143753000,11.4677529296875,0.002578738844022155,-0.0008074704091995955,-0.004585164599120617
1767708914153754000,11.477754150390625,-0.0009685916593298316,0.0036967338528484106,-0.0067961206659674644
1767708914163754000,11.48775390625,-0.0017539578257128596,0.003108175238594413,-0.006578540429472923
1767708914173753900,11.49775390625,0.0005193164106458426,0.005507150664925575,-0.005341236013919115
1767708914183754000,11.50775390625,-0.0011646003695204854,0.012400743551552296,-0.004869057331234217
1767708914193755100,11.517755126953125,0.0007068029372021556,0.010601511225104332,-0.001979261403903365
1767708914203755300,11.52775537109375,-0.0008972189389169216,0.010704576037824154,-0.0031726236920803785
1767708914213755100,11.537755126953124,-0.0011491540353745222,0.007046990562230349,-0.008154066279530525
1767708914223756000,11.547756103515624,-0.0004090615548193455,0.000031957933970261365,-0.01038419734686613
1767708914233756200,11.557756103515626,0.0013821806060150266,-0.001249555149115622,-0.01124919205904007
1767708914243756000,11.567756103515626,0.002080195117741823,0.002439455594867468,-0.011902199126780033
1767708914253756200,11.577756103515625,0.002240783767774701,0.003837615018710494,-0.009284045547246933
1767708914263757000,11.587757080078125,0.0030506509356200695,0.006330600008368492,-0.007475493010133505
1767708914273757000,11.5977568359375,0.0017659420846030116,0.010785535909235477,-0.007756190374493599
1767708914283757000,11.607757080078125,0.001996039180085063,0.01281885989010334,-0.008155930787324905
1767708914293758200,11.61775830078125,-0.001017061178572476,0.01293151080608368,-0.007167099043726921
1767708914303758000,11.627758056640625,-0.0031667647417634726,0.009769273921847343,-0.008584699593484402
1767708914313758200,11.63775830078125,-0.004750014282763004,0.009938384406268597,-0.0084877610206604
1767708914323758000,11.647758056640624,-0.006156429648399353,0.009291502647101879,-0.004168912302702665
1767708914333759000,11.657759033203124,-0.006098106037825346,0.009003082290291786,-0.006103698629885912
1767708914343759000,11.667759033203126,-0.008285626769065857,0.010941597633063793,-0.008519452065229416
1767708914353759000,11.677759033203126,-0.009371397085487843,0.014637532643973827,-0.0019387812353670597
1767708914363758600,11.687758544921875,-0.005025917664170265,0.019047992303967476,0.002727875951677561
1767708914373759500,11.697759521484375,-0.005101817660033703,0.006299973931163549,0.0016873788554221392
1767708914383759600,11.707759521484375,-0.004573978949338198,0.008537028916180134,-0.004532699938863516
1767708914393759500,11.717759521484375,-0.002412557601928711,0.024042751640081406,-0.012899819761514664
1767708914403760600,11.7277607421875,0.00041998049709945917,0.02413303218781948,-0.011226022616028786
1767708914413760800,11.7377607421875,-0.002513491315767169,0.01913747563958168,-0.002779008587822318
1767708914423760600,11.7477607421875,-0.0035633095540106297,0.01477788109332323,-0.007756456732749939
1767708914433760800,11.7577607421875,-0.003608316881582141,0.0031374699901789427,-0.018263159319758415
1767708914443761700,11.76776171875,-0.007093595806509256,-0.000245543458731845,-0.014725948683917522
1767708914453761500,11.777761474609376,-0.009766077622771263,0.0014365090755745769,-0.008547681383788586
1767708914463761700,11.78776171875,-0.010478206910192966,0.003195793367922306,-0.003186472225934267
1767708914473761500,11.797761474609375,-0.011365572921931744,0.009958624839782715,0.0022447784431278706
1767708914483762400,11.807762451171875,-0.008922921493649483,0.013714213855564594,0.012495552189648151
1767708914493762600,11.817762451171875,-0.006462959107011557,0.011707521975040436,0.018924422562122345
1767708914503762700,11.8277626953125,-0.0049553439021110535,0.0052171326242387295,0.013538978062570095
1767708914513763600,11.837763671875,-0.003943609073758125,0.003946538548916578,0.012484099715948105
1767708914523763700,11.847763671875,-0.0022120214998722076,0.0025995115283876657,0.012478240765631199
