time,seconds_elapsed,z,y,x
1768416543824580600,0.07458056640625,0.048337658722139895,0.025738252368569373,-0.004742865411844105
1768416543834582500,0.08458251953125,0.0630249037116766,0.015891981136798856,-0.0038973910310305653
1768416543844583400,0.09458349609375,0.06598258447349072,-0.0033779520004987716,-0.008088193784374743
1768416543854585600,0.104585693359375,0.03445814991891384,-0.023232407027482985,-0.00569640327701345
1768416543864587500,0.11458740234375,0.018158683959767222,-0.026461305946111676,0.020356486264988777
1768416543874588400,0.12458837890625,0.0058796326231211424,-0.032976386928558345,0.021593480714038014
1768416543884590600,0.134590576171875,0.007146949145197868,-0.033055297383666034,0.021743958568014202
1768416543894591500,0.144591552734375,0.010765139642357825,-0.025635376515984534,0.03311944866105914
1768416543904593400,0.154593505859375,0.011440883479453623,-0.02074877351820469,0.026676391735207288
1768416543914595600,0.164595703125,0.01238550738580525,-0.004793079495429993,0.027703268831223246
1768416543924596500,0.174596435546875,0.03102068628352135,-0.027452070549130438,0.0400469463692978
1768416543934598700,0.1845986328125,0.03087221772354096,-0.03890051628053188,0.05351425764244049
1768416543944599600,0.194599609375,0.0011468319475650788,-0.025061960542201993,0.059419883223343635
1768416543954601500,0.2046015625,-0.015530162087082862,-0.008981763356924057,0.06909083442082628
1768416543964603600,0.214603759765625,-0.013260463589429854,-0.01371639066338539,0.05616205047117546
1768416543974604500,0.2246044921875,-0.024962591820955275,-0.0010801964521408081,0.055649625703319903
1768416543984606500,0.2346064453125,-0.04701901387162506,-0.00803133076429367,0.0659760634011589
1768416543994607600,0.244607666015625,-0.0708727676678449,-0.011831892091035842,0.05069865223243832
1768416544004609500,0.254609619140625,-0.06449322269856929,-0.0279155964076519,0.03902492811148986
1768416544014611500,0.264611572265625,-0.037188451665639874,-0.03534603866934776,0.0033538404725491997
1768416544024612600,0.274612548828125,-0.02060330063290894,-0.004023848688602448,-0.009500069876294582
1768416544034614500,0.284614501953125,-0.04493519333489239,0.034061844077706335,-0.020842534482572228
1768416544044615400,0.294615478515625,-0.06495324142575264,0.05691372735500335,-0.011137297422997653
1768416544054617600,0.30461767578125,-0.0639140345711261,0.021267244434356687,0.010128978896979241
1768416544064619500,0.31461962890625,-0.04575571593753993,-0.026651860082149505,0.006029799949843436
1768416544074620400,0.324620361328125,-0.025765140375494957,-0.044513095465302466,0.0018250600026920437
1768416544084622600,0.33462255859375,-0.019431845700740812,-0.052990416431427,0.028804873397573826
1768416544094623500,0.34462353515625,0.00959375777542591,-0.05628478180170059,0.041559798617660994
1768416544104625400,0.35462548828125,-0.012150529586151242,-0.03925532106757164,0.01860721317855641
1768416544114627600,0.364627685546875,-0.009277458367869258,-0.039432431200146674,0.01821233210945502
1768416544124628500,0.37462841796875,-0.020281740528345107,0.0024456395864486695,0.029615641791187225
1768416544134630700,0.384630615234375,0.004732873740792274,0.021721417942643165,0.03567086844323203
1768416544144631600,0.394631591796875,-0.0018014233987778425,0.03082125472128391,0.05679959945604205
1768416544154633500,0.404633544921875,-0.004872501407191157,-0.00781739575266838,0.04027922075521201
1768416544164635600,0.4146357421875,-0.0019213234513998031,-0.008002104669809341,0.03979709979407489
1768416544174636500,0.424636474609375,-0.0227612823843956,-0.037813305565714835,0.030424382624495774
1768416544184638500,0.434638427734375,-0.014144845208525656,-0.029306173983216284,0.028084760695789007
1768416544194639600,0.4446396484375,0.004224997283890843,-0.03245207079350948,0.013171616262197493
1768416544204641500,0.4546416015625,0.01817979981303215,-0.004617722928524017,-0.00011968085691332816
1768416544214643500,0.4646435546875,0.024381650127843022,-0.007139934882521629,0.0034674203822389242
1768416544224644600,0.47464453125,0.016907368724420665,0.007262099957466125,-0.017581797387264668
1768416544234646500,0.484646484375,0.026465324534103274,-0.006008885025978088,-0.01269865585505031
1768416544244647400,0.4946474609375,0.03446640629060566,0.008107903131842613,-0.010773670008685439
1768416544254649600,0.504649658203125,0.04239887979030609,0.023425883772969246,-0.009902029140153899
1768416544264651800,0.51465185546875,0.04982347683310508,-0.011979776129126547,-0.013483047698391601
1768416544274652700,0.524652587890625,0.05186813440322876,-0.021952304089069365,-0.009079488110356032
1768416544284654600,0.534654541015625,0.031626725885272024,-0.022039397850632667,-0.009595849267812446
1768416544294655700,0.54465576171875,-0.0041512744605541226,-0.002964695024490356,-0.009906933644134551
1768416544304657700,0.55465771484375,-0.0029318887334316966,-0.0030360066950321195,-0.010705536675918847
1768416544314659600,0.56465966796875,-0.0013842209000140427,0.010674538749456406,-0.032295318462373684
1768416544324660700,0.57466064453125,0.004823474633693695,-0.011677578312158585,-0.04267987955561839
1768416544334662700,0.58466259765625,0.004301423520967364,-0.0012725041538476944,-0.029015584405651315
1768416544344663600,0.59466357421875,0.003030088410899043,-0.00044774376749992365,-0.03364501603827812
1768416544354665700,0.604665771484375,0.004163622485473752,-0.0005225625693798065,-0.03385076774344779
1768416544364667600,0.614667724609375,0.004016834425926208,-0.009731120419502257,-0.041759467641916126
1768416544374668500,0.62466845703125,0.0003086275577545166,-0.021944120782613753,-0.05660717302332632
1768416544384670700,0.634670654296875,-0.03536941954493522,-0.03251403011381626,-0.03292654730430804
1768416544394671600,0.644671630859375,-0.03889576704017818,-0.025876784056425094,-0.036771386164193974
1768416544404673800,0.654673828125,-0.039326632738113404,-0.03242635183036327,-0.04580958328293636
1768416544414675700,0.66467578125,-0.042229879898950454,-0.030891981869935987,-0.05260686047393828
1768416544424676600,0.674676513671875,-0.04801387012787163,-0.026202947270870205,-0.06432067001010291
1768416544434678800,0.6846787109375,-0.03994038072228431,-0.018496610677242276,-0.06907251331284642
1768416544444679700,0.6946796875,-0.01408295895345509,-0.0028606501281261444,-0.05050568694360554
1768416544454681600,0.704681640625,0.011542553755640983,0.017268530187010765,-0.03346798810409382
1768416544464683800,0.714683837890625,0.02383556055240333,0.029179917255043982,-0.023223456536047158
1768416544474684700,0.7246845703125,0.019084639698266983,0.013118424770236014,-0.019077250976255164
1768416544484686600,0.7346865234375,0.012726283647492528,0.012017770051956176,-0.007906681471318006
1768416544494687700,0.744687744140625,0.0036374797195196148,-0.0015127426505088806,-0.00811797700128518
1768416544504689700,0.754689697265625,-0.007520458632707595,-0.004580898049473763,-0.012424953480204566
1768416544514691600,0.764691650390625,-0.02878821452371776,-0.001218143618106842,0.016438728299364446
1768416544524692700,0.774692626953125,-0.019639862428233026,-0.013117840248346328,0.009898732071369886
1768416544534694700,0.784694580078125,-0.03264737416990101,-0.028467969593405723,0.048124463496031236
1768416544544695600,0.794695556640625,-0.03269289381206036,-0.021517419803142545,0.05928410974815487
1768416544554697700,0.80469775390625,-0.02111176161170006,-0.02339431959092617,0.05394255692395381
1768416544564699600,0.81469970703125,-0.02623692260570824,-0.009554594808816909,0.061524399488233024
1768416544574700500,0.824700439453125,-0.04161035976111889,0.015823592075705526,0.022953206493612377
1768416544584702700,0.83470263671875,-0.03730528297834098,0.01696457880437374,0.020012038475181907
1768416544594703600,0.84470361328125,-0.042048751178383824,-0.00030512042641639707,0.01257502034222707
1768416544604705800,0.854705810546875,-0.04041267440915108,-0.029998832422494886,0.01937157601402141
1768416544614707700,0.864707763671875,-0.03461363274157047,-0.030358897906541824,0.01695466933171265
1768416544624708600,0.87470849609375,-0.043004517533257604,-0.03504851702749729,0.01228343525081873
1768416544634710800,0.884710693359375,-0.027541502398252486,-0.048718145939707753,0.00981575736249797
1768416544644711700,0.894711669921875,-0.036759997120499606,-0.04071604126989841,0.0043066294190473855
1768416544654713600,0.904713623046875,-0.03156768917441368,-0.0014548749834299086,0.0044388318308163435
1768416544664715800,0.9147158203125,-0.030339608684182166,-0.0015454758763313293,0.004569326342688873
1768416544674716700,0.924716552734375,-0.01433598386645317,-0.000015197569131851195,0.02367756611225195
1768416544684718600,0.934718505859375,-0.030886136651039123,0.0007744915038347244,0.022617289070133117
1768416544694719700,0.9447197265625,-0.06727145524024963,0.013424714240431785,0.0000035253976471722126
1768416544704721700,0.9547216796875,-0.042484804508090016,-0.009514262798428534,0.01156757859904319
1768416544714723600,0.9647236328125,-0.0003765051621943712,-0.028998130947351455,0.04327428351850249
1768416544724724700,0.974724853515625,0.029372882543876766,-0.02799801399409771,0.0047741464660968624
1768416544734726700,0.9847265625,0.008908113598823547,-0.016388824743032455,-0.008298685596743597
1768416544744727600,0.9947275390625,-0.027278979004547,0.02305529689490795,-0.009977213268214836
1768416544754729700,1.004729736328125,-0.05645370862782001,0.03589724281132221,-0.028509653310663997
1768416544764730600,1.014730712890625,-0.03696224169433117,0.020489245799183844,-0.016563094464549795
1768416544774732500,1.024732666015625,-0.018866686098650096,-0.015866846695542336,-0.0018506602348294108
1768416544784734700,1.034734619140625,0.00558912524394691,-0.019904139387607572,0.007612603028723969
1768416544794735600,1.044735595703125,-0.0007510375630110502,-0.03381634488403797,0.026487326303357258
1768416544804737800,1.05473779296875,0.028086276799440382,-0.054946811196208,0.008500628776475786
1768416544814739700,1.06473974609375,0.021497034602239725,-0.057259179791808126,0.008194348439434543
1768416544824740600,1.07474072265625,0.02242233275361359,-0.0573211391121149,0.00780818039975129
1768416544834742800,1.08474267578125,-0.01576170582063496,-0.03102349929511547,-0.013108926289528608
1768416544844743700,1.09474365234375,-0.01780979745686054,0.012187865921854972,-0.012179728281171991
1768416544854745600,1.10474560546875,-0.020804303097724915,0.014826397731900214,-0.026550582531606776
1768416544864746800,1.114746826171875,-0.031053967498615383,0.000391045144200325,-0.03400892658038065
1768416544874748700,1.124748779296875,-0.03526303656101227,0.0025724808365106583,-0.02473852814096026
1768416544884750600,1.13475048828125,-0.020923472497984767,-0.015435469540953635,-0.0231808777696453
1768416544894751700,1.144751708984375,-0.023951295886561273,-0.02580196525454521,-0.022001504392502827
1768416544904753700,1.154753662109375,-0.005813654714822769,-0.0348258141875267,-0.01829952633571811
1768416544914754600,1.164754638671875,0.010048442740365862,-0.04849602762162685,-0.025036689103627576
1768416544924756700,1.1747568359375,0.008770750954747199,-0.03855038766860962,-0.03261037576091476
1768416544934758700,1.184758544921875,-0.012625672817230224,-0.024120880299806594,-0.02698823416335508
1768416544944759600,1.194759521484375,-0.015510288342833517,-0.015536007305979729,-0.012355422774795443
1768416544954761700,1.20476171875,0.010806640696525573,-0.003810498198866844,-0.01853607503795065
1768416544964762600,1.2147626953125,-0.0026408698976039886,0.0025222119539976117,-0.012119047602498902
1768416544974764800,1.224764892578125,-0.01760112314224243,0.01168517709672451,-0.016175885245250536
1768416544984766700,1.2347666015625,-0.002186769454553723,0.007231704819202422,-0.039237027359055356
1768416544994767600,1.244767578125,-0.002686462604999542,-0.0033422961652278898,-0.04301658243038691
1768416545004769800,1.254769775390625,-0.023586554227396844,0.003308393895626068,-0.027672709296178072
1768416545014770700,1.264770751953125,-0.0193534467022866,-0.0031990883022546767,-0.016297173537360505
1768416545024772600,1.274772705078125,-0.02094685337357223,0.007212415596842765,-0.0012816099089104681
1768416545034774800,1.28477490234375,-0.01959485424272716,-0.007949497699737549,-0.0010380652103107423
1768416545044775700,1.294775634765625,-0.011753493092581628,-0.010396890851855278,0.005927262023976072
1768416545054777600,1.304777587890625,0.01878076138086617,-0.0002986906856298446,-0.009039694956084712
1768416545064778800,1.31477880859375,0.00702726828828454,-0.009947393518686294,-0.011880334342643618
1768416545074780700,1.32478076171875,0.012964184056594967,-0.010032149192690848,-0.005124750002054497
1768416545084782600,1.334782470703125,-0.00018931202702224254,-0.017588263660669325,-0.007163178760791197
1768416545094783700,1.34478369140625,-0.015669789753481746,-0.0122650228112936,0.00694946294487454
1768416545104785700,1.35478564453125,-0.0222732066065073,-0.0024327801048755642,0.007372538061998784
1768416545114786600,1.36478662109375,-0.019943302354216576,0.002328150686621666,0.003829787421226501
1768416545124788700,1.374788818359375,-0.0213402366053313,0.017135259196162222,-0.010727995102899148
1768416545134790700,1.384790771484375,0.004828223874047398,-0.008604162216186522,0.003230853413697332
1768416545144791600,1.39479150390625,0.0028531974740326404,-0.029853870993852612,-0.0038437154818791895
1768416545154793700,1.404793701171875,0.010741831832006573,-0.027905659535527226,0.013822353522200136
1768416545164794600,1.414794677734375,0.011049217280745505,-0.027926117801666258,0.01365353629393503
1768416545174796800,1.424796875,0.022487653074786066,-0.022574819901585576,0.0036219442236702887
1768416545184798700,1.434798828125,-0.00002272328846156597,-0.026508652219176292,-0.010729976997431367
1768416545194799600,1.444799560546875,-0.017253259552642702,-0.020410335344076155,-0.008538750563468783
1768416545204801800,1.4548017578125,-0.03565766190178692,-0.008918050470948218,-0.004649323643185198
1768416545214802700,1.464802734375,-0.029921602467820045,-0.005337269374728203,0.00683399247219786
1768416545224804600,1.4748046875,-0.021706731830164788,-0.0014531214177608488,-0.016030622422508894
1768416545234806800,1.484806884765625,-0.013463877207040786,0.0015565817922353743,-0.023086660147551445
1768416545244807700,1.4948076171875,-0.01162497134208679,-0.0038169279396533962,-0.022136739011574535
1768416545254809600,1.5048095703125,-0.013712883532047271,-0.005310381367802619,-0.0060412437924649565
1768416545264810500,1.514810546875,0.004547580301761627,-0.005619593447446823,-0.007637892733607441
1768416545274812400,1.5248125,-0.010844634619355201,0.0018488427370786666,-0.0036284378965385257
1768416545284814300,1.534814453125,-0.01671082323901355,-0.001463058289885521,0.021045801969710735
1768416545294815500,1.5448154296875,-0.0032053719125688072,-0.016288871499896048,-0.0065425991770345715
1768416545304817400,1.5548173828125,-0.0032048604559153314,-0.016288286978006362,-0.0066029693284537635
1768416545314818300,1.564818359375,-0.005784355555102229,-0.022756606209278104,-0.001346701901219785
1768416545324820500,1.574820556640625,0.002541428111121058,-0.034173487758636475,-0.016557550639752297
1768416545334821400,1.5848212890625,-0.014763342433050273,-0.0318324775904417,-0.00661462323362939
1768416545344823300,1.5948232421875,-0.008078603972122072,-0.02679799055457115,-0.017657502105133605
1768416545354825500,1.604825439453125,-0.010091185903549195,-0.006327449455857276,-0.014932780715823173
1768416545364826400,1.614826416015625,-0.013761983370780944,0.010850479838252066,-0.011938886996312067
1768416545374828300,1.624828369140625,-0.0015775515150278805,0.0163607676923275,-0.02687604249315336
1768416545384829400,1.634829345703125,0.0032424159873276947,0.013652093255519866,-0.021552664646459743
1768416545394831400,1.644831298828125,-0.002848886625096202,-0.013597148197889328,-0.004891534901224077
1768416545404833500,1.65483349609375,-0.00009235445857048034,-0.00971533832848072,-0.003147312449244782
1768416545414834400,1.66483447265625,-0.005887888994812965,-0.01752571981847286,0.013529462389694526
1768416545424836400,1.67483642578125,-0.0015530746608972549,-0.009624152913689612,0.017730914401216432
1768416545434837200,1.684837158203125,0.013674305087327957,0.00036415713727474213,0.0211508697793819
1768416545444839400,1.69483935546875,0.028081089167669413,-0.007313537883758545,-0.0011767247623298317
1768416545454841300,1.70484130859375,0.01351305011101067,0.009556932896375655,-0.0079250482450705
1768416545464842500,1.714842529296875,-0.008788213546201587,-0.017120646148920057,-0.01694041247749701
1768416545474844400,1.724844482421875,-0.02699329393096268,-0.010109306082129477,-0.028646860691113395
1768416545484845300,1.73484521484375,-0.03232756763100624,-0.0014274024546146393,-0.012311145241651684
1768416545494847500,1.744847412109375,-0.016734277179837227,-0.01159632976949215,-0.0034168501056265083
1768416545504849400,1.754849365234375,0.008366773263737559,-0.01084989531636238,0.015405211400007827
1768416545514850300,1.764850341796875,0.0499802017647773,-0.029583821880817412,0.0036650344467256215
1768416545524852500,1.7748525390625,-0.0169190591622144,0.016785715106129646,-0.019664202285045757
1768416545534853400,1.784853271484375,-0.03706804015636444,0.027872341787815093,-0.0023114735464565455
1768416545544855300,1.794855224609375,-0.049740986181423065,-0.0003612345278263092,0.014808241020701825
1768416545554857500,1.804857421875,-0.006147489779070019,-0.03336977016031742,0.014477474696375428
1768416545564858400,1.8148583984375,0.02018354085087776,-0.03674538407325744,0.018936162005132064
1768416545574860500,1.824860595703125,0.009707812609151005,-0.028161095601320265,0.01310741931903176
1768416545584861400,1.834861328125,0.03499291438274085,-0.01631809759438038,0.020411668784637002
1768416545594863400,1.84486328125,0.004787891863659024,-0.013790624943375587,0.026607189823361112
1768416545604865500,1.854865478515625,-0.05065525148212909,0.011948211947083473,0.04012487044371664
1768416545614866400,1.864866455078125,-0.04663374088108539,0.009605448213219642,0.037633108426909895
1768416545624868400,1.874868408203125,-0.03435176693499088,-0.01337912153303623,0.03951149691888131
1768416545634869200,1.884869140625,0.003294292305037379,-0.012425766330957412,0.031237151178950442
1768416545644871400,1.894871337890625,0.014425342650339007,0.005279986229538917,0.025833931295387445
1768416545654872300,1.904872314453125,-0.019001053068041802,-0.0008078092515468597,0.006574026361759752
1768416545664874500,1.91487451171875,-0.019929931415989994,-0.0007405892342329024,0.006776088272500783
1768416545674876400,1.92487646484375,-0.002055252029374242,-0.0023158757269382477,0.001956887955125421
1768416545684877300,1.934877197265625,-0.004693710774183273,-0.010487491744756699,-0.010823162573063745
1768416545694879500,1.94487939453125,-0.02148928968720138,-0.013853168785572051,-0.011718942369008436
1768416545704880400,1.95488037109375,-0.013403598387166857,-0.020205168160796164,-0.014803811440756544
1768416545714882300,1.96488232421875,0.0068932666450738905,-0.00859422534406185,-0.001093366460967809
1768416545724884500,1.974884521484375,-0.010623027757927775,-0.010590367597341537,-0.004885707948636264
1768416545734885400,1.984885498046875,-0.006171455176547169,-0.008395487901568412,-0.004163960412191227
1768416545744887300,1.99488720703125,-0.002965352611616254,0.002022445738315582,-0.013475850772624835
1768416545754888400,2.004888427734375,-0.005565305976942181,-0.0013309563428163527,0.014432850103359669
1768416545764890400,2.014890380859375,0.004320274351909756,-0.03088847473859787,0.034651288737682626
1768416545774892500,2.024892578125,0.0034341391671448944,-0.030830607071518898,0.03521470390725881
1768416545784893400,2.0348935546875,0.0237165372826159,-0.03752513627409935,0.0528309606865514
1768416545794895400,2.044895263671875,0.03909457754790783,-0.02491933720111847,0.05160846968689002
1768416545804896300,2.054896240234375,0.0141478408832103,-0.016347908210754394,0.05602202094597741
1768416545814898400,2.0648984375,-0.013872384942695498,-0.010911854636669159,0.011448792791273444
1768416545824900400,2.074900390625,-0.013048209078237413,-0.018648001846671102,-0.008287424417212605
1768416545834901500,2.084901611328125,-0.03261507933549583,-0.01156710367500782,-0.01648722534989938
1768416545844903400,2.0949033203125,-0.023232480092719197,0.010635375782847404,-0.002674169379007071
1768416545854904300,2.104904296875,-0.0197989985127002,0.03227028448581695,0.012601762218680233
1768416545864906500,2.114906494140625,-0.03506904835887253,0.04585574224591255,0.03157081271326169
1768416545874907400,2.124907470703125,-0.03202536981403827,0.015016951867938041,0.032452143858745695
1768416545884909300,2.134909423828125,-0.022921952838823197,-0.004285129973292351,0.03562401536051184
1768416545894911500,2.144911376953125,0.0019173048634082079,-0.001571194839477539,0.05007655654503032
1768416545904912400,2.154912353515625,0.002284311544895172,-0.010833528703451155,0.03817616579504683
1768416545914914300,2.164914306640625,-0.018515899899601937,-0.020253098955750466,0.02917598999859765
1768416545924915500,2.17491552734375,-0.012027122402191162,-0.029381577306985852,0.03941882279990241
1768416545934917400,2.18491748046875,-0.0008469722181558609,-0.0174368724912405,0.014806268259324133
1768416545944919300,2.194919189453125,-0.005374094253778458,-0.013146481820940971,-0.0020773542633280156
1768416545954920400,2.20492041015625,-0.006389335710927844,-0.004808277064561843,-0.01710102813299745
1768416545964922400,2.21492236328125,-0.03214220112673938,0.005949263793230056,-0.011352255347929894
1768416545974923300,2.22492333984375,-0.051091816268488764,0.0019184008419513702,-0.011702365693543106
1768416545984925400,2.234925537109375,-0.05644428321234882,-0.004941548055410385,0.004275960286147892
1768416545994927400,2.24492724609375,-0.038319428456947205,0.004679682248830795,0.011629976310767233
1768416546004928300,2.25492822265625,-0.006435512940213084,0.014613047242164612,-0.0031483079630881547
1768416546014930400,2.264930419921875,-0.02016476308517158,0.008092705562710762,-0.004416629132162779
1768416546024931300,2.274931396484375,-0.03115560124218464,-0.01069265892803669,-0.013843962565809487
1768416546034933500,2.28493359375,-0.020112302245572207,-0.033844986456632614,-0.016802319181058553
1768416546044934400,2.294934326171875,-0.005783186511322856,-0.02889993126988411,-0.008799794386141003
1768416546054936300,2.304936279296875,-0.002114727131649852,-0.03699497492015361,-0.006521108864434063
1768416546064938500,2.3149384765625,0.015077815209701657,-0.03747603643536567,-0.0033264410089701413
1768416546074939400,2.324939453125,0.006741948540881276,-0.013132453295588492,-0.00698865331094712
1768416546084941300,2.33494140625,-0.01549092605523765,-0.02320727258622646,-0.010354184221290051
1768416546094942500,2.3449423828125,-0.029963761109113692,-0.0007797522008419036,-0.00902843377655372
1768416546104944400,2.3549443359375,-0.03286890796609223,0.009572130465507507,-0.015843155292700976
1768416546114946300,2.3649462890625,-0.04225983664579689,0.02102934402525425,-0.014909290242381393
1768416546124947500,2.374947509765625,-0.016090060992166397,0.06575462093651294,-0.0127639122441411
1768416546134949400,2.384949462890625,0.0178857853025198,0.108289694327116,-0.020238504174817352
1768416546144950300,2.3949501953125,-0.009127309307456016,0.16164835954904555,-0.07252027914654463
1768416546154952400,2.404952392578125,-0.07206278117001057,0.23482523944079875,-0.05791923286942765
1768416546164954400,2.414954345703125,-0.08064655818529426,0.23533786513805388,-0.05542843896700069
1768416546174955300,2.424955322265625,-0.20806933446228504,0.2760276029229164,0.022562216148339212
1768416546184957400,2.43495751953125,-0.17473755822479725,0.2645680512756109,0.12238138457629828
1768416546194958300,2.444958251953125,-0.14530801359023898,0.18149404674768446,0.3126620739676058
1768416546204960300,2.454960205078125,-0.22159283290207385,0.04297580289542675,0.42402883765250443
1768416546214961400,2.46496142578125,-0.2598497905820608,-0.01930441992878914,0.45551162502244114
1768416546224963300,2.47496337890625,-0.14409867433309553,0.012531564792990684,0.4399857007190585
1768416546234965500,2.484965576171875,-0.037087329378724096,0.061173138365149496,0.4495572466626763
1768416546244966400,2.49496630859375,-0.05138941097557544,0.09095102151334285,0.46680458793118595
1768416546254968300,2.50496826171875,-0.062174387829564505,0.09135551066100597,0.47431920134499667
1768416546264969200,2.51496923828125,-0.11455686496309936,0.059037879902124404,0.4639271327987313
1768416546274971100,2.52497119140625,-0.25206753920800984,-0.04320727356374263,0.43844135735388845
1768416546284973000,2.53497314453125,-0.4774930821407586,-0.18851707725226877,0.387262666519545
1768416546294974200,2.54497412109375,-0.7601444140523672,-0.3542307865440845,0.41666707671284675
1768416546304976000,2.554975830078125,-0.90777301607728,-0.4760463173985481,0.5429856546076014
1768416546314977300,2.564977294921875,-0.8617547767460346,-0.5267974304705858,0.6674531247429549
1768416546324979000,2.57497900390625,-0.7101075867295265,-0.5338432573288678,0.7118488774389028
1768416546334980000,2.58497998046875,-0.4891641576468944,-0.4960054018437862,0.6403546899370849
1768416546344982300,2.594982177734375,-0.3336901758838445,-0.45339200251996514,0.5143635173657909
1768416546354984000,2.60498388671875,-0.32472879772782326,-0.4737421321094036,0.4075760442951694
1768416546364985000,2.614985107421875,-0.39357152087278663,-0.5236462729632854,0.3718248954236507
1768416546374987000,2.624987060546875,-0.3974018197506666,-0.5023620773941279,0.41204285097829996
1768416546384988200,2.63498828125,-0.3606477409143001,-0.45102351982295513,0.4616711340328678
1768416546394990000,2.644989990234375,-0.2642150000542402,-0.3736941964268684,0.49126989775449037
1768416546404992000,2.654991943359375,-0.20664244346432387,-0.2788987744450569,0.5159155325807631
1768416546414993200,2.6649931640625,-0.23384967240691185,-0.16910919694900511,0.5202394601944834
1768416546424995000,2.6749951171875,-0.2905143934369087,-0.08087737126648425,0.4765213510317728
1768416546434996200,2.684996337890625,-0.34749475628733634,0.02087678381204605,0.4247220075484365
1768416546444998100,2.694998046875,-0.36960605033040045,0.07048749467730522,0.4176460778128355
1768416546454999000,2.7049990234375,-0.26739070748090743,0.1126122337013483,0.4538373716672882
1768416546465001200,2.715001220703125,-0.07932780373692512,0.17472820587456225,0.5038382143612951
1768416546475003000,2.7250029296875,0.16312668847329914,0.24725392838120458,0.6032129269573837
1768416546485004300,2.73500439453125,0.2404208674907684,0.25731705723404885,0.6485516595918684
1768416546495006200,2.745006103515625,0.23638942001760005,0.26149931135475635,0.6918706499017775
1768416546505007000,2.755007080078125,0.2603589091479778,0.18627543580532072,0.6379534740142524
1768416546515009300,2.76500927734375,0.33767478854060173,0.10922434482872485,0.5685877499084919
1768416546525011000,2.775010986328125,0.3646656713187694,0.046747722649574275,0.42869105730988083
1768416546535012000,2.78501220703125,0.3146235832989216,0.055660512423515315,0.29980058310050517
1768416546545014000,2.795013916015625,0.261470085260272,0.15512567978203295,0.14855755343809723
1768416546555015200,2.80501513671875,0.17192600793540477,0.28937925192713737,0.07955715551339089
1768416546565017000,2.81501708984375,0.09197218125462532,0.410590387147665,0.04301156832855194
1768416546575018200,2.825018310546875,0.03189209882318973,0.49559799008667466,0.017331658551096914
1768416546585020200,2.835020263671875,-0.06185929399840533,0.543248214533925,-0.012403043042495846
1768416546595022000,2.84502197265625,-0.16428564925007522,0.5280027146071196,-0.029935119536519048
1768416546605023200,2.855023193359375,-0.2695395560778677,0.47874505496323105,-0.04218567543104291
1768416546615025200,2.865025146484375,-0.2970727290391922,0.402941918221116,-0.06952522551640868
1768416546625026000,2.875026123046875,-0.3563369650430977,0.27984569990634917,-0.12507752832509578
1768416546635028200,2.8850283203125,-0.3393441830575466,0.16793489247262477,-0.13703538488335906
1768416546645029000,2.895029052734375,-0.23234686662852763,0.04651449841558933,-0.11200732661075889
1768416546655031000,2.905031005859375,-0.23810908341705797,-0.07354220607280731,-0.09355692969541995
1768416546665033200,2.915033203125,-0.23171441394388675,-0.0740565853357315,-0.09641129621323198
1768416546675034000,2.9250341796875,-0.4249035746604204,-0.18380758438706396,-0.013394757493585348
1768416546685036300,2.935036376953125,-0.487083186654374,-0.21017887396216392,0.007369030930660664
1768416546695037200,2.945037109375,-0.46635260637998577,-0.2273854448288679,-0.0017027853298932313
1768416546705039000,2.9550390625,-0.38065716730728744,-0.25351181973218917,-0.039324988770298656
1768416546715041300,2.965041259765625,-0.39635391813293097,-0.237053436884284,-0.12131021168082952
1768416546725042200,2.975042236328125,-0.3904121069937944,-0.23803777174651622,-0.11539280433058738
1768416546735044000,2.985044189453125,-0.46551790912151336,-0.15838614288270472,-0.18874445626735686
1768416546745045200,2.995045166015625,-0.5693441942989826,-0.047432782304286956,-0.2606873739173636
1768416546755047200,3.005047119140625,-0.6200561444044113,0.10922551387250423,-0.32854101295974103
1768416546765048000,3.015048095703125,-0.7037060491241515,0.21624621117711065,-0.40864093358032405
1768416546775050200,3.02505029296875,-0.8377385258644818,0.3295873436748981,-0.4420367149647325
1768416546785052200,3.03505224609375,-0.9464496604740619,0.3749094174355268,-0.43873971924595534
1768416546795053000,3.045052978515625,-1.0527106254525482,0.3470464279979467,-0.3654369479522109
1768416546805055200,3.05505517578125,-1.1217179645746946,0.23469313749372958,-0.2621361479535699
1768416546815056100,3.06505615234375,-1.1876403432935476,0.09518471356034278,-0.14367365385405717
1768416546825058000,3.07505810546875,-1.246990504015237,-0.029085224708914757,-0.053129605706408616
1768416546835059200,3.08505908203125,-1.2435096761621534,-0.020541852769255638,0.0026264029808342453
1768416546845061000,3.09506103515625,-1.188051846703887,0.065717211535573,0.06434570398665965
1768416546855063000,3.10506298828125,-1.1333020193845034,0.20091770914196966,0.04970423436760902
1768416546865064200,3.115064208984375,-1.1197113009274005,0.39838264748156066,0.002855024104937911
1768416546875066000,3.125066162109375,-1.027604606572911,0.524898318850994,-0.037914720113575454
1768416546885067000,3.13506689453125,-0.9676343411915004,0.5792489177197218,-0.15152736302912234
1768416546895069200,3.145069091796875,-0.9505079228889196,0.6362713661462068,-0.19104089664146304
1768416546905070000,3.155070068359375,-0.9774750594653189,0.6848135709971189,-0.27103023302704093
1768416546915072000,3.165072021484375,-1.0036037724561988,0.759191643372178,-0.3288932239308953
1768416546925074200,3.17507421875,-1.044321421161294,0.8729366804957389,-0.27001214202567936
1768416546935075000,3.185074951171875,-1.1325358573175965,0.9581243161767721,-0.23729550201185046
1768416546945077200,3.1950771484375,-1.2404969042122362,0.983928619518876,-0.23586444629542527
1768416546955078100,3.205078125,-1.3528114701412617,0.8890694846510887,-0.18923801193796097
1768416546965080000,3.215080078125,-1.3553724066704511,0.8400608313322067,-0.15837627907581625
1768416546975082200,3.225082275390625,-1.3679355356454848,0.8419359775543213,-0.16688574874587356
1768416546985083100,3.235083251953125,-1.3612760777562856,0.7216571547478438,-0.11359065027944742
1768416546995085000,3.2450849609375,-1.326472475400567,0.7465484348982572,-0.009814414788782595
1768416547005086200,3.255086181640625,-1.293767306628823,0.7224889293968677,0.1183896480590105
1768416547015088000,3.265088134765625,-1.2871084332615137,0.6592559358924627,0.23648798502124846
1768416547025089000,3.275089111328125,-1.29962947666049,0.593888852968812,0.3524794858973473
1768416547035091200,3.28509130859375,-1.35395669465363,0.5287433038413525,0.3967131798993796
1768416547045093000,3.295093017578125,-1.4577011467665433,0.49002106673717494,0.3818895586464554
1768416547055094000,3.305093994140625,-1.5598095221102237,0.42472354191839695,0.35950865388177333
1768416547065096200,3.31509619140625,-1.625406906658411,0.33931086530983445,0.4132574143998325
1768416547075097000,3.32509716796875,-1.7066951968133448,0.24539105711877346,0.5470733623126521
1768416547085099000,3.33509912109375,-1.7485358581990003,0.1205851122766733,0.7820905806615949
1768416547095100200,3.34510009765625,-1.8046920451849697,-0.004080547311902046,1.0095378386802971
1768416547105102000,3.35510205078125,-1.8386457527130842,-0.066714990401268,1.1682402079053222
1768416547115104300,3.365104248046875,-1.8899755424559115,-0.04858312138319015,1.1181928591884671
1768416547125105200,3.375105224609375,-2.0247931782245634,0.05425298371315002,0.9316055809549987
1768416547135107000,3.385107177734375,-2.2145153934828934,0.24769173527657984,0.7661329869426786
1768416547145108000,3.39510791015625,-2.3491385295927523,0.43906595552563665,0.6284429375428706
1768416547155110100,3.405110107421875,-2.3528286162823435,0.6084329266279935,0.5750010510168969
1768416547165111000,3.415111083984375,-2.361080896320939,0.6102233171761036,0.540604202831164
1768416547175113000,3.425113037109375,-2.366874092769623,0.6382569870054722,0.4480447232078761
1768416547185115100,3.435115234375,-2.5968103911250826,0.49746846013367174,0.37074886368997395
1768416547195116000,3.445115966796875,-2.610025262007117,0.49920565918982024,0.33897812622413037
1768416547205118200,3.4551181640625,-2.661380186191201,0.3462415413558483,0.2605087659474462
1768416547215119000,3.465119140625,-1.518547537395358,0.1471808582574129,0.15424597433805465
1768416547225121000,3.47512109375,-0.3818617938566953,-0.7191939795047044,0.15466588025055825
1768416547235122000,3.485121826171875,0.47699324285984035,-2.7700807994067667,-0.34966906811911613
1768416547245124000,3.4951240234375,2.2708552664726973,-5.381545738828182,-1.0808207945842294
1768416547255126000,3.5051259765625,3.547301435944438,-7.739141715642809,-1.1463544662464409
1768416547265127200,3.515127197265625,2.3062340383678674,-10.308245769196748,-2.0302377073660494
1768416547275129300,3.52512939453125,-1.0007038132309913,-9.029522302442789,-3.4131323272123932
1768416547285130200,3.535130126953125,-3.106867114675045,-3.202366301012039,-3.373210358929634
1768416547295132400,3.54513232421875,-3.999837113896012,1.0855892510950564,-2.733183147381246
1768416547305133300,3.55513330078125,-3.7003240059673783,3.192365716001391,-2.477192078053951
1768416547315135200,3.56513525390625,-2.915245057144761,4.361098529729247,-1.84788529022336
1768416547325137400,3.575137451171875,-2.507664957728982,4.669069669401646,-0.5859227694604545
1768416547335138300,3.58513818359375,-2.3157623296916485,3.873578047636151,0.649049526111409
1768416547345140200,3.59514013671875,-1.3413678467154502,2.5061574757754803,1.1378683774519711
1768416547355141400,3.605141357421875,0.04604859793689102,0.9134662592828273,1.4412249360010028
1768416547365143300,3.615143310546875,1.4682552740067243,-0.6719926678687334,1.4057774827837943
1768416547375144200,3.625144287109375,2.370432077512145,-2.106128814652562,1.1638694454751908
1768416547385146400,3.635146484375,1.8795470874220133,-3.415191890090704,1.0152335661038756
1768416547395148300,3.645148193359375,0.9569190320402383,-3.843141408318281,0.686360362047702
1768416547405149200,3.655149169921875,0.6144084939062595,-2.2304823395520446,0.3645079965390265
1768416547415151400,3.6651513671875,0.6722603788942099,-0.484974304741621,0.1053648381226696
1768416547425152300,3.67515234375,0.9112953449845314,1.621906205061078,-0.0185524507840164
1768416547435154400,3.685154541015625,1.0657757126003504,1.749285799783468,0.12244219311913475
1768416547445155300,3.6951552734375,1.0128133532196282,1.1670809548676013,0.38566147840060294
1768416547455157200,3.7051572265625,0.8237000636398791,0.2367360414981842,0.5295029631022363
1768416547465159400,3.715159423828125,0.5545324096143245,-0.7488193024396896,0.34407844503782686
1768416547475160300,3.725160400390625,0.16221183865070343,-1.48340725043118,0.02075576494799461
1768416547485162200,3.735162353515625,-0.20024200183749197,-1.7435574852645397,-0.3587588584277779
1768416547495163400,3.745163330078125,-0.24443302574157713,-1.3581845414817333,-0.5342271786125377
1768416547505165300,3.755165283203125,-0.08274491870403289,-0.6153367146670818,-0.5752685428466647
1768416547515166200,3.765166259765625,0.1461480080783367,0.1746136395841837,-0.6647815674461424
1768416547525168400,3.77516845703125,0.49138183369636534,0.8627379425644874,-0.5021307528562844
1768416547535170300,3.78517041015625,0.7032920614957809,1.43777011937201,-0.024808278042078018
1768416547545171200,3.795171142578125,0.9006593846797942,1.8550778320759533,0.4282375413887202
1768416547555173400,3.80517333984375,1.0066811340749262,1.957674283197522,0.8756145214028656
1768416547565174300,3.81517431640625,0.9694751467525958,2.001362033754587,1.2158065534614027
1768416547575176200,3.82517626953125,0.7028209368526935,2.077090936216712,1.2708584324672818
1768416547585177300,3.83517724609375,0.4066717523992061,2.1578449733644725,0.9176660490602254
1768416547595179300,3.84517919921875,0.11922724966062233,2.042769564419985,0.23560689133778212
1768416547605181200,3.85518115234375,-0.128743302557338,1.7868220419734715,-0.5049999150844291
1768416547615182300,3.865182373046875,-0.16651393802510572,1.3480325653016567,-0.8524144092097878
1768416547625184300,3.875184326171875,-0.08298574172258377,0.9279641557127237,-0.8604229436203837
1768416547635185200,3.88518505859375,0.24515900192856788,0.734627695479989,-1.2743629334568976
1768416547645187300,3.895187255859375,0.08410806028340011,0.40815819156467914,-0.9559135813247411
1768416547655188200,3.905188232421875,-0.4820294469287619,0.2613970200240612,-0.27131990015599877
1768416547665190100,3.915190185546875,-0.5055670109152793,0.2604991944015026,-0.26926857538307086
1768416547675192300,3.9251923828125,-1.258371583598852,0.1531593481451273,0.4491467661656439
1768416547685193200,3.935193115234375,-1.6358464676082134,0.06536299127042293,0.8377862374637275
1768416547695195400,3.9451953125,-1.7871745086729525,-0.028071663752198217,1.1628129952248185
1768416547705196300,3.9551962890625,-1.900392891573906,-0.1331944184809923,1.5586391631565988
1768416547715198200,3.9651982421875,-2.405896774125099,-0.15410978073775766,2.2438003785476086
1768416547725199000,3.97519921875,-3.2928549657106396,-0.023223639199137686,3.5107556660965082
1768416547735201300,3.985201171875,-3.960224649953842,0.3252063521116972,4.631646239936352
1768416547745203200,3.995203125,-4.7211809649109835,0.4953752872467041,5.449802697974443
1768416547755204400,4.005204345703125,-4.118452387404441,0.24559914691150186,5.710359175521135
1768416547765206300,4.015206298828125,-2.1184967133164405,-0.65178223901093,4.842585284616053
1768416547775207200,4.025207275390625,-0.2825345188652165,-1.5731354521512984,2.7542063539266586
1768416547785209300,4.035209228515625,0.2738695481061935,-2.1536346621930598,0.6196204564008861
1768416547795210200,4.045210205078125,-0.8801309759140015,-1.3776719167619942,-1.2251813347239047
1768416547805212200,4.055212158203125,-3.117139502364397,0.9930255336880683,-3.1747663464248177
1768416547815213600,4.065213623046875,-3.9519986734002828,3.970851257908344,-4.864620298552513
1768416547825215200,4.07521533203125,-3.2521839326262474,6.048239131245016,-5.936722291564941
1768416547835217200,4.085217041015625,-1.3292226508915423,6.981710652202367,-6.224025906261802
1768416547845218300,4.09521826171875,1.3370312788158654,6.994308852490782,-5.144847106730937
1768416547855220200,4.10522021484375,3.0017221481144425,6.384116514974832,-2.4490467645436524
1768416547865221400,4.115221435546875,2.575006555595994,5.667183466139435,0.6105564215879887
1768416547875223300,4.125223388671875,2.318237779894471,5.410684739550947,3.195997350502014
1768416547885224400,4.135224365234375,2.102467369535565,5.3607408512085675,4.514541078729927
1768416547895226400,4.145226318359375,-0.08789568906333296,5.275507622820139,4.912460492613912
1768416547905228300,4.155228271484375,0.3755290106385946,5.374213496243954,4.68674035064876
1768416547915229400,4.1652294921875,0.3321563173800707,5.373300473052263,4.657354389427602
1768416547925231000,4.175231201171875,-0.15863458295213057,3.857966052484512,2.434752281731367
1768416547935232500,4.185232421875,0.3541390166074037,2.5697534573733805,0.9068312051825225
1768416547945234200,4.195234130859375,-0.05244855550653301,1.3963210876524448,0.1267231035750359
1768416547955235300,4.2052353515625,-0.7517471725851297,0.5113596228420734,-0.44715347345657647
1768416547965237500,4.215237548828125,-0.4390086723804474,0.1591156262010336,-1.3219669806748628
1768416547975239200,4.2252392578125,-0.47281508039236064,0.16115268498659133,-1.293644557031989
1768416547985240300,4.235240234375,1.3225462418675422,1.9228291797876358,-2.069293414208293
1768416547995242200,4.2452421875,0.7310451608180999,3.462113215741515,-1.5759624922707676
1768416548005243400,4.255243408203125,-0.5599263776123523,4.329727824431657,-0.6484301521040499
1768416548015245300,4.265245361328125,-2.0273627364516256,4.09281291923523,0.5965476969145238
1768416548025246500,4.27524658203125,-3.0581203271627424,3.44129020794332,2.506398298794031
1768416548035248400,4.285248291015625,-2.464948682552576,2.5788632310241457,3.4769366908639667
1768416548045249300,4.295249267578125,-1.0242097765028475,2.2445371683895585,2.4205904853880402
1768416548055251500,4.30525146484375,0.2583563371539116,2.8192297379791733,0.0675209730219096
1768416548065253400,4.31525341796875,0.6927776817440986,3.991705829888582,-1.965353585653752
1768416548075254500,4.325254638671875,1.9080442831099031,5.291814029976726,-2.896386335156858
1768416548085256400,4.33525634765625,4.093853368198872,6.37233430724442,-2.8353599117860195
1768416548095257300,4.34525732421875,4.336601801854372,7.0122636113762855,-2.3015501183353364
1768416548105259500,4.355259521484375,0.7624035911560059,7.160928570711612,-1.3763795388638973
1768416548115260400,4.365260498046875,-1.6948995450794695,6.5729919041454785,0.14453019761815666
1768416548125262300,4.375262451171875,-1.3373112648010252,5.597470462965965,0.8150521353472023
1768416548135264500,4.385264404296875,-0.7059937216699123,4.691577269285917,0.8963268353682011
1768416548145265400,4.395265380859375,-0.8004536280870437,4.6852129949510095,0.9868945566523819
1768416548155267300,4.405267333984375,-0.31876521314829587,4.43436951764524,1.2232467864647507
1768416548165268500,4.4152685546875,0.6077016897439956,4.435530378118157,1.4138929847002029
1768416548175270400,4.4252705078125,1.5275803002871573,4.7091228628486395,2.579464996309578
1768416548185271300,4.435271240234375,1.3458546367406845,4.901743868288397,3.7800735422477123
1768416548195273500,4.4452734375,1.6081122191168367,4.3872927091717715,3.1640438768804073
1768416548205274400,4.4552744140625,2.1991233246922492,3.3413755432516337,1.5480536178648472
1768416548215276300,4.4652763671875,1.9965657393887637,2.1678823832541703,-0.4714011584738269
1768416548225278500,4.475278564453125,4.4528269653558725,0.527930818414688,-4.070069464768469
1768416548235279400,4.485279296875,19.479523982238767,-3.5448476130515334,-9.291189956101775
1768416548245281300,4.49528125,29.469840112328527,-9.176449478200077,-5.5581496754467485
1768416548255282400,4.505282470703125,14.372066402703522,-30.542080052506922,-2.8529338546603915
1768416548265284400,4.515284423828125,15.008816492277383,-56.27780962460041,-8.839694142591952
1768416548275285200,4.52528515625,7.123005375030637,-66.14563802366256,-10.284067605751753
1768416548285287200,4.535287109375,-4.990391289034486,-49.16012398328781,-6.876311418619752
1768416548295288300,4.545288330078125,-11.431098290759325,-18.29229689592123,-5.481137747436762
1768416548305290200,4.555290283203125,-18.95596304947138,1.0033739092230796,-5.01158897536397
1768416548315292200,4.565292236328125,-19.978729056906698,12.697585376274585,-0.6883340002082288
1768416548325293300,4.575293212890625,-22.270868518948554,20.436947456669806,3.2153064466059207
1768416548335295200,4.585295166015625,-22.536550084424018,23.969823476898668,5.486714670786261
1768416548345296100,4.595296142578125,-15.180885708075762,22.866982646751403,6.454178477716446
1768416548355298300,4.60529833984375,-5.319130491447448,18.21790128788948,4.766480242317915
1768416548365299200,4.61529931640625,0.013413023802638053,11.348471445477008,1.6723495673581956
1768416548375301000,4.625301025390625,-0.9232868115514516,7.944654351359605,1.1713660848408938
1768416548385303300,4.63530322265625,-5.448255468532443,5.116888255703449,1.8865192645221946
1768416548395304200,4.64530419921875,-8.844729798671603,2.540496383228898,2.5732605887115
1768416548405306000,4.65530615234375,-8.040555104234814,-1.161162086212635,2.913804795208573
1768416548415307300,4.665307373046875,-8.202270099279284,-1.6309709705263375,3.1811680301606655
1768416548425309200,4.67530908203125,-4.278974957793951,-4.988582193785906,3.73735025280863
1768416548435310000,4.68531005859375,-5.427235476857423,-2.840474478320777,3.6339945077523588
1768416548445312300,4.695312255859375,-4.275818539589643,1.0216790889814495,2.096231397755444
1768416548455313200,4.705313232421875,-2.5272429339021443,2.8273315036311746,-0.6125567285597324
1768416548465315000,4.715315185546875,-1.384373460227251,3.322963395987451,-3.8441526311874386
1768416548475317200,4.725317138671875,-0.4412888922721147,2.697672565799951,-7.404864168325066
1768416548485318100,4.735318115234375,-1.4641653743445873,1.588662399367988,-11.214307305181025
1768416548495320300,4.7453203125,-1.405903154990077,1.0145192803546785,-13.379116856861113
1768416548505321200,4.7553212890625,1.12403910099864,0.8590145381271839,-13.39956577064991
1768416548515323100,4.7653232421875,3.8179251339972016,0.5161263988524675,-11.372518676018714
1768416548525324000,4.775323974609375,7.00179131720066,-0.2229116604156792,-6.963968074762821
1768416548535326200,4.785326171875,12.955583986032009,-0.5951404604651034,-1.1715496247142552
1768416548545327000,4.7953271484375,17.247600796228646,-1.0757483866907656,3.194000039204955
1768416548555329300,4.805329345703125,20.462706167304514,-1.423881587012112,5.51213786585629
1768416548565331200,4.815331298828125,18.833709127199647,-1.4921743481241165,5.361335309970379
1768416548575332000,4.82533203125,12.07016659414768,-0.3830212660901248,7.334075644874573
1768416548585334300,4.835334228515625,-6.411500196462869,4.134371548809111,9.816986685097216
1768416548595335200,4.845335205078125,-10.8696287753582,5.6709816893786185,-2.420287703049183
1768416548605337000,4.855337158203125,-2.9112191626295445,6.8896011083036655,-8.296939264532924
1768416548615338000,4.865337890625,-2.9175787607893344,7.054070370492338,-8.312377072161436
1768416548625340200,4.875340087890625,-2.6591595875322818,6.487260078585147,-6.931422480466962
1768416548635341000,4.885341064453125,-8.854835597622394,3.1928613905638454,-10.72117541294694
1768416548645343200,4.89534326171875,-6.865289089345931,1.7959721476346253,-14.634242005884646
1768416548655345200,4.90534521484375,-1.7392377223692834,3.678355335265398,-15.471494794058799
1768416548665346000,4.915345947265625,7.511200975018739,3.4272309951916333,-19.395913971138
1768416548675348200,4.92534814453125,7.6803674551129335,3.2567633693709968,-19.379512286913393
1768416548685349000,4.93534912109375,8.357310438865422,1.1405245179839432,-17.082040816193818
1768416548695351000,4.94535107421875,5.672592047184706,-2.0369953649327157,-12.613937955772876
1768416548705352200,4.955352294921875,4.834368952673674,-4.162139261178672,-9.11258753914237
1768416548715354000,4.96535400390625,0.6172282275021076,-2.335314733032137,-8.019323515635728
1768416548725355300,4.975355224609375,-3.06099675938189,1.8500323852546512,-4.95988976778686
1768416548735357200,4.985357177734375,-3.7237744396597146,4.541757294696569,-0.4427987123131752
1768416548745359000,4.995359130859375,-3.7141748366653915,5.200508788198232,1.6325836664199829
1768416548755360000,5.005360107421875,-5.474354370906949,5.780043537122011,0.07734978166222573
1768416548765362200,5.015362060546875,-4.9736044048845764,5.724567149093747,-0.9208721516251563
1768416548775363300,5.02536328125,-2.2017092495322226,4.33584981444329,-0.5605097304582596
1768416548785365000,5.035364990234375,-0.019840408235322682,2.257195136041194,1.582537486746907
1768416548795366400,5.045366455078125,0.37859427996072914,0.4410620977789163,3.788670397940278
1768416548805368000,5.0553681640625,0.9801075999259948,-0.5195509664736688,5.014653039109707
1768416548815369200,5.065369140625,1.785222790083289,-0.6973574838150293,5.823057333940267
1768416548825371400,5.075371337890625,0.9378151031196117,-0.36502566373758016,5.718188261711597
1768416548835373000,5.085373046875,-1.4275076685547827,0.521824902755022,5.2309635476946825
1768416548845374200,5.095374267578125,-2.694251359179616,2.807304030124843,5.085917363378405
1768416548855376100,5.105376220703125,-1.3740502191334962,2.8350390092685815,4.955979316344857
1768416548865377300,5.115377197265625,-0.2008025217970833,1.989840961178392,5.077548763483763
1768416548875379200,5.125379150390625,0.02809679819345474,1.152404267804697,5.2061266280800105
1768416548885380400,5.13538037109375,-0.19222290950026363,0.7332720430873334,5.244904394763708
1768416548895382300,5.14538232421875,-1.0822457858860492,0.5641161574523895,4.569037515810132
1768416548905383200,5.155383056640625,-2.296782903933525,1.203461085825041,2.9674101286679506
1768416548915385300,5.16538525390625,-1.9680232432544231,1.912099403719604,0.2933937482655048
1768416548925387300,5.17538720703125,-0.49396191331744194,2.0618898599535225,-3.2249300149977205
1768416548935388200,5.18538818359375,0.061941127062961454,2.4674951521649957,-6.260647956216335
1768416548945390300,5.195390380859375,0.055671106882765886,3.3334786525219675,-7.921807144257426
1768416548955391200,5.20539111328125,0.5037708482135087,3.857937995433807,-7.937731274098158
1768416548965393400,5.215393310546875,0.5942051523763686,3.310378347441554,-6.90259327634573
1768416548975394300,5.225394287109375,-0.2938999442219734,2.6891958293557163,-5.6238966975986955
1768416548985396200,5.235396240234375,-0.29418460638225075,2.680369256560504,-5.62345889070332
1768416548995397000,5.245397216796875,-0.8088233970254659,2.1628443890869615,-3.064775108876824
1768416549005399300,5.2553994140625,-0.5545809249311685,2.2624600708320735,-1.5044786800324916
1768416549015400200,5.265400146484375,-0.37778234252333637,2.2157314912743864,-0.3232084562927484
1768416549025402400,5.27540234375,-0.2299023230206221,2.0464435767576097,0.546582911914587
1768416549035404300,5.285404296875,-0.48529520725905895,1.894035777632147,1.2284282807558775
1768416549045405200,5.2954052734375,-1.0941647717386485,1.7825781207934022,1.9405507144391536
1768416549055407400,5.305407470703125,-1.20021275155358,1.9276206518478691,2.8543443059802054
1768416549065408300,5.315408203125,-0.757723908907175,1.9072271215081213,3.4425364086121317
1768416549075410200,5.32541015625,-0.6195043557405472,1.6506329717211425,3.7229385733574625
1768416549085411300,5.335411376953125,-1.1321106907080858,1.0837879007615148,3.5067075597494837
1768416549095413200,5.345413330078125,-1.1094927623171358,1.0902450410116464,3.504304590260982
1768416549105414100,5.3554140625,-1.6862907066881656,0.7393417183898389,3.202554517060518
1768416549115416300,5.365416259765625,-1.6335621560633182,0.64725950088948,2.6280910800516604
1768416549125418200,5.375418212890625,-1.1321493422180413,0.6809766231827438,1.8826655117034912
1768416549135419100,5.385419189453125,-0.698560356798768,0.7069671698119491,1.2089555185228587
1768416549145421300,5.39542138671875,-0.32798867630660533,0.6679055446855724,0.5943453645646571
1768416549155422200,5.405422119140625,0.0084440032184124,0.5214909215603023,0.0972539210498333
1768416549165424000,5.415424072265625,-0.08881766274645925,0.41129283632859587,-0.23150866223871708
1768416549175425300,5.42542529296875,-0.5772264719814062,0.4469127235032618,-0.565305732563138
1768416549185427200,5.43542724609375,-0.9787678757548331,0.4365435243759304,-1.0270376934051513
1768416549195428000,5.445427978515625,-0.8634679373394697,0.3906748495832085,-1.329467565563321
1768416549205430300,5.45543017578125,-0.46631227436959743,0.2771449165150523,-1.4942255815654992
1768416549215432200,5.46543212890625,-0.09891001769378781,0.13001008935645222,-1.5072627577930688
1768416549225433000,5.47543310546875,0.13531433324441314,-0.06271203837022185,-1.3322048815727232
1768416549235435300,5.485435302734375,0.19797566434070465,-0.2998096797224134,-0.9816764566779136
1768416549245436200,5.495436279296875,0.06711852970086038,-0.46967912045419213,-0.5092874927431345
1768416549255438000,5.50543798828125,-0.17032251826152203,-0.5941771683908998,-0.01660509784221649
1768416549265439200,5.515439208984375,-0.3528770338475704,-0.6889715674594045,0.46747781101763247
1768416549275441700,5.525441650390625,-0.5983493395090103,-0.6522238452985882,0.8669587751299143
1768416549285442600,5.535442626953125,-0.8844875636883079,-0.5622389654036611,1.0569546927630902
1768416549295444500,5.545444580078125,-0.9465316396690905,-0.46463221232816576,1.0878501817643642
1768416549305445600,5.555445556640625,-0.8593531224317849,-0.42977278813198205,1.0334317783564329
1768416549315447600,5.565447509765625,-0.5232938062638044,-0.3286185717079788,0.852962398481369
1768416549325449500,5.575449462890625,-0.5609441032875329,-0.33703035315722224,0.8571382228612899
1768416549335450600,5.58545068359375,-0.017962942191958427,-0.49461014809310433,0.7342921799153089
1768416549345452500,5.59545263671875,0.2672919232815504,-0.6070761051915585,0.7285293786048889
1768416549355453400,5.605453369140625,0.4463024095851928,-0.6970504636924714,0.6881529445528983
1768416549365455600,5.61545556640625,0.37453305840380485,-0.7300353992536663,0.5443611442118883
1768416549375456500,5.62545654296875,0.28348727127909656,-0.666291095226258,0.3036731502175331
1768416549385458400,5.63545849609375,0.01525477921180427,-0.5735342663999646,0.04397475080490112
1768416549395459600,5.64545947265625,-0.37019057222008706,-0.4993344001360237,-0.200642983853817
1768416549405461500,5.65546142578125,-0.6721358757317066,-0.4189295417521149,-0.2464998951435089
1768416549415463700,5.665463623046875,-0.8112076618134975,-0.34392106251902876,-0.12152736156284809
1768416549425464600,5.675464599609375,-0.6898679317772388,-0.2830707994326949,0.05958557691276073
1768416549435466500,5.685466552734375,-0.4586392555236816,-0.26759740903414786,0.23479718239009378
1768416549445467400,5.69546728515625,-0.33419509319867935,-0.2709421894174069,0.34139410132467746
1768416549455469600,5.705469482421875,-0.2199538152570836,-0.24202669525220988,0.45231998937428
1768416549465470500,5.715470458984375,-0.03848900830361526,-0.18536774637587367,0.5577613085329532
1768416549475472600,5.72547265625,0.1589665731191635,-0.14160356958173215,0.5787684407263994
1768416549485473500,5.7354736328125,0.3185527394413948,-0.12658632545284926,0.4597866719931364
1768416549495475500,5.745475341796875,0.366928976608254,-0.09024382309205829,0.24673604198694227
1768416549505476400,5.755476318359375,0.36256833371333774,-0.008953998567163944,0.058439914008975025
1768416549515478500,5.765478515625,0.33844865898992865,0.11388503011614083,-0.03541325868666172
1768416549525480400,5.77548046875,0.3993348336398601,0.2721432357702404,0.06520283227264881
1768416549535481600,5.785481689453125,0.3828219441257417,0.3338205973304808,0.21732290049791333
1768416549545483500,5.7954833984375,0.27028416390009224,0.27597748017087576,0.32008827844560145
1768416549555484400,5.805484375,0.22507957903929054,0.22847324006557462,0.3454460070639849
1768416549565486600,5.815486572265625,0.13771452625393868,0.21363895128816365,0.3388338954478502
1768416549575487500,5.825487548828125,0.1467932471793145,0.18132256263829766,0.23109891239404676
1768416549585489400,5.835489501953125,0.13892930887117982,0.2102758315306157,0.07908698071837425
1768416549595490800,5.84549072265625,0.060548284465074535,0.2952169085720554,-0.05115034152269363
1768416549605492500,5.855492431640625,-0.09818667185530065,0.40431660410780457,-0.11868307804763316
1768416549615494400,5.865494384765625,-0.15801950152739883,0.4312995958404615,-0.19237492172420023
1768416549625495600,5.87549560546875,-0.020922522649914024,0.40646537963952867,-0.24431787492930887
1768416549635497500,5.88549755859375,0.12728636348098515,0.35580793620031326,-0.29520868873298167
1768416549645498600,5.89549853515625,0.1626632356800139,0.3054439227497205,-0.41915772448480126
1768416549655500500,5.90550048828125,0.21243629750013351,0.3533569993842393,-0.4162368686020374
1768416549665501700,5.915501708984375,0.25088746257796884,0.3610496362460777,-0.37625732491314406
1768416549675503600,5.925503662109375,0.24427988100647924,0.363130205379799,-0.357090852150321
1768416549685504800,5.9355048828125,0.17046645677685737,0.2997157543612644,-0.4415343914657831
1768416549695506700,5.945506591796875,0.16805676528662442,0.2619945840584114,-0.609746931836009
1768416549705507600,5.955507568359375,0.30441417784318325,0.2381450315132737,-0.7905231857031584
1768416549715509800,5.965509765625,0.5304349101901054,0.26638079978600143,-0.8289934938728809
1768416549725511400,5.975511474609375,0.7486255334332584,0.15311127121970056,-0.9550766190439463
1768416549735512600,5.9855126953125,0.9088336310461163,0.16561244087442756,-0.8193763552218675
1768416549745514800,5.9955146484375,0.8924261016026138,0.17032047243490814,-0.6942728887379169
1768416549755515600,6.005515625,0.7515054727837442,0.15720449535008518,-0.6027350072473288
1768416549765517600,6.015517578125,0.6044992404408752,0.1308855204841122,-0.5126356341272592
1768416549775518700,6.025518798828125,0.5969955868124962,0.06285309080872685,-0.4398141435444355
1768416549785520600,6.035520751953125,0.6403958987303078,-0.024852884368784724,-0.3958119202107191
1768416549795521500,6.045521484375,0.7080453935027122,-0.10161726735848933,-0.4034071976453066
1768416549805523700,6.055523681640625,0.6621534108996391,-0.092012622862868,-0.4403168323695659
1768416549815524600,6.065524658203125,0.6760559717848896,-0.01692563503347337,-0.3643535366296768
1768416549825526500,6.075526611328125,0.6584139321103691,0.011388641835562884,-0.3246200766563415
1768416549835528700,6.08552880859375,0.6506514814153314,0.009110833096690476,-0.2626724467873573
1768416549845529600,6.095529541015625,0.6483288836866616,-0.03557644989173859,-0.18373977984786033
1768416549855531800,6.10553173828125,0.63271250462085,-0.056281092007271945,-0.11979308511614799
1768416549865532700,6.11553271484375,0.5711760859012603,-0.12364555929321795,-0.13884849871993063
1768416549875534600,6.12553466796875,0.5387735533379018,-0.1200139613252133,-0.20893618042469023
1768416549885535500,6.135535400390625,0.5155518138349056,-0.06252382232174276,-0.2572019064217806
1768416549895537700,6.14553759765625,0.48704234318733214,0.0017848010575398801,-0.2871469628304243
1768416549905538600,6.15553857421875,0.43074353286027905,0.06490140164066106,-0.3235328659415245
1768416549915540700,6.165540771484375,0.3406827381849289,0.09325849473811686,-0.3346387818455696
1768416549925541600,6.175541748046875,0.33300299733728167,0.11099884368795901,-0.30973990291059017
1768416549935543600,6.18554345703125,0.458151764267683,0.05276851730905473,-0.29554011264443397
1768416549945545700,6.195545654296875,0.5404626754686236,-0.02013202985934913,-0.2557189743876457
1768416549955546600,6.205546630859375,0.4786299041509628,-0.026442528180405496,-0.25944120978116986
1768416549965548500,6.215548583984375,0.2995873422086239,0.033530002223327755,-0.24506957007944583
1768416549975549700,6.2255498046875,0.33978798130229115,0.03578720656558871,-0.23635025705099105
1768416549985551600,6.235551513671875,0.12585764585211873,0.1780837999127805,-0.13606968165636063
1768416549995552500,6.245552490234375,0.12985855205655097,0.15385438120458275,-0.09625205053091049
1768416550005554700,6.2555546875,0.12556962269097566,0.1327378338199109,-0.057951838231086725
1768416550015555600,6.2655556640625,0.09510960249751806,0.08456957684792578,-0.0007458499312400817
1768416550025557500,6.2755576171875,0.03852686066254973,0.0488149939103052,0.06835691238939762
1768416550035558400,6.285558349609375,-0.015416472579538822,0.010729155013523995,0.143172791659832
1768416550045560600,6.295560546875,0.031833208242803814,0.01220865298155695,0.1518687238126993
1768416550055562500,6.3055625,-0.034235300948470826,-0.008203983917459846,0.1708797137528658
1768416550065563600,6.315563720703125,-0.10591288219317793,0.012824519857577979,0.17255787609815595
1768416550075565600,6.325565673828125,-0.16828735917210577,0.04937072809692472,0.17998656479418276
1768416550085566500,6.33556640625,-0.20277546583786604,0.04964183665588498,0.18817513194680213
1768416550095568600,6.345568603515625,-0.22656287639960646,0.04672518202420324,0.17715923241376877
1768416550105569500,6.355569580078125,-0.2732721667349338,0.03235588041003793,0.14105273076593874
1768416550115571500,6.365571533203125,-0.2641292214669287,0.026587526141665874,0.11497837831079959
1768416550125572600,6.375572509765625,-0.23870588026642797,0.02069141730777919,0.11299801814854145
1768416550135574500,6.385574462890625,-0.25826763595715163,-0.02875730792880058,0.13788579116761684
1768416550145575400,6.395575439453125,-0.2518168523825705,-0.04082976731006056,0.1875011782079935
1768416550155577600,6.40557763671875,-0.30107334298267957,-0.06445190430749208,0.19372224467992782
1768416550165578500,6.41557861328125,-0.31840193279385565,-0.043297180336900054,0.21516952185630797
1768416550175580400,6.425580322265625,-0.3187514768838882,-0.0058254547504708164,0.19607786789536474
1768416550185582600,6.43558251953125,-0.35257425150871274,-0.008384455050900578,0.18534253886938093
1768416550195583500,6.44558349609375,-0.37414208632484075,-0.03544869532622397,0.21960078230202196
1768416550205585400,6.45558544921875,-0.38152094452977175,-0.05448832683898508,0.22543547980487344
1768416550215586600,6.465586669921875,-0.36328736870288847,-0.068192077216506,0.22157003654837606
1768416550225588500,6.47558837890625,-0.31207959790453316,-0.07950937084890902,0.21655250064730644
1768416550235589600,6.485589599609375,-0.2631179985977709,-0.049739817137643694,0.20402619655132292
1768416550245591600,6.495591552734375,-0.19632102900147436,-0.056194984626397486,0.21292028162479398
1768416550255592700,6.5055927734375,-0.1386557526268065,-0.08111333544682711,0.19598726700246333
1768416550265594400,6.515594482421875,-0.1545931803405285,-0.14271748564038425,0.12221768191456794
1768416550275595000,6.525594970703125,-0.1325381465293467,-0.12776950735542922,0.09230418968796729
1768416550285597200,6.53559716796875,-0.10590133788585662,-0.11300905099920928,0.1083335334688425
1768416550295599000,6.54559912109375,-0.08527487557306886,-0.0978284695347771,0.11748013199865817
1768416550305600000,6.55560009765625,-0.07248071432113647,-0.08346172520387918,0.1381529176712036
1768416550315602200,6.565602294921875,-0.07174538578391075,-0.10111914511062205,0.13849895462989806
1768416550325603000,6.57560302734375,-0.04646130692362785,-0.11343107580356299,0.15401801080107688
1768416550335605000,6.58560498046875,-0.023431290600448844,-0.08505502227731049,0.14810674093067644
1768416550345606100,6.595606201171875,-0.011211422105133532,-0.060229500839486715,0.11282792227864265
1768416550355608000,6.605608154296875,-0.008362170153856277,-0.03777143918536603,0.04837970776557922
1768416550365609000,6.61560888671875,-0.004344312814623118,0.007228563014045357,0.021242694514989852
1768416550375611100,6.625611083984375,0.055943274887651204,0.009809081026539206,-0.035845220363140105
1768416550385612000,6.635612060546875,0.12296353184580802,0.024433672576025127,-0.045207507470250125
1768416550395614000,6.645614013671875,0.1670716997720301,0.027984496925398707,-0.05743628992438316
1768416550405615000,6.655614990234375,0.2262451887525618,0.01506448080409318,-0.07184358546137809
1768416550415617000,6.665616943359375,0.22414543999433517,0.044778760664165015,-0.10005845707654952
1768416550425619000,6.675618896484375,0.2554137078307569,0.06051178837958723,-0.14318915827274323
1768416550435620000,6.6856201171875,0.2475016195319593,0.07559139368757604,-0.1750444322168827
1768416550445622000,6.6956220703125,0.23839228427261114,0.09428414799142629,-0.2135118177771568
1768416550455623000,6.705622802734375,0.22783348085731267,0.09075257633179426,-0.21500936285853384
1768416550465625000,6.715625,0.21036343674883246,0.1057114778695628,-0.19048282436728475
1768416550475626000,6.7256259765625,0.20537045076712965,0.09454729243963957,-0.193805831310153
1768416550485628000,6.7356279296875,0.17062880773171782,0.0913165668901056,-0.18523323327600955
1768416550495629000,6.745629150390625,0.1372786190547049,0.10145389349032193,-0.1722913341164589
1768416550505631000,6.755630859375,0.1450010300002992,0.09331738531850278,-0.19343349086642264
1768416550515631900,6.7656318359375,0.1523100378394127,0.09262768602129072,-0.18165069861412048
1768416550525634000,6.775634033203125,0.15141002025976777,0.09142967187575995,-0.18174480663836
1768416550535635000,6.785635009765625,0.14635741304531694,0.09078472503572702,-0.15358020390570162
1768416550545636900,6.795636962890625,0.11730784417167306,0.09821363292746245,-0.13275778062939644
1768416550555639000,6.80563916015625,0.1232908641040325,0.09634601242467761,-0.12779285169839857
1768416550565640000,6.815639892578125,0.14060557152032852,0.06696717506404966,-0.11355448298752308
1768416550575642000,6.82564208984375,0.13284443599954246,0.06689378103427589,-0.07595218982398509
1768416550585643000,6.83564306640625,0.08992284750938415,0.06218271726649254,-0.03955401175320148
1768416550595645000,6.84564501953125,0.05087678527832031,0.05008494078088552,-0.05361936198472976
1768416550605645800,6.855645751953125,0.035950434303283686,0.03622895898371935,-0.04549158510863781
1768416550615648000,6.86564794921875,0.07413271931186317,0.03451152407396584,-0.03139174808561802
1768416550625649000,6.87564892578125,0.09338453227058052,0.03300897402390837,-0.02300268992483616
1768416550635651000,6.885651123046875,0.05410466128364205,0.003498911499045789,0.005257774397730827
1768416550645652000,6.89565185546875,0.00034369887113571166,0.0006520707005634904,0.010474632263183592
1768416550655654000,6.90565380859375,-0.04354439656361937,0.010061083026230334,0.014181085565686225
1768416550665654800,6.91565478515625,-0.04109656502008438,0.011309950576163828,0.0003723404437303543
1768416550675657000,6.925656982421875,-0.003987462200969457,0.0070741031046956775,0.010301029261946678
1768416550685659000,6.935658935546875,-0.02451484805345535,-0.011504632898047566,0.029587913534045218
1768416550695660000,6.945659912109375,-0.07388838916197418,-0.03601696020085365,0.042909167400002474
1768416550705662000,6.955661865234375,-0.07250307228341699,-0.06513217818923295,0.0699959117680788
1768416550715662800,6.965662841796875,-0.09475333640575409,-0.08809278253801167,0.05967617780566215
1768416550725665000,6.9756650390625,-0.14214637122154236,-0.0337888723552227,0.032275545182824134
1768416550735666000,6.985666015625,-0.11120645855665207,0.015444127771444618,0.00900514423251152
1768416550745667800,6.995667724609375,-0.06488090684190392,-0.0010151683919131756,0.025778584378957747
1768416550755669000,7.0056689453125,-0.02228650447949767,-0.02245367773994803,0.03264613206088543
1768416550765671000,7.0156708984375,-0.008947714956849814,-0.04197283639796078,0.04667524193525314
1768416550775672000,7.025672119140625,0.004434329185634851,-0.037971747530438006,0.06580839695036411
1768416550785674000,7.035674072265625,0.011346592792123555,-0.02300210540294647,0.037133506608009334
1768416550795675100,7.045675048828125,0.028615707501024008,-0.010707454638369382,0.022462591698765754
1768416550805677000,7.055677001953125,0.018106003924459216,-0.0004557444108650088,0.018228315129876136
1768416550815679000,7.065678955078125,0.02450315761566162,-0.0003632072892040014,0.01932955437004566
1768416550825680100,7.07568017578125,0.030241847398132085,-0.0004031009081751108,0.016358429604768753
1768416550835681800,7.085681884765625,0.005441752662509679,0.014850363129377365,-0.003075169661641121
1768416550845683200,7.09568310546875,-0.016963994282484053,0.030335005574300883,0.00277238732278347
1768416550855685000,7.10568505859375,-0.015038433047384022,0.029296200578473507,-0.012019523617625236
1768416550865686000,7.11568603515625,-0.019251812958717345,0.03638557431753724,-0.021423896300792694
1768416550875688200,7.125688232421875,-0.0010812193654477595,0.03503879935108125,-0.020511457630991936
1768416550885689000,7.135689208984375,0.013300211077928543,0.027826712547801433,-0.02801321156322956
1768416550895691000,7.14569091796875,0.03847439982295036,0.036169045490026475,-0.03876724528968334
1768416550905692200,7.155692138671875,0.07701558127179742,0.04597838224489242,-0.05246142412126064
1768416550915694000,7.165694091796875,0.09371522552967071,0.03764375768508762,-0.07685878327488899
1768416550925695000,7.175695068359375,0.10410115659609437,0.030395320926792917,-0.07452654093503952
1768416550935697200,7.185697265625,0.1154571017384529,0.02235814494360238,-0.0908399623543024
1768416550945698000,7.195697998046875,0.1127168631196022,0.020838205367326734,-0.068788874065876
1768416550955700000,7.205699951171875,0.08578560157418251,0.03147624803129583,-0.04607961412966251
1768416550965702100,7.2157021484375,0.08224222987890244,0.030182591491565106,-0.0466115290492773
1768416550975703000,7.225703125,0.06815057616233826,0.026429193774797022,-0.032092589831352235
1768416550985705000,7.235705078125,0.08579261583685874,0.017515892544202504,-0.02154080067873001
1768416550995706000,7.2457060546875,0.0902782368183136,0.017589615367539228,-0.06107376964390278
1768416551005708000,7.2557080078125,0.10111176552176475,0.029286665565147994,-0.0591074380069971
1768416551015709000,7.265708984375,0.08920271654129028,0.0182685740750283,-0.03195931884050369
1768416551025711000,7.275711181640625,0.08122048561573028,0.008039148744568228,-0.009396189376711845
1768416551035712000,7.2857119140625,0.04869987963065505,0.015573087913356721,-0.02030687496960163
1768416551045714000,7.2957138671875,0.04436974147185683,0.018696882489696143,-0.02866027729511261
1768416551055715000,7.305715087890625,0.020760025564581154,0.02941058420576155,-0.023516484665870665
1768416551065717000,7.315717041015625,-0.013488573256880044,0.02247216324470937,-0.015680968734622002
1768416551075718000,7.3257177734375,0.008358516892045736,0.014572970960102974,-0.024587328767776487
1768416551085720000,7.335719970703125,0.039421179153770206,0.017311894404701888,-0.023304303219914436
1768416551095721000,7.345720947265625,0.03349076619148254,0.011495024819485843,-0.035922377252578734
1768416551105723000,7.355722900390625,0.029953239715099333,0.016650544419139622,-0.030854572468996047
1768416551115724000,7.36572412109375,0.05046045956239104,0.013633059761486946,-0.04659691600203514
1768416551125726000,7.375725830078125,0.021717180158942938,0.005878646242432296,-0.038726913279294964
1768416551135727900,7.385727783203125,0.028989655379950997,-0.0024899536522105335,-0.01772095012962818
1768416551145729000,7.39572900390625,0.03819967453479767,0.011936740704998373,-0.030087095227837563
1768416551155731000,7.40573095703125,0.04778466448187828,0.014904102610610424,-0.02106499986052513
1768416551165731800,7.41573193359375,0.04968903679847717,0.006745309541746973,-0.045991351324319835
1768416551175734000,7.425734130859375,0.05988426759839058,0.019083361056633292,-0.0563671993881464
1768416551185735000,7.43573486328125,0.03969853479042649,0.0022589944405481217,-0.06629647272825241
1768416551195736800,7.44573681640625,0.021882307592779395,0.014909765166416764,-0.0583276858061552
1768416551205738000,7.455738037109375,-0.0023604455210268498,0.012813779267854987,-0.05144026437997818
1768416551215740000,7.465739990234375,-0.018033961601555345,0.0032687560049816963,0.010151391658186912
1768416551225740800,7.47574072265625,-0.005953939968347549,0.01396590844504535,0.030408582267165182
1768416551235743000,7.485742919921875,0.004802285715192556,0.01014200277533382,0.00158814597427845
1768416551245743900,7.495743896484375,-0.013464900120347737,0.019413214065507053,-0.002688216170668602
1768416551255745800,7.505745849609375,0.009381722459942102,0.010801526129990816,-0.015921207231283187
1768416551265747000,7.515746826171875,0.07268266663402319,0.010827646951936184,-0.022110124999284744
1768416551275748900,7.525748779296875,0.10437938901558518,-0.006673413349315524,-0.01666355003118515
1768416551285750800,7.535750732421875,0.08477788583636284,-0.003911474355310201,-0.00286649534702301
1768416551295752000,7.545751953125,0.029345190819352863,0.012824629455432295,-0.01674070692062378
1768416551305753900,7.55575390625,-0.004434329185634851,0.056215552490390834,-0.04046878851056099
1768416551315755000,7.565755126953125,0.03245382435917854,0.0580407586235553,-0.057252165529131885
1768416551325756700,7.575756591796875,0.06727247815355658,0.03519705865271389,-0.048424131429195404
1768416551335758000,7.585758056640625,0.04555310603752732,0.003531936985813081,-0.01625438470840454
1768416551345759700,7.595759765625,0.004306757283210754,-0.028210670364089308,0.033057050949335094
1768416551355761000,7.605760986328125,0.016687953820079565,-0.033307628176920116,0.04486673120856285
1768416551365763000,7.61576318359375,0.02444017538204789,-0.03277505567017942,0.022038228806853292
1768416551375764000,7.625763916015625,0.015495821426063774,0.008192293479666114,0.0046212300598621366
1768416551385766000,7.635765869140625,0.06051672028303146,0.011170834366418421,-0.049559272938966746
1768416551395767000,7.64576708984375,0.10711728954687715,0.02347187833916396,-0.04088087644279003
1768416551405769000,7.65576904296875,0.11832812713012099,0.011259572095796465,-0.05909983922243118
1768416551415769900,7.665769775390625,0.1295205522738397,-0.0001106207676231861,-0.0395662867128849
1768416551425772000,7.67577197265625,0.09725026778802275,0.004853540978394449,-0.032120062360167505
1768416551435773000,7.68577294921875,0.037407062852382655,0.02270410883706063,-0.019517185896635054
1768416551445774800,7.69577490234375,0.025514526615291834,0.010506927097588777,-0.02360124033987522
1768416551455777000,7.705777099609375,0.004311433458328247,0.037225057348981495,-0.030445991668105122
1768416551465778000,7.71577783203125,0.00479556371346116,0.03615852409601211,-0.030322657549381255
1768416551475779800,7.72577978515625,-0.004435352098941803,0.041836569732427595,-0.07224573652148246
1768416551485781000,7.735781005859375,0.008530658588558435,0.03817264039739966,-0.10467559548318385
1768416551495783000,7.745782958984375,-0.007571019776165485,0.03615512656252831,-0.07355272746682166
1768416551505783800,7.75578369140625,-0.005711801775544882,0.04180898760575801,-0.03617722879648209
1768416551515786000,7.765785888671875,0.02203063002228737,0.04300513858776539,-0.027090251499414443
1768416551525787000,7.775786865234375,0.03607888298854232,0.04097805320695042,-0.01934007576406002
1768416551535788800,7.785788818359375,0.04709259056448936,0.030532062516361473,-0.012024199792742728
1768416551545790000,7.7957900390625,0.02484218031167984,0.02286518115028739,-0.006484685844182968
1768416551555792000,7.8057919921875,0.017451631668955088,0.02878748387135565,-0.0016530279040336607
1768416551565792800,7.815792724609375,0.006864478942006826,0.010668035943433641,-0.015954524978995323
1768416551575795000,7.825794921875,0.013415654151141643,0.019822415920905768,-0.016595160970091817
1768416551585795800,7.8357958984375,0.029207243653386828,0.03255012434050441,-0.034842765322327614
1768416551595797800,7.8457978515625,0.04113032115921378,0.013139138764701783,-0.04366086255013942
1768416551605799000,7.855798828125,0.0376665905714035,0.011635711931809782,-0.03347381505668163
1768416551615800800,7.86580078125,0.03495923130884766,0.020185805873200298,-0.0334621246188879
1768416551625802800,7.875802734375,-0.0006055646777153015,0.00999145185612142,-0.030171850901842115
1768416551635804000,7.885803955078125,0.005101707053184509,0.0001239551732316613,-0.0220990190833807
1768416551645805800,7.895805908203125,0.011705489232391118,0.007624832322634756,-0.02407879472374916
1768416551655806700,7.905806640625,0.029237638791650533,0.014748692853190004,-0.01966506993472576
1768416551665809000,7.915808837890625,0.05227744585648179,0.006831891846656799,-0.013184475743770598
1768416551675809800,7.925809814453125,0.03565013618245721,0.012746011261269449,-0.019433014744520187
1768416551685811700,7.935811767578125,0.039388445927947754,0.021721271812170744,-0.022878186762332914
1768416551695812900,7.945812744140625,0.020403174950927496,0.007148848841339349,-0.011217559584975242
1768416551705814800,7.955814697265625,0.010294453390687703,0.00848809808846563,-0.0016968670457601547
1768416551715815700,7.965815673828125,-0.012376666492223739,0.005856617073714733,0.023644494959712027
1768416551725817900,7.97581787109375,-0.012360153748840093,0.005384286854229867,0.02366495322585106
1768416551735818800,7.98581884765625,-0.008490911100059747,0.008632548060454428,-0.007047580423951149
1768416551745820700,7.995820556640625,-0.003149403941631317,0.024449454667046663,-0.031633740147948265
1768416551755821800,8.00582177734375,0.004573153134435415,0.03936539384592324,-0.03215688723921776
1768416551765823700,8.01582373046875,0.017196633994579314,0.04814589900970459,-0.046508653196692465
1768416551775825000,8.025824951171876,0.008502455407381057,0.02260163484327495,-0.039483284604549404
1768416551785826800,8.035826904296876,0.03987359909638762,0.0100108872089535,-0.014831073907017708
1768416551795828000,8.045827880859376,0.0575074554644525,-0.002920563621819019,-0.014417816931009292
1768416551805830000,8.055829833984374,0.03992036084756255,0.0012305281756445764,-0.023443419429659842
1768416551815831800,8.065831787109374,0.052539311663061375,-0.00423179235085845,-0.015087679016590118
1768416551825833000,8.0758330078125,0.04753463524356484,-0.0000979439491406083,-0.027201310658454894
1768416551835835000,8.0858349609375,0.043940848535299296,0.012064458737894891,-0.03984393461048603
1768416551845836000,8.0958359375,0.0367592664681375,0.014992657676897942,-0.03178103966414928
1768416551855837700,8.105837646484375,0.016518296341598033,0.03220591401271522,-0.022525135540962218
1768416551865838800,8.1158388671875,-0.001117459722608328,0.026626616043038665,-0.010744681376218795
1768416551875841000,8.125841064453125,-0.014473784901946783,0.006270202843286097,0.007464344531297683
1768416551885842000,8.135842041015625,0.00721636111959815,0.007766578880883753,-0.005022212076187134
1768416551895844000,8.145843994140625,0.026008886003494262,0.003014452450349927,-0.021405191600322723
1768416551905845000,8.155844970703125,0.02260784538835287,0.02457951078750193,-0.03196516405940056
1768416551915847000,8.165846923828125,-0.019159604630619286,0.037090909575298425,-0.05462766224443912
1768416551925847800,8.175847900390625,0.008398264380544423,0.03253507290184498,-0.05747896002233028
1768416551935850000,8.18585009765625,0.008503332190215587,0.032145781323313714,-0.05744681131839752
1768416551945851000,8.195850830078125,0.0781760033532977,0.0212450326025486,-0.05472761548757553
1768416551955853000,8.20585302734375,0.11438742668032645,-0.006992781496793031,-0.03237666746973991
1768416551965854000,8.21585400390625,0.08592135678306222,-0.015399192651174962,-0.02527180390059948
1768416551975855900,8.22585595703125,0.03576207212433219,0.013258710023760795,-0.021281272959709167
1768416551985856800,8.235856689453126,0.03717793027162552,0.038242271567508576,-0.035924130818247794
1768416551995859000,8.24585888671875,0.06589563684239984,0.03133011755887419,-0.047242812690138816
1768416552005859800,8.25585986328125,0.058523500639200206,0.010306399556808173,-0.020417349606752396
1768416552015862000,8.265862060546874,0.017104279536008835,-0.008811704019643365,0.002598199799656868
1768416552025864000,8.275864013671875,-0.01565247329249978,-0.020280863745510577,0.029274609801173208
1768416552035864800,8.28586474609375,0.004109042754024267,-0.015356924412027,0.04288812461197376
1768416552045867000,8.295866943359375,-0.013532996920496225,0.007259615739434957,0.01581131711602211
1768416552055868000,8.305867919921875,-0.015283055458217858,0.022117212327197194,-0.008861936369538307
1768416552065869800,8.315869873046875,0.002492401337623596,0.025115955751761794,-0.01960018800497055
1768416552075871000,8.32587109375,0.022751930034160612,0.0057348903901875015,-0.024183424142003057
1768416552085873000,8.335872802734375,0.0794714499913156,-0.004647825805842876,-0.04584697441756725
1768416552095873800,8.345873779296875,0.12122151048406958,0.0019470058819279074,-0.06003741233348846
1768416552105876000,8.3558759765625,0.1259013388633728,-0.0064303983736783265,-0.027719781574606892
1768416552115876900,8.365876953125,0.054617579241842025,0.004658639460802078,-0.01319441261589527
1768416552125878800,8.375878662109375,-0.003283990106731653,0.039183753668703136,-0.019880173990130423
1768416552135879700,8.385879638671875,-0.0002538286305963993,0.029721842112019656,-0.03957856167256832
1768416552145881900,8.3958818359375,0.05259995580911636,0.01102116023004055,-0.04676642735004425
1768416552155882800,8.4058828125,0.06924012496471404,0.012987163073383271,-0.043486090505123136
1768416552165885000,8.415885009765624,0.018755407743901012,0.007772204904071986,-0.015356559085845947
1768416552175885800,8.4258857421875,-0.03176744953021407,0.014989114012941717,0.0157855981528759
1768416552185887700,8.4358876953125,-0.036219314372539516,0.01498392638117075,0.015358312651515006
1768416552195888600,8.445888671875,-0.02209741164818406,0.013228680211678147,-0.005438976183533668
1768416552205890800,8.455890869140624,-0.0020446575701236723,0.012468253765814006,-0.018936755660176274
1768416552215891700,8.4658916015625,-0.017241057658195495,0.022916655609197912,-0.012995090651512145
1768416552225894000,8.475893798828125,-0.009644757310301065,0.036902693526819345,-0.04744622630774974
1768416552235895800,8.485895751953125,-0.009748802206665278,0.03695066085439175,-0.04746610005199909
1768416552245896700,8.495896728515625,0.043511809468269345,0.04174465366527438,-0.05886544594466686
1768416552255899000,8.50589892578125,0.044401159523427484,0.028106369739398358,-0.053928574064373964
1768416552265899800,8.515899658203125,0.05979658931493759,0.011089841552078723,-0.05405658435821533
1768416552275902500,8.52590234375,0.07773658902272582,0.00316299407556653,-0.03512918104827404
1768416552285903400,8.5359033203125,0.05180705186575651,-0.012079437111318111,-0.027253333106637
1768416552295905300,8.5459052734375,0.01487125978693366,0.001767374998703599,-0.03998831151723861
1768416552305906400,8.555906494140626,0.009028525108098984,0.01034209192469716,-0.03250526228547096
1768416552315908400,8.565908447265626,0.027297172248363494,0.00500058476626873,-0.034416064342856406
1768416552325909500,8.575909423828126,0.0605588058590889,0.004953896080330014,-0.02898644050955772
1768416552335911400,8.585911376953124,0.04762918165922165,0.012009915539063512,-0.028489596903324126
1768416552345912600,8.59591259765625,0.030695436384528874,0.014245273375697433,-0.03364566449224949
1768416552355914200,8.605914306640624,0.016559359004348514,0.0161285298390314,-0.037915596896409984
1768416552365915600,8.61591552734375,-0.010792612171173095,0.034316841752082106,-0.05805529860556125
1768416552375917300,8.625917236328124,0.01390811384320259,0.04591989352330565,-0.06864741976857185
1768416552385918500,8.63591845703125,0.033304888230562206,0.04094838872104883,-0.07922668145000934
1768416552395920600,8.645920654296875,0.052180269092321395,0.02962923192512244,-0.07148410449922084
1768416552405921500,8.655921630859375,0.05426233606338501,0.02949172315057367,-0.07112637710273266
1768416552415923500,8.66592333984375,0.07865326547622681,0.008653371652774512,-0.04522153599560261
1768416552425924600,8.675924560546875,0.09580679098144174,-0.0068292980307713145,-0.03987374522686005
1768416552435926500,8.685926513671875,0.07164134088754653,-0.004574468308687209,-0.023797639694809913
1768416552445927400,8.695927490234375,0.0520493361890316,0.024010369130037724,-0.024418401941657064
1768416552455929600,8.7059296875,0.020278087266534565,0.03825619049500674,-0.020237901386618615
1768416552465930500,8.715930419921875,0.011561989108473062,0.027402714982070028,-0.022075053685903546
1768416552475932400,8.725932373046875,0.0008452186524868011,0.023468626936152575,-0.013804653468728065
1768416552485934600,8.7359345703125,0.012098580203205346,0.016309731624834237,-0.0007785831570625305
1768416552495935500,8.745935546875,0.028506986429542303,0.011805186747200786,0.0012795184165239333
1768416552505937400,8.7559375,0.01778217879757285,0.013932919490896164,0.0021054478466510772
1768416552515938600,8.7659384765625,0.022162439708411693,0.016704503096081316,0.012055179452896117
1768416552525940500,8.7759404296875,0.0015219488702714443,0.01601937037613243,0.0017974048107862472
1768416552535941400,8.78594140625,-0.015101999802887438,0.02170220178551972,-0.02639408592879772
1768416552545943600,8.795943603515624,0.013416969325393437,0.03134790894389152,-0.015092939713597297
1768416552555944400,8.8059443359375,0.02363675004467368,0.03161835991572588,-0.031030513557791708
1768416552565946400,8.8159462890625,0.00894201586842537,0.02144176075104624,-0.013917466193437575
1768416552575947500,8.825947509765625,0.013557400709390639,0.014710625865124165,0.0006324526846408844
1768416552585949400,8.835949462890625,0.017292641714960335,0.002799640655890107,0.00019347674548625944
1768416552595950300,8.845950439453125,0.004935848966985941,0.0153062902033329,0.016605682364106176
1768416552605952500,8.855952392578125,-0.005089870484918355,0.01940638246592134,0.0012859481573104857
1768416552615953400,8.865953369140625,0.00994870869293809,0.017474683750979603,0.0009171148449182509
1768416552625955300,8.875955322265625,0.05338482257649302,0.010622552833892405,-0.0063946694731712335
1768416552635956500,8.88595654296875,0.03908829393759369,-0.02888582967929542,0.024659809482097624
1768416552645958400,8.89595849609375,0.04044540763497352,-0.02861194464135915,0.024869652840495107
1768416552655959300,8.905959228515625,-0.007386018598079681,-0.0008769654976204037,0.02801321156322956
1768416552665961500,8.91596142578125,-0.006358429116010665,-0.000847154881246388,0.02817746221423149
1768416552675962400,8.92596240234375,0.02373085806891322,-0.009997077879309653,0.020644728621840476
1768416552685964300,8.93596435546875,-0.029451866064220664,-0.029989480072259902,0.04908288759887218
1768416552695965400,8.94596533203125,-0.05212780825272202,-0.049194092888385055,0.06078560035228729
1768416552705967400,8.95596728515625,-0.008127338484674692,-0.06581128302719444,0.06051145958602428
1768416552715968300,8.96596826171875,-0.015326017817109822,-0.04752309093624353,0.036598669078946114
1768416552725970400,8.975970458984374,-0.021844898191839456,-0.0033079920368269083,-0.025068390282988545
1768416552735971300,8.985971435546874,0.014025018221139907,0.01986680305190384,-0.0432002593010664
1768416552745973200,8.99597314453125,0.011005378139019011,0.01902169399727136,-0.04365969350636005
1768416552755974700,9.005974609375,0.08631503227576613,0.0028397534705698487,-0.04405190769433975
1768416552765976300,9.015976318359375,0.09972308764234185,-0.010093962382525206,-0.05726210240125656
1768416552775978500,9.025978515625,0.08233940664306283,0.000676182228513062,-0.04455693460702896
1768416552785979400,9.0359794921875,0.055205754393339156,0.03238233002554625,-0.03964695073366165
1768416552795981300,9.045981201171875,0.04944236856102943,0.038047552713006735,-0.041626141852140426
1768416552805982500,9.055982421875,0.0422328755736351,0.026544782978482544,-0.048836219361424446
1768416552815984400,9.065984375,0.034721915421634914,0.042390879146941,-0.050963879039883614
1768416552825985500,9.075985595703125,0.02216960010156035,0.03740088883992284,-0.030966216149926184
1768416552835987500,9.085987548828125,0.03887538183927536,0.010720167989470064,-0.00963993500471115
1768416552845988600,9.095988525390625,0.06666574443206191,0.01037171987798065,-0.012852467310428618
1768416552855990500,9.105990478515626,0.07072013438940047,-0.007359861243516206,-0.0027729718446731564
1768416552865991400,9.115991455078126,0.037306525087356567,0.012099055127240717,-0.010369418323040008
1768416552875993600,9.12599365234375,0.0006346446417272091,0.0419986284263432,-0.027691724523901937
1768416552885994500,9.135994384765626,-0.0016553659915924071,0.042469753069430585,-0.028087445843219757
1768416552895996700,9.14599658203125,-0.033616876789182425,0.053101731318794185,-0.04220774113237857
1768416552905997600,9.15599755859375,-0.028456717547029255,0.06955313643664121,-0.05672609582841396
1768416552915999500,9.16599951171875,0.0011981237433850765,0.048499571285583076,-0.05561608875989914
1768416552926000400,9.17600048828125,0.025237170978635547,0.035368615827336906,-0.04399520907104015
1768416552936002600,9.18600244140625,0.04494052709713578,0.027462774606235325,-0.04327157097160816
1768416552946003500,9.19600341796875,0.039751141760498286,0.010181202274560928,-0.041756490233540534
1768416552956005600,9.206005615234375,0.04437003373280167,-0.00897719677966088,-0.022660744619369507
1768416552966006500,9.216006591796875,0.050706251017004246,0.0068709086827933785,-0.014122633376717566
1768416552976008400,9.226008544921875,0.048891602810472244,0.006418671403266489,-0.016763503274321554
1768416552986009300,9.23600927734375,0.048451019436120984,0.007329758366197347,-0.024158874222636222
1768416552996011500,9.246011474609375,0.04533566389456391,-0.0031092545943334697,-0.00953062941133976
1768416553006012400,9.256012451171875,0.044604719271510836,-0.006298880948498844,-0.004752162963151931
1768416553016014300,9.266014404296875,0.01698605998381972,-0.005439633770659566,-0.013258710023760795
1768416553026015500,9.276015380859375,0.05479205902591348,0.003998568116873502,-0.009211480459570884
1768416553036017400,9.286017333984375,0.04483151376470923,-0.007092113685421645,-0.021335633495450017
1768416553046018300,9.296018310546875,0.04575286639332771,0.004522518925741315,-0.04246843789517879
1768416553056020500,9.3060205078125,0.029425854840129613,-0.005591792125068605,-0.0331049817442894
1768416553066021400,9.316021484375,-0.0019661855064332483,0.006478146505542099,-0.034409634602069854
1768416553076023300,9.326023193359376,0.00578895866498351,0.01917348702549934,-0.01971300072968006
1768416553086024400,9.3360244140625,0.007483195362240075,0.023634704218059778,-0.014281038808822632
1768416553096026400,9.3460263671875,0.005761047744750976,0.02743581353407353,-0.00255845231115818
1768416553106027300,9.35602734375,0.020390461599826812,0.0354867257816717,-0.033223055166006085
1768416553116029400,9.366029541015624,-0.003253448837995529,0.02183682448323816,-0.019295652100443837
1768416553126030300,9.3760302734375,0.008376198679208755,0.040238779146969314,-0.01672317126393318
1768416553136032300,9.3860322265625,0.022174422407150268,0.026554244926571845,-0.012315876215696334
1768416553146033400,9.396033447265625,0.00012158055305480956,0.013793803281150758,0.009434183299541472
1768416553156035300,9.406035400390625,0.019532383465766905,0.016556399862281978,0.002437456279993057
1768416553166037500,9.41603759765625,0.019622399836778638,0.01622084776498377,0.0024649288088083266
1768416553176038400,9.426038330078125,0.026048779622465372,0.008624364753998815,-0.011906710892915725
1768416553186040300,9.436040283203125,0.025699235532432793,-0.0012038228318095206,-0.0018897592693567274
1768416553196041500,9.44604150390625,0.01914411480054259,-0.003619103812612593,-0.014737550404667853
1768416553206043400,9.45604345703125,-0.009351327321678399,0.013782843495719134,-0.014599018716812132
1768416553216044500,9.46604443359375,-0.02456877019777894,0.019072255140729247,-0.003149403941631317
1768416553226046500,9.47604638671875,-0.03365691653862595,0.022320991270989177,-0.013255787414312362
1768416553236047600,9.486047607421876,-0.016754589315503835,0.01701181547958404,-0.01995265470445156
1768416553246049300,9.49604931640625,-0.00233209620937705,0.015678886375389993,-0.014270517414808273
1768416553256050400,9.506050537109376,0.022797522741556168,0.008156308850832282,-0.02161737304627895
1768416553266052600,9.516052490234374,0.008317600359767675,0.01860558747705072,-0.017759528574347493
1768416553276053800,9.5260537109375,0.014379384616762398,0.01627389312647283,-0.02661152807176113
1768416553286055700,9.5360556640625,0.02481295421719551,0.014745989439450203,-0.023015549406409264
1768416553296056800,9.546056884765624,0.05186579631567001,0.009849595700018107,-0.024184593185782432
1768416553306058800,9.556058837890625,0.1077995727226138,-0.003825513104908168,-0.023134791871905324
1768416553316059600,9.5660595703125,0.08268880460262298,-0.020050635186210274,-0.01597030707001686
1768416553326061800,9.576061767578125,0.04582183997631073,-0.011735190250910818,-0.026153262910246847
1768416553336062700,9.586062744140625,0.007111439440399408,0.019639168308489025,-0.019411387434601784
1768416553346065000,9.59606494140625,0.04150236934199929,0.03396726112943142,-0.04853928224146366
1768416553356065800,9.606065673828125,0.04099938825592398,0.03382240929864347,-0.04861819269657135
1768416553366067700,9.616067626953125,0.06235811036601662,0.04266217036899179,-0.032334581893682476
1768416553376068600,9.626068603515625,0.04319134534224867,0.020171631217375398,-0.002382511222362518
1768416553386070800,9.63607080078125,0.021432079607248303,-0.01666362309642136,-0.0002969371199607849
1768416553396071700,9.64607177734375,0.02718494404554367,-0.045314694171771405,0.052015433919429775
1768416553406073900,9.656073974609376,0.023821751222759483,-0.03621394407767802,0.02650046891272068
1768416553416074800,9.66607470703125,0.013326076171547173,0.006234035551361739,-0.015727730485796926
1768416553426076700,9.67607666015625,-0.009184154061228036,0.0047718540443107485,-0.036060324418544766
1768416553436077600,9.68607763671875,-0.005797141971439123,0.016485855376720426,-0.05473930592536926
1768416553446079700,9.696079833984374,0.03095408732071519,0.040362734320200974,-0.049454058998823165
1768416553456080600,9.70608056640625,0.057193274948745966,0.004518865663930774,-0.04909340899288654
1768416553466082800,9.716082763671874,0.06634221156612038,0.011543028679676354,-0.024174071791768073
1768416553476083700,9.726083740234374,0.023131723131984472,0.024417415560968218,0.04094049767553806
1768416553486085600,9.736085693359374,0.04280351506844163,0.008090038681589067,0.026992051821947097
1768416553496086500,9.74608642578125,0.059508858414739366,-0.005150733826681971,-0.06898585794270039
1768416553506088700,9.756088623046875,0.023429975426197052,0.003351027460955083,-0.06999941889941692
1768416553516089600,9.766089599609375,0.03632335926890373,0.012948986487463116,-0.06732698481976986
1768416553526091800,9.776091796875,0.010058598808199168,0.0426264780011028,-0.055575172227621074
1768416553536092700,9.7860927734375,-0.010324994659423827,0.04579162750113755,-0.031305238845944404
1768416553546094600,9.796094482421875,-0.018317746978998184,0.044855150368623434,-0.025323826348781584
1768416553556095500,9.806095458984375,-0.015403320837020873,0.025586642003431914,-0.014559271228313445
1768416553566097700,9.81609765625,-0.013246581194549798,0.021898053151182827,-0.0042705169260501856
1768416553576098600,9.8260986328125,-0.0094809450507164,0.01969389417041093,0.0028448680371046067
1768416553586100700,9.836100830078125,-0.002617489022016525,0.010890373457223176,-0.010272387689352035
1768416553596102000,9.846101806640625,-0.007050649163872003,0.009874584010802209,-0.012005495092272759
1768416553606103600,9.856103515625,0.009569938508421182,0.010914740713499486,-0.020004677152633665
1768416553616104700,9.866104736328126,0.014386252748966216,0.014157193233445286,-0.024856208837032316
1768416553626106600,9.876106689453126,0.02930310524329543,0.01814834522884339,-0.032839024284482
1768416553636107800,9.886107666015626,0.035317835488170385,-0.002917202620953321,-0.021353169152140618
1768416553646109700,9.896109619140624,0.03498845740333199,-0.0031109350947663185,-0.021401684468984602
1768416553656110800,9.90611083984375,0.037800884475558995,-0.02462123103737831,-0.007108370700478554
1768416553666112800,9.91611279296875,0.03722790689319372,-0.024829138167016207,-0.007196633505821228
1768416553676113700,9.92611376953125,0.019166472762823104,0.0013114113921299576,-0.014311433947086333
1768416553686115800,9.93611572265625,0.00918634601831436,0.007701441222801804,-0.015759294667840002
1768416553696117800,9.94611767578125,0.0051703883752226825,-0.0003928717751055956,-0.019925766697525975
1768416553706119000,9.956118896484375,0.00955824807062745,0.023701595441810785,-0.016631985849142075
1768416553716119800,9.966119873046875,0.025335662917047738,0.01905742289777845,-0.019799509969353674
1768416553726121700,9.976121826171875,0.020535569158941506,0.006602138211391865,-0.023613515299558636
1768416553736124000,9.9861240234375,0.01725757040157914,0.007225238545797765,-0.024855039793252945
1768416553746124800,9.996124755859375,0.03650689914226532,0.01849324967637658,-0.03610942425727844
1768416553756126700,10.006126708984375,0.02221899220123887,0.031904556445963676,-0.023692425754666326
1768416553766127600,10.016127685546875,0.05147314373627305,0.01859970572553575,-0.035492753663659095
1768416553776129800,10.0261298828125,0.07206468086615204,0.015289046807587145,-0.022749591946601866
1768416553786130700,10.036130615234375,0.049732145287841555,0.009991269193030894,-0.011202946537733077
1768416553796132900,10.0461328125,0.04539849999770522,0.006288030760921538,-0.024342998617887496
1768416553806133800,10.0561337890625,0.05072963189259171,0.014468231943994759,-0.03205868756175041
1768416553816135700,10.0661357421875,0.021190233675390482,0.01820058687273413,-0.036163784793019293
1768416553826136600,10.076136474609376,0.02104381094202399,0.018398045673593877,-0.036195348975062366
1768416553836138800,10.086138671875,0.02182838544845581,0.019959486304037273,-0.02678922272622585
1768416553846139600,10.0961396484375,0.013176146306842565,0.018670725135132668,-0.020676877325773238
1768416553856141800,10.106141845703124,0.015926029536873103,0.011799560724012554,-0.038350481182336804
1768416553866142700,10.116142822265624,0.016104747104644775,0.005810403311811387,-0.028643910682201384
1768416553876144600,10.12614453125,0.03924143867269158,0.00768156747855246,-0.018925065222382544
1768416553886145500,10.1361455078125,0.044229748479276895,0.0009853212429210543,-0.00988835680782795
1768416553896147700,10.146147705078125,0.05744081996902823,-0.0008567264271900057,-0.029077041402459144
1768416553906148600,10.156148681640625,0.06347410878390074,0.010324665865860878,-0.049860886234045027
1768416553916150800,10.16615087890625,0.028069910186529157,0.0031375308407470583,-0.045778000834584234
1768416553926151700,10.176151611328125,0.0014973989509046077,0.017752185518108306,-0.04765490062236786
1768416553936153600,10.186153564453125,-0.020251345390081405,0.028922398830018937,-0.052667760348320006
1768416553946154500,10.196154541015625,0.011365443623065947,0.04072254407592118,-0.048562663117051125
1768416553956156700,10.20615673828125,0.014623422505706548,0.019667408022284505,-0.03938566944897175
1768416553966157600,10.216157470703125,0.011682254487276077,0.008535919285565614,-0.02336333993077278
1768416553976159700,10.22615966796875,0.01164352991208434,-0.010572831940650939,0.007430442261695862
1768416553986160600,10.23616064453125,0.021821225055307147,-0.015124869221821427,0.03593932838737964
1768416553996162600,10.24616259765625,0.010116904866695404,-0.013993527104333043,0.03751286131441593
1768416554006163700,10.256163818359376,-0.02593859724625945,-0.011608239402994512,0.006897942820191383
1768416554016165600,10.26616552734375,-0.014155951124429703,0.02069054052494466,-0.013697101441025733
1768416554026166800,10.276166748046874,0.03278451761826873,0.022752404958195985,-0.03671849606633186
1768416554036168700,10.286168701171874,0.05334244473949074,0.02146572614852339,-0.02972761426568031
1768416554046169900,10.296169921875,0.031396862652152774,-0.0103740944981575,-0.022498247534036633
1768416554056171800,10.306171875,-0.029801410154253243,0.03501494355145841,-0.023058219504356384
1768416554066172700,10.316172607421874,-0.0037421091377735135,0.05723327816557139,-0.0378016151279211
1768416554076174800,10.3261748046875,0.03195361975207925,0.02502075174897909,-0.024973113214969634
1768416554086175700,10.33617578125,0.04028890189900994,-0.002975216418504715,0.012848960179090499
1768416554096178000,10.346177978515625,0.01794730623140931,-0.009927812035381794,0.04138882596492767
1768416554106178800,10.3561787109375,0.030720132434368132,-0.03573259030152112,0.04847323126792907
1768416554116180700,10.3661806640625,0.006708996119350195,-0.039790158596634866,0.011360767447948455
1768416554126181600,10.376181640625,-0.021066315034776927,0.01748323238361627,-0.02397884148061275
1768416554136183800,10.386183837890625,-0.008156272318214178,0.030468276565149426,-0.035199908196926116
1768416554146184700,10.396184814453125,0.003684533731639385,0.005107369608990848,-0.030881460475921628
1768416554156187000,10.406186767578125,0.02648468682169914,0.0002969736525788903,-0.021471242573857307
1768416554166187800,10.416187744140625,0.02543707746490836,0.0001926730278879404,-0.021644261053204536
1768416554176189700,10.426189697265626,0.048732612856477495,-0.011460939886793494,-0.01883154172003269
1768416554186190600,10.436190673828126,0.0538680760487914,0.0007525719329714775,-0.039493805998563766
1768416554196192800,10.44619287109375,0.04439911369681358,0.013438231309130787,-0.027101941937208173
1768416554206193700,10.456193603515626,0.018825111979246138,0.023256262827105818,-0.03175941235423088
1768416554216195800,10.46619580078125,0.021929069343954322,0.023481705613434312,-0.04014028720855713
1768416554226196700,10.47619677734375,0.01588496687412262,0.03140541128478944,-0.03578267652094364
1768416554236198700,10.48619873046875,0.0027377544008195397,0.02995119388848543,-0.033652678754925724
1768416554246199600,10.496199462890624,-0.008180091585218907,0.03099588063582778,-0.037788171124458314
1768416554256201700,10.50620166015625,-0.002743891880661249,0.029740802540816364,-0.05343699115514755
1768416554266202600,10.51620263671875,-0.005615063402801752,0.03050835284721106,-0.02600537887215614
1768416554276204500,10.52620458984375,0.00046864042505621905,0.034573885253071784,-0.016983868026733396
1768416554286205400,10.536205322265625,0.014331307691335678,0.015284224501997231,-0.02053133137524128
1768416554296207600,10.54620751953125,0.02389057867527008,0.010663250170461833,-0.010306874480843543
1768416554306208500,10.55620849609375,0.02349295765981078,0.010726524665020406,-0.010376432585716248
1768416554316210400,10.56621044921875,0.03167977124676108,0.004878785017505288,-0.012947744378447533
1768416554326211600,10.576211669921875,0.02562543964385986,0.0007935615304857492,-0.018284429231286047
1768416554336213500,10.586213623046875,0.04825462008118629,0.0019654548540711404,-0.03687105627954006
1768416554346214700,10.596214599609375,0.045226942823082206,0.02515022334754467,-0.051255555462837214
1768416554356216600,10.606216552734375,0.047818420621007676,0.026913104834221303,-0.03345218774676323
1768416554366217700,10.6162177734375,0.04632204458341002,0.00876676889937371,-0.024186931273341178
1768416554376219400,10.626219482421876,0.023874212062358856,0.014133410499058663,-0.034405542948842044
1768416554386220800,10.636220703125,0.010803279695659876,0.015730908823572098,-0.03131809832751751
1768416554396222500,10.646222412109376,-0.0007739069819450377,0.010157419540174305,-0.043969490107893944
1768416554406223600,10.6562236328125,-0.018392419650405643,0.006270275908522307,-0.005276479098200798
1768416554416225800,10.666225830078124,-0.0022597616255283356,-0.009757131643593311,-0.009090484428405762
1768416554426226700,10.676226806640624,0.0333912513397634,-0.006886398512870073,-0.02084580415189266
1768416554436228600,10.686228515625,0.034276363611221314,0.001923551941104233,-0.035601474735140796
1768416554446229800,10.696229736328124,0.02224924120903015,0.011163710505887865,-0.010739420679211615
1768416554456231700,10.706231689453125,0.012936638462543486,0.023954803017899394,-0.0077250412940979
1768416554466232600,10.716232666015625,0.012744915282726288,0.01914827951900661,-0.002768295669555664
1768416554476234800,10.72623486328125,0.005770400094985962,0.024759543529525398,-0.01919628337919712
1768416554486235600,10.736235595703125,0.016618103454262016,0.020038214096054434,-0.023674305576086043
1768416554496237600,10.746237548828125,0.004730389522761106,0.03899542802236974,-0.0227916775226593
1768416554506238700,10.75623876953125,0.012585925328731536,0.012159114751406012,-0.018647417324781417
1768416554516240600,10.76624072265625,0.005370587122440338,0.01453884949479252,-0.018707623079419134
1768416554526241500,10.776241455078125,0.010519055926799773,0.014325462472438811,-0.020845219630002975
1768416554536243700,10.78624365234375,0.021148001968860623,0.017102452905103562,-0.019241876086592672
1768416554546244600,10.79624462890625,0.013382190272957086,-0.004173559357598423,-0.011931845334172249
1768416554556246500,10.80624658203125,0.002998597294092178,-0.004104549241997301,0.008530512458086014
1768416554566247700,10.81624755859375,0.022041297546774148,0.0017357742840424179,0.00014145429730415344
1768416554576249600,10.82624951171875,0.012740239107608794,-0.00574318329449743,-0.030986674416065216
1768416554586250500,10.83625048828125,0.01286415774822235,-0.00567216388490051,-0.030967969715595244
1768416554596252700,10.846252685546874,0.03330708018764853,0.007227795829065143,-0.043992870983481404
1768416554606253600,10.856253662109374,0.0255703484557569,0.009313223800994455,-0.051770519247651095
1768416554616255500,10.86625537109375,0.015293284591287374,-0.005203779188171029,-0.04398644124269485
1768416554626256600,10.876256591796874,0.02526055185422301,-0.012623115533962845,-0.016593991926312446
1768416554636258600,10.886258544921875,0.025225480540841817,-0.01230970220323652,-0.016609774017333982
1768416554646259500,10.896259521484374,0.005984335106611251,-0.003457081651315093,-0.01848082858622074
1768416554656261600,10.90626171875,-0.03436754902601242,-0.00011595452986657619,0.004289221626520156
1768416554666262500,10.916262451171875,-0.035113398957252503,-0.0000938157632946968,0.004161795854568481
1768416554676264400,10.926264404296875,-0.023991262570768595,0.0001413081668317318,-0.0005149637848138809
1768416554686265600,10.936265625,-0.02529839964658022,0.00019062720127403736,-0.0007382511466741561
1768416554696267500,10.946267578125,-0.010149784222990274,-0.0019497823609039187,0.006945873615145683
1768416554706268700,10.9562685546875,-0.00242708101645112,0.012614201575145124,-0.008577858731150627
1768416554716269800,10.966269775390625,0.0021473872922360897,0.017159736050292848,0.001485270121693611
1768416554726271700,10.976271728515625,-0.01159106907248497,0.010152085777930914,-0.00013268646895885466
1768416554736272600,10.986272705078125,-0.013281506377458572,0.009948160703666508,-0.0004138414978981018
1768416554746274800,10.99627490234375,0.020030249985307454,0.017344700695760547,-0.026982114949822424
1768416554756275700,11.006275634765625,0.06127762165293097,0.02664933933150023,-0.042480128332972523
1768416554766277600,11.016277587890626,0.09322788040414452,0.021832002177648246,-0.07100362750589848
1768416554776278800,11.02627880859375,0.09191489810943602,0.022046339048072693,-0.07123392913043498
1768416554786280700,11.03628076171875,0.06741407858133315,0.005765723919868469,-0.07694879964590072
1768416554796281600,11.046281494140626,0.012467998037487268,0.04354647892285138,-0.07404080324470996
1768416554806283800,11.05628369140625,0.029815146418660878,0.05408047669045627,-0.08885843314826487
1768416554816284700,11.06628466796875,0.07373875155821442,0.024658640438318252,-0.05677811827659607
1768416554826286600,11.07628662109375,0.06552154283300042,0.024041166127100586,0.001073182189464569
1768416554836287700,11.086287841796874,0.022217823157459494,-0.011744469535909593,0.017013094121217726
1768416554846289700,11.09628955078125,0.0004663023374974727,-0.02978613951988518,0.06193477038741112
1768416554856290600,11.10629052734375,0.01720949347615242,-0.05175806162487715,0.03693710725307464
1768416554866292700,11.116292724609375,0.00725274760723114,-0.032474246092699464,-0.020062544819712636
1768416554876293600,11.126293701171875,0.00032250995263457296,0.0001055427337065339,-0.03410509869754314
1768416554886295600,11.136295654296875,0.005969137537479401,0.018806334213539957,-0.02898819407522678
1768416554896296700,11.146296630859375,0.050976007869094606,0.014412702364474533,-0.021899112597107886
1768416554906298600,11.156298583984375,0.04916282096728682,0.017519618871249257,-0.03617956688404083
1768416554916299500,11.166299560546875,0.06022898938283324,0.0134477663224563,-0.04076280302107334
1768416554926301700,11.1763017578125,0.045540100425481796,0.008659253404289484,-0.03260463100671768
1768416554936302600,11.186302490234375,0.03887304375171661,0.006452244879305362,-0.018597148442268372
1768416554946304500,11.196304443359375,0.04744578791633248,0.007025733918324112,-0.029704233390092847
1768416554956305400,11.206305419921875,0.01795636632069945,0.016007899134047328,-0.02239128002822399
1768416554966307600,11.2163076171875,0.023952391865104436,0.0062421092599630355,-0.014475100076198576
1768416554976308500,11.22630859375,0.004740618655830622,0.026739757561311125,-0.031411037307977674
1768416554986310700,11.236310546875,-0.0079788699246943,0.024391660065203904,-0.03550035244822502
1768416554996311600,11.2463115234375,-0.03667407240271568,0.030048991707153618,-0.027485388296842574
1768416555006313500,11.2563134765625,-0.01983385063037276,0.04061827998384833,-0.023683657926321027
1768416555016314600,11.266314697265624,-0.012005056700855493,0.024620171591453254,-0.009614800563454628
1768416555026316500,11.276316650390624,0.010609949080646037,0.001761785508133471,-0.012037059274315833
1768416555036317700,11.286317626953124,0.0105516430221498,0.002034976426325738,-0.012055763974785805
1768416555046319600,11.296319580078125,0.009014642713218926,0.016591361577808855,-0.03227028448581695
1768416555056320800,11.30632080078125,0.018916443524509666,0.01341678666230291,-0.04209492840766906
1768416555066322700,11.31632275390625,-0.010751549508422612,0.01313581429645419,-0.04107201510071754
1768416555076323600,11.326323486328125,-0.008653115924447775,0.017894626196101306,-0.020258359652757643
1768416555086325800,11.33632568359375,-0.007769611088186502,0.01756689207907766,-0.020097031611204148
1768416555096326700,11.34632666015625,0.020105068787187336,-0.015336612276360392,0.001454290461540222
1768416555106328800,11.356328857421875,-0.005142477454990148,0.006695807844214141,0.008078677037358284
1768416555116329700,11.366329833984375,-0.0339630598783493,-0.0066586907042190425,-0.008709960678219796
1768416555126331600,11.37633154296875,-0.03251329946145415,-0.0024612755469977854,-0.014894786792993544
1768416555136332500,11.38633251953125,-0.03282923354282975,-0.002979782995767891,-0.014932196193933486
1768416555146334700,11.396334716796876,0.0023556232154369355,-0.005957958556339144,-0.02841828523278236
1768416555156335600,11.406335693359376,0.024919191070646045,-0.010601363915391265,-0.028147067075967785
1768416555166337800,11.416337890625,0.024415625462681053,-0.011441979457996784,-0.028206103786826132
1768416555176338700,11.426338623046876,0.017367460516840218,0.005210610787756741,-0.013922726890444754
1768416555186340600,11.436340576171874,0.016800474283844232,0.004389576728455722,-0.013994038560986518
1768416555196341500,11.446341552734374,0.018296850321441887,0.011376951397769152,-0.04708966795504093
1768416555206343700,11.45634375,0.01884279376640916,0.032407044341694564,-0.034409050080180165
1768416555216344600,11.466344482421874,0.002295855852216482,0.026318426876701412,-0.022636779221892354
1768416555226346800,11.4763466796875,0.0069591714881360525,0.03038920171326026,-0.006380056425929069
1768416555236347600,11.48634765625,0.006617956835031509,0.029856702271755783,-0.006421557480096817
1768416555246349600,11.496349609375,-0.0036604222036898133,0.02308107065698132,0.0032809213668107983
1768416555256350500,11.5063505859375,0.01489712488055229,0.010375720199663192,-0.019894202515482903
1768416555266351600,11.5163515625,0.031039281386137006,0.015693481156323102,-0.05696048910617828
1768416555276352800,11.526352783203125,0.03303147811666131,0.028877354111894963,-0.06603752953112126
1768416555286353700,11.536353759765625,0.03489244968295097,0.033850594213511796,-0.06177694947719574
1768416555296355800,11.54635595703125,0.036199440628290176,0.03259853005949408,-0.057959437015652655
1768416555306356700,11.556356689453125,0.03412906409502029,0.017212050759419797,-0.04755085572600364
1768416555316359000,11.56635888671875,0.04800912088751793,0.021674692724086342,-0.030395138263702392
1768416555326359800,11.57635986328125,0.0284428351521492,0.018804927707742898,-0.023976503393054006
1768416555336361700,11.58636181640625,0.043502895509451626,0.018789894535392523,-0.04490647869706153
1768416555346362600,11.596362548828125,0.02917100329622626,0.03292314063766971,-0.03928162455260754
1768416555356364800,11.60636474609375,0.009545388589054345,0.02823140262486413,-0.050372927409410476
1768416555366365700,11.61636572265625,0.016540946564823387,0.00010254705902189015,-0.03689677524268627
1768416555376367900,11.626367919921876,0.0378103829562664,-0.0070878028364852064,-0.018772505009174347
1768416555386368800,11.63636865234375,0.031079028874635695,-0.005467508158273995,-0.02307224802970886
1768416555396370700,11.64637060546875,0.03374327964782715,0.006315192762482911,-0.03276362096071243
1768416555406371600,11.65637158203125,0.0334533567905426,-0.017475250006560236,-0.03771218327879906
1768416555416373800,11.666373779296874,0.034732290685176845,-0.009328640565834939,-0.015591536885499952
1768416555426374700,11.676374755859374,0.0057109249927103515,-0.016943627347890285,-0.009024433454871177
1768416555436376800,11.686376953125,0.0009223755419254302,-0.027541027474217116,0.001132218900322914
1768416555446377700,11.696377685546874,0.005295768320560455,-0.013033559498377143,-0.009258826732635497
1768416555456379600,11.706379638671875,0.0010429331816732882,0.007608191715087741,-0.022835516664385793
1768416555466380500,11.716380615234375,-0.0028898762226104734,0.017064732976909726,-0.033111996006965634
1768416555476382700,11.7263828125,0.007296002227067947,0.009854527603462337,-0.009466332003474236
1768416555486383600,11.736383544921875,0.008199673068523407,0.00973572352938354,-0.009310849180817603
1768416555496385800,11.7463857421875,-0.018613515055179594,0.006525109186116606,0.014779051458835601
1768416555506386700,11.75638671875,-0.021927608039230106,0.009689856827352196,0.005831190371513366
1768416555516388600,11.766388671875,0.016352730516344307,0.016117515254672615,-0.023317747223377226
1768416555526389500,11.776389404296875,0.028987609553337096,0.027748898071236906,-0.02406885785162449
1768416555536391700,11.7863916015625,0.029679683470726012,0.027426114123966543,-0.023943185645341872
1768416555546392600,11.796392578125,0.027700492352247235,-0.0012928162895143032,-0.04062427133321762
1768416555556394800,11.806394775390626,0.012625818947702646,0.013197408290579915,-0.027544425007700917
1768416555566395600,11.816395751953126,0.04258811875209212,0.024001418638601897,-0.04155132305026054
1768416555576397600,11.8263974609375,0.05031900526508688,0.014182565136719495,-0.024722353324294087
1768416555586398700,11.836398681640626,0.05090469619855285,0.014171349622961132,-0.024624153646826744
1768416555596400600,11.846400634765626,-0.003972410762310028,-0.0005069448751397431,0.023641572350263595
1768416555606401800,11.85640185546875,-0.012589578590542078,-0.03116400374434888,0.04492459887564182
1768416555616403700,11.86640380859375,0.015225772313028574,-0.05250126294130459,0.020030396115779874
1768416555626404900,11.87640478515625,0.020578823778778312,-0.027781631297059354,-0.0230225636690855
1768416555636406800,11.88640673828125,0.019760347002744674,-0.028002032582089303,-0.023152327528595924
1768416555646407700,11.89640771484375,0.03171615773439407,-0.01200470964098349,-0.022522212931513786
1768416555656409900,11.906409912109375,0.20333309972062705,-0.017984058045223354,-0.09105097475647926
1768416555666410800,11.91641064453125,0.20188567739129065,-0.017769520245399326,-0.09129939655959605
1768416555676413000,11.926412841796875,0.21917218162640928,-0.009757624833937734,-0.07383037536442279
1768416555686413800,11.936413818359375,0.21728198396563528,-0.008395707097277045,-0.07418868728280067
1768416555696415700,11.946415771484375,0.005392652823776006,0.022014117278903723,-0.019241291564702986
1768416555706416600,11.956416748046875,-0.016883330261707304,0.023806754583027213,-0.019620061749219892
1768416555716418800,11.966418701171875,-0.017852613685280082,0.022204561817087232,-0.04574234499931335
1768416555726419700,11.976419677734375,-0.016821370941400526,0.022858550480101256,-0.045589200264215465
1768416555736422000,11.986421875,-0.03132102093696594,0.03368773180199787,-0.048398412466049194
1768416555746422800,11.9964228515625,-0.02578326055407524,0.03320568390609696,-0.03609948738515377
1768416555756424700,12.0064248046875,-0.02171732628941536,0.03833294552564621,-0.03042787148952484
1768416555766425600,12.016425537109376,-0.038098113856464624,0.044321664546430106,-0.0023509470403194426
1768416555776427800,12.026427734375,-0.04456760213151574,0.03160917196227237,0.0017395371437072752
1768416555786428700,12.0364287109375,-0.040890813314914704,0.01992158371275291,0.01716857694387436
1768416555796430600,12.0464306640625,-0.05424596945047378,0.013220277709513902,0.03439677512049675
1768416555806431700,12.056431640625,-0.05421206718087196,0.020738215591572223,0.026771102547645566
1768416555816433700,12.06643359375,-0.038353988313674925,0.026026659122202544,0.014379823008179663
1768416555826434600,12.0764345703125,-0.007141542317718267,0.004811272739246487,0.0009866729497909545
1768416555836436700,12.086436767578125,0.012761281895637511,0.010070946833118795,-0.007456745746731758
1768416555846437600,12.096437744140625,0.013780688071250914,0.02330284191519022,-0.03231295458376408
1768416555856439600,12.106439453125,0.04189852905273437,0.02163881769310683,-0.02107552125453949
1768416555866440700,12.116440673828125,0.029029548998922107,0.012035451839119195,-0.0012824410259723662
1768416555876442600,12.126442626953125,0.024008652096986768,-0.024464798366650938,-0.006014145722985267
1768416555886443500,12.136443603515625,0.03082300828695297,-0.017330708703026176,0.00001052139401435852
1768416555896445700,12.14644580078125,0.0041175183214247225,-0.026420973935723305,-0.007878770551085471
1768416555906446600,12.156446533203125,-0.013518822264671325,-0.029502171479351816,-0.02397416530549526
1768416555916448500,12.166448486328125,-0.0121921037055552,-0.007213164515513926,-0.027026538613438605
