time,seconds_elapsed,z,y,x
1768416543818329600,0.06832958984375,-0.0549774169921875,-0.9912261962890625,-0.020843505859375
1768416543828330500,0.07833056640625,-0.0545196533203125,-0.9952239990234375,-0.0184478759765625
1768416543838332700,0.088332763671875,-0.0540618896484375,-0.997039794921875,-0.0172882080078125
1768416543848333600,0.09833349609375,-0.0538482666015625,-0.9976959228515625,-0.0172576904296875
1768416543858335500,0.10833544921875,-0.05645751953125,-1.000152587890625,-0.0182037353515625
1768416543868337700,0.118337646484375,-0.057952880859375,-1.0006866455078125,-0.015838623046875
1768416543878338600,0.128338623046875,-0.0594482421875,-1.001617431640625,-0.014739990234375
1768416543888340500,0.138340576171875,-0.0593109130859375,-1.0010833740234375,-0.0141143798828125
1768416543898341600,0.148341552734375,-0.059417724609375,-0.9999542236328125,-0.0149688720703125
1768416543908343600,0.158343505859375,-0.0597076416015625,-0.9986724853515625,-0.0147247314453125
1768416543918345700,0.168345703125,-0.057861328125,-0.9999237060546875,-0.0134429931640625
1768416543928346600,0.1783466796875,-0.057891845703125,-1.0028228759765625,-0.0118865966796875
1768416543938348500,0.1883486328125,-0.06072998046875,-1.00091552734375,-0.011138916015625
1768416543948349400,0.198349365234375,-0.0625,-0.9989166259765625,-0.009765625
1768416543958351600,0.2083515625,-0.0622711181640625,-0.999114990234375,-0.011138916015625
1768416543968353500,0.218353515625,-0.063873291015625,-0.9983978271484375,-0.010955810546875
1768416543978354700,0.228354736328125,-0.0662384033203125,-0.998291015625,-0.0102386474609375
1768416543988356600,0.238356689453125,-0.068939208984375,-0.9990081787109375,-0.011383056640625
1768416543998357500,0.248357421875,-0.0684661865234375,-1.0000762939453125,-0.0130615234375
1768416544008359700,0.258359619140625,-0.0666656494140625,-1.0021820068359375,-0.0160980224609375
1768416544018361600,0.268361572265625,-0.064788818359375,-0.9988555908203125,-0.0177154541015625
1768416544028362500,0.278362548828125,-0.066162109375,-0.9946441650390625,-0.01824951171875
1768416544038364700,0.28836474609375,-0.0685272216796875,-0.9920501708984375,-0.0186004638671875
1768416544048365600,0.298365478515625,-0.06927490234375,-0.994903564453125,-0.0162200927734375
1768416544058367500,0.308367431640625,-0.067474365234375,-0.9993896484375,-0.01629638671875
1768416544068369700,0.31836962890625,-0.0647735595703125,-1.00177001953125,-0.0165863037109375
1768416544078370600,0.32837060546875,-0.0655975341796875,-1.00323486328125,-0.0139312744140625
1768416544088372500,0.33837255859375,-0.0626373291015625,-1.0031280517578125,-0.011627197265625
1768416544098373600,0.34837353515625,-0.0616607666015625,-1.0044708251953125,-0.0124053955078125
1768416544108375600,0.35837548828125,-0.0643157958984375,-1.001922607421875,-0.0143280029296875
1768416544118377700,0.368377685546875,-0.0655517578125,-0.999542236328125,-0.0156097412109375
1768416544128378600,0.378378662109375,-0.0659027099609375,-0.9978485107421875,-0.0135498046875
1768416544138380500,0.388380615234375,-0.06488037109375,-0.9957427978515625,-0.013153076171875
1768416544148381400,0.39838134765625,-0.0645904541015625,-0.9941558837890625,-0.0099639892578125
1768416544158383600,0.408383544921875,-0.0658416748046875,-0.9972686767578125,-0.0111083984375
1768416544168385500,0.418385498046875,-0.06768798828125,-1.0019989013671875,-0.013214111328125
1768416544178386700,0.42838671875,-0.067779541015625,-1.0013885498046875,-0.0123748779296875
1768416544188388600,0.438388671875,-0.0677032470703125,-1.0006103515625,-0.012664794921875
1768416544198389500,0.448389404296875,-0.065704345703125,-1.00054931640625,-0.014617919921875
1768416544208391700,0.4583916015625,-0.064239501953125,-0.997711181640625,-0.015960693359375
1768416544218393600,0.4683935546875,-0.06414794921875,-0.99749755859375,-0.014892578125
1768416544228394500,0.47839453125,-0.0656280517578125,-0.9971466064453125,-0.0171051025390625
1768416544238396700,0.488396728515625,-0.064117431640625,-0.9979400634765625,-0.017364501953125
1768416544248397600,0.4983974609375,-0.0635528564453125,-0.9970703125,-0.015777587890625
1768416544258399500,0.5083994140625,-0.0634918212890625,-0.9952239990234375,-0.01678466796875
1768416544268401700,0.518401611328125,-0.06268310546875,-0.9978179931640625,-0.0165557861328125
1768416544278402800,0.52840283203125,-0.062652587890625,-0.9995574951171875,-0.0161285400390625
1768416544288404700,0.53840478515625,-0.0643463134765625,-1.0003662109375,-0.0155487060546875
1768416544298405600,0.548405517578125,-0.068115234375,-0.9975433349609375,-0.0153656005859375
1768416544308407800,0.55840771484375,-0.0694580078125,-0.996673583984375,-0.016448974609375
1768416544318409700,0.56840966796875,-0.0685882568359375,-0.9960784912109375,-0.017822265625
1768416544328410600,0.57841064453125,-0.0674591064453125,-0.9978485107421875,-0.0191650390625
1768416544338412800,0.588412841796875,-0.0676727294921875,-0.9983062744140625,-0.0173797607421875
1768416544348413700,0.59841357421875,-0.068023681640625,-0.997711181640625,-0.017578125
1768416544358415600,0.60841552734375,-0.06842041015625,-0.998016357421875,-0.018890380859375
1768416544368417800,0.618417724609375,-0.0686492919921875,-0.9994659423828125,-0.019866943359375
1768416544378418700,0.628418701171875,-0.0725250244140625,-1.001068115234375,-0.01800537109375
1768416544388420900,0.6384208984375,-0.072784423828125,-1.000030517578125,-0.017852783203125
1768416544398421800,0.648421875,-0.07403564453125,-1.00079345703125,-0.0186004638671875
1768416544408423700,0.658423583984375,-0.0743865966796875,-1.0009002685546875,-0.0192413330078125
1768416544418425900,0.66842578125,-0.0746307373046875,-1.0006561279296875,-0.0207366943359375
1768416544428426800,0.6784267578125,-0.0736541748046875,-0.9994964599609375,-0.0211334228515625
1768416544438428700,0.6884287109375,-0.07208251953125,-0.9972076416015625,-0.020538330078125
1768416544448429800,0.698429931640625,-0.069183349609375,-0.9955902099609375,-0.0174102783203125
1768416544458431700,0.708431640625,-0.0675811767578125,-0.9940185546875,-0.016998291015625
1768416544468433700,0.71843359375,-0.06781005859375,-0.995758056640625,-0.016265869140625
1768416544478434800,0.728434814453125,-0.0685577392578125,-0.99609375,-0.01556396484375
1768416544488436700,0.738436767578125,-0.0703277587890625,-0.9971466064453125,-0.0148468017578125
1768416544498437600,0.748437744140625,-0.07061767578125,-0.9977264404296875,-0.0153045654296875
1768416544508439800,0.758439697265625,-0.07293701171875,-0.9969482421875,-0.013336181640625
1768416544518441700,0.768441650390625,-0.0726318359375,-0.9986419677734375,-0.0137786865234375
1768416544528442600,0.778442626953125,-0.073699951171875,-1.0005950927734375,-0.0098419189453125
1768416544538444800,0.78844482421875,-0.0743865966796875,-1.0004730224609375,-0.00860595703125
1768416544548445700,0.79844580078125,-0.0730438232421875,-0.9995574951171875,-0.0092926025390625
1768416544558447600,0.808447509765625,-0.07379150390625,-0.999114990234375,-0.008758544921875
1768416544568449800,0.81844970703125,-0.0746917724609375,-0.997955322265625,-0.010467529296875
1768416544578450700,0.82845068359375,-0.0758209228515625,-0.9950714111328125,-0.012359619140625
1768416544588452900,0.838452880859375,-0.07452392578125,-0.9952392578125,-0.0131378173828125
1768416544598453800,0.848453857421875,-0.0749053955078125,-0.99700927734375,-0.0133819580078125
1768416544608455700,0.85845556640625,-0.07550048828125,-0.9992218017578125,-0.01275634765625
1768416544618457900,0.868457763671875,-0.0745697021484375,-1.0008697509765625,-0.012847900390625
1768416544628458800,0.878458740234375,-0.075439453125,-1.000885009765625,-0.01348876953125
1768416544638460700,0.888460693359375,-0.0749969482421875,-1.001861572265625,-0.0139617919921875
1768416544648461800,0.8984619140625,-0.0753021240234375,-1.001953125,-0.0140380859375
1768416544658463700,0.908463623046875,-0.0747833251953125,-0.99774169921875,-0.0140838623046875
1768416544668465700,0.918465576171875,-0.07550048828125,-0.9974212646484375,-0.01397705078125
1768416544678466800,0.928466796875,-0.074066162109375,-0.9967041015625,-0.012786865234375
1768416544688468700,0.93846875,-0.07489013671875,-0.997772216796875,-0.012786865234375
1768416544698469600,0.9484697265625,-0.0797882080078125,-0.9965667724609375,-0.01409912109375
1768416544708471800,0.958471923828125,-0.0769805908203125,-0.9977264404296875,-0.0139007568359375
1768416544718473700,0.9684736328125,-0.0729217529296875,-1.0002288818359375,-0.009613037109375
1768416544728474600,0.978474609375,-0.0700225830078125,-1.0001678466796875,-0.0135040283203125
1768416544738476800,0.988476806640625,-0.0707550048828125,-0.9993896484375,-0.0157318115234375
1768416544748477700,0.998477783203125,-0.0750885009765625,-0.9949188232421875,-0.0162200927734375
1768416544758479600,1.008479736328125,-0.07794189453125,-0.9935455322265625,-0.0171661376953125
1768416544768480800,1.018480712890625,-0.0776519775390625,-0.9948577880859375,-0.0169677734375
1768416544778482700,1.028482666015625,-0.0758209228515625,-0.9980316162109375,-0.0146331787109375
1768416544788484900,1.03848486328125,-0.0722198486328125,-0.9992828369140625,-0.013427734375
1768416544798485800,1.04848583984375,-0.073638916015625,-1.00018310546875,-0.0119171142578125
1768416544808487700,1.05848779296875,-0.0697479248046875,-1.002960205078125,-0.0127105712890625
1768416544818489900,1.06848974609375,-0.0703125,-1.002685546875,-0.0133056640625
1768416544828490800,1.07849072265625,-0.0738525390625,-1.000396728515625,-0.0157623291015625
1768416544838492700,1.08849267578125,-0.0758819580078125,-0.9956512451171875,-0.015533447265625
1768416544848493800,1.098493896484375,-0.075653076171875,-0.9961395263671875,-0.01641845703125
1768416544858495700,1.108495849609375,-0.0767364501953125,-0.997222900390625,-0.01806640625
1768416544868496600,1.11849658203125,-0.0775604248046875,-0.9972686767578125,-0.0174102783203125
1768416544878498800,1.128498779296875,-0.07623291015625,-0.99798583984375,-0.0162200927734375
1768416544888500700,1.138500732421875,-0.07568359375,-1.0001373291015625,-0.0160980224609375
1768416544898501600,1.148501708984375,-0.0739593505859375,-1.0003814697265625,-0.0164337158203125
1768416544908503800,1.15850390625,-0.073028564453125,-1.001953125,-0.016693115234375
1768416544918504700,1.168504638671875,-0.0724334716796875,-1.00128173828125,-0.017242431640625
1768416544928506600,1.178506591796875,-0.075347900390625,-0.999603271484375,-0.0173797607421875
1768416544938508800,1.1885087890625,-0.075286865234375,-0.99908447265625,-0.0149688720703125
1768416544948509700,1.198509765625,-0.072479248046875,-0.996917724609375,-0.0157623291015625
1768416544958511600,1.20851171875,-0.074859619140625,-0.9966583251953125,-0.0146636962890625
1768416544968512800,1.2185126953125,-0.076446533203125,-0.996673583984375,-0.015472412109375
1768416544978514700,1.2285146484375,-0.074371337890625,-0.9957733154296875,-0.0181427001953125
1768416544988516900,1.238516845703125,-0.0747222900390625,-0.9971771240234375,-0.0181427001953125
1768416544998517800,1.248517822265625,-0.077484130859375,-0.9971923828125,-0.017181396484375
1768416545008519700,1.258519775390625,-0.07647705078125,-0.99737548828125,-0.0161590576171875
1768416545018520600,1.2685205078125,-0.0774383544921875,-0.9965972900390625,-0.014801025390625
1768416545028522800,1.278522705078125,-0.0763702392578125,-0.9968414306640625,-0.01470947265625
1768416545038524700,1.288524658203125,-0.076507568359375,-0.9984893798828125,-0.01348876953125
1768416545048525800,1.29852587890625,-0.07464599609375,-0.99835205078125,-0.013519287109375
1768416545058527700,1.30852783203125,-0.0732879638671875,-0.9974365234375,-0.01458740234375
1768416545068528600,1.318528564453125,-0.0740203857421875,-0.9978790283203125,-0.016021728515625
1768416545078530800,1.32853076171875,-0.07440185546875,-0.9980010986328125,-0.0148162841796875
1768416545088532700,1.33853271484375,-0.075347900390625,-0.9988861083984375,-0.0144805908203125
1768416545098533600,1.34853369140625,-0.077301025390625,-0.998382568359375,-0.0135955810546875
1768416545108535800,1.358535888671875,-0.078277587890625,-0.997650146484375,-0.0127716064453125
1768416545118536700,1.36853662109375,-0.0775909423828125,-0.996673583984375,-0.014678955078125
1768416545128538600,1.37853857421875,-0.0780029296875,-0.9953460693359375,-0.0147552490234375
1768416545138540800,1.388540771484375,-0.0759124755859375,-0.997772216796875,-0.013702392578125
1768416545148541700,1.398541748046875,-0.0748748779296875,-1.0005645751953125,-0.0147857666015625
1768416545158543600,1.408543701171875,-0.075439453125,-0.999847412109375,-0.013092041015625
1768416545168544800,1.418544677734375,-0.0736541748046875,-0.999603271484375,-0.013916015625
1768416545178546700,1.428546630859375,-0.07440185546875,-0.9992828369140625,-0.0138092041015625
1768416545188548900,1.438548828125,-0.075714111328125,-0.9990081787109375,-0.0150909423828125
1768416545198549800,1.4485498046875,-0.0777740478515625,-0.998565673828125,-0.0155029296875
1768416545208551700,1.4585517578125,-0.079254150390625,-0.9972381591796875,-0.01470947265625
1768416545218552600,1.468552490234375,-0.0784149169921875,-0.996734619140625,-0.013031005859375
1768416545228554800,1.4785546875,-0.07861328125,-0.997100830078125,-0.0153656005859375
1768416545238556700,1.488556640625,-0.0767669677734375,-0.9964752197265625,-0.016204833984375
1768416545248557800,1.498557861328125,-0.07720947265625,-0.9972381591796875,-0.0161285400390625
1768416545258559700,1.508559814453125,-0.0777130126953125,-0.9979705810546875,-0.0152130126953125
1768416545268560400,1.518560302734375,-0.07611083984375,-0.9971466064453125,-0.0143890380859375
1768416545278562600,1.5285625,-0.077362060546875,-0.9965362548828125,-0.0146484375
1768416545288564500,1.538564453125,-0.07794189453125,-0.9971923828125,-0.011749267578125
1768416545298565400,1.5485654296875,-0.077239990234375,-0.9980926513671875,-0.0147705078125
1768416545308567600,1.558567626953125,-0.0760955810546875,-0.9993438720703125,-0.0142669677734375
1768416545318568400,1.568568359375,-0.0767364501953125,-1.000457763671875,-0.0157623291015625
1768416545328570400,1.5785703125,-0.0772705078125,-0.9997100830078125,-0.0150146484375
1768416545338571500,1.588571533203125,-0.0773773193359375,-1.000274658203125,-0.015228271484375
1768416545348573400,1.598573486328125,-0.0772857666015625,-0.9984130859375,-0.0153961181640625
1768416545358575400,1.608575439453125,-0.0773468017578125,-0.9960784912109375,-0.015625
1768416545368576500,1.618576416015625,-0.0770416259765625,-0.9957733154296875,-0.0169830322265625
1768416545378578400,1.628578369140625,-0.07598876953125,-0.9956512451171875,-0.0164794921875
1768416545388579300,1.638579345703125,-0.07647705078125,-0.9974212646484375,-0.01446533203125
1768416545398581500,1.64858154296875,-0.07666015625,-0.9983367919921875,-0.0146026611328125
1768416545408583400,1.65858349609375,-0.0769805908203125,-0.9986114501953125,-0.012481689453125
1768416545418584300,1.668584228515625,-0.0768890380859375,-0.998504638671875,-0.0122833251953125
1768416545428586500,1.67858642578125,-0.075836181640625,-0.9970245361328125,-0.01177978515625
1768416545438587400,1.68858740234375,-0.07415771484375,-0.997650146484375,-0.0133209228515625
1768416545448589600,1.698589599609375,-0.0746612548828125,-0.99591064453125,-0.0148162841796875
1768416545458591500,1.708591552734375,-0.0782012939453125,-0.9983978271484375,-0.015960693359375
1768416545468592400,1.71859228515625,-0.079132080078125,-0.9979705810546875,-0.01751708984375
1768416545478594600,1.728594482421875,-0.07958984375,-0.9973602294921875,-0.015533447265625
1768416545488595500,1.738595458984375,-0.07843017578125,-0.998291015625,-0.0150299072265625
1768416545498597400,1.748597412109375,-0.0767974853515625,-0.998199462890625,-0.0122222900390625
1768416545508599600,1.758599609375,-0.072540283203125,-0.9994354248046875,-0.01434326171875
1768416545518600400,1.768600341796875,-0.072723388671875,-0.99884033203125,-0.0157928466796875
1768416545528602400,1.778602294921875,-0.07855224609375,-0.996337890625,-0.016693115234375
1768416545538603500,1.788603515625,-0.0801849365234375,-0.9946441650390625,-0.0159759521484375
1768416545548605400,1.79860546875,-0.0821990966796875,-0.996612548828125,-0.0130615234375
1768416545558607400,1.808607421875,-0.0781097412109375,-1.000213623046875,-0.0133514404296875
1768416545568608500,1.8186083984375,-0.07513427734375,-1.000030517578125,-0.0131988525390625
1768416545578610400,1.8286103515625,-0.0757598876953125,-1.0002288818359375,-0.013092041015625
1768416545588611300,1.838611328125,-0.0735015869140625,-0.9983978271484375,-0.0126800537109375
1768416545598613500,1.848613525390625,-0.075042724609375,-0.99835205078125,-0.0118560791015625
1768416545608615400,1.858615478515625,-0.0810394287109375,-0.996246337890625,-0.0107269287109375
1768416545618616300,1.8686162109375,-0.0816802978515625,-0.99627685546875,-0.010955810546875
1768416545628618500,1.878618408203125,-0.080352783203125,-0.9972381591796875,-0.010650634765625
1768416545638619400,1.888619384765625,-0.0763702392578125,-0.9986572265625,-0.011932373046875
1768416545648621600,1.89862158203125,-0.074188232421875,-0.996368408203125,-0.011871337890625
1768416545658622500,1.90862255859375,-0.077667236328125,-0.996917724609375,-0.0142364501953125
1768416545668624400,1.918624267578125,-0.0784454345703125,-0.9965362548828125,-0.013580322265625
1768416545678626600,1.92862646484375,-0.0763092041015625,-0.9967193603515625,-0.0145263671875
1768416545688627500,1.93862744140625,-0.076507568359375,-0.9984893798828125,-0.015777587890625
1768416545698629400,1.94862939453125,-0.07733154296875,-0.9985198974609375,-0.0167083740234375
1768416545708630500,1.958630615234375,-0.0774993896484375,-0.998779296875,-0.0168609619140625
1768416545718632400,1.968632568359375,-0.0743560791015625,-0.9983673095703125,-0.01531982421875
1768416545728634400,1.97863427734375,-0.0762939453125,-0.99749755859375,-0.0151824951171875
1768416545738635500,1.988635498046875,-0.075469970703125,-0.9979400634765625,-0.0158843994140625
1768416545748637400,1.998637451171875,-0.0751495361328125,-0.996917724609375,-0.0161895751953125
1768416545758638300,2.008638427734375,-0.075439453125,-0.99725341796875,-0.0141448974609375
1768416545768640500,2.018640625,-0.074188232421875,-0.9993438720703125,-0.0116424560546875
1768416545778642400,2.028642333984375,-0.0726318359375,-1.0013275146484375,-0.0109100341796875
1768416545788643300,2.038643310546875,-0.07086181640625,-1.000244140625,-0.0109710693359375
1768416545798645500,2.0486455078125,-0.0724334716796875,-0.999603271484375,-0.0102081298828125
1768416545808646400,2.058646484375,-0.075775146484375,-0.998382568359375,-0.0142364501953125
1768416545818648300,2.0686484375,-0.07537841796875,-0.99884033203125,-0.016815185546875
1768416545828650500,2.078650390625,-0.0771484375,-0.99774169921875,-0.01776123046875
1768416545838651400,2.0886513671875,-0.076873779296875,-0.99676513671875,-0.0164642333984375
1768416545848653600,2.098653564453125,-0.0762786865234375,-0.994537353515625,-0.0142822265625
1768416545858654500,2.108654541015625,-0.0767822265625,-0.9919891357421875,-0.0127716064453125
1768416545868656400,2.118656494140625,-0.0776519775390625,-0.9948883056640625,-0.012603759765625
1768416545878657300,2.1286572265625,-0.076446533203125,-0.996856689453125,-0.0119476318359375
1768416545888659500,2.138659423828125,-0.0732574462890625,-0.9972991943359375,-0.010467529296875
1768416545898661400,2.148661376953125,-0.0731964111328125,-0.99871826171875,-0.011993408203125
1768416545908662500,2.15866259765625,-0.0743255615234375,-0.9988861083984375,-0.0130462646484375
1768416545918664400,2.16866455078125,-0.0736846923828125,-0.999267578125,-0.011749267578125
1768416545928665300,2.178665283203125,-0.072265625,-0.999786376953125,-0.01434326171875
1768416545938667500,2.18866748046875,-0.0722503662109375,-0.9984130859375,-0.0166015625
1768416545948669400,2.19866943359375,-0.0723419189453125,-0.9981842041015625,-0.018402099609375
1768416545958670300,2.20867041015625,-0.073883056640625,-0.99725341796875,-0.017547607421875
1768416545968672500,2.218672607421875,-0.076904296875,-0.996490478515625,-0.0172271728515625
1768416545978673400,2.22867333984375,-0.0768890380859375,-0.99761962890625,-0.0162506103515625
1768416545988675300,2.23867529296875,-0.075347900390625,-0.997406005859375,-0.01544189453125
1768416545998677500,2.248677490234375,-0.0731201171875,-0.9955902099609375,-0.0153961181640625
1768416546008678400,2.258678466796875,-0.0721435546875,-0.9954986572265625,-0.0170745849609375
1768416546018680600,2.2686806640625,-0.0719757080078125,-0.9962615966796875,-0.017242431640625
1768416546028681500,2.278681396484375,-0.0735626220703125,-0.998138427734375,-0.017730712890625
1768416546038683400,2.288683349609375,-0.071990966796875,-1.0004730224609375,-0.0181121826171875
1768416546048684300,2.298684326171875,-0.0708770751953125,-1.00054931640625,-0.017364501953125
1768416546058686500,2.3086865234375,-0.0694580078125,-1.0004730224609375,-0.017303466796875
1768416546068688400,2.3186884765625,-0.068359375,-1.000732421875,-0.0177764892578125
1768416546078689300,2.328689208984375,-0.0683135986328125,-0.99945068359375,-0.018035888671875
1768416546088691500,2.33869140625,-0.0700225830078125,-0.999053955078125,-0.0182342529296875
1768416546098692400,2.3486923828125,-0.07110595703125,-0.998199462890625,-0.017486572265625
1768416546108694500,2.358694580078125,-0.0709991455078125,-0.996673583984375,-0.0182037353515625
1768416546118696400,2.368696533203125,-0.0719451904296875,-0.99530029296875,-0.0193328857421875
1768416546128697300,2.378697265625,-0.070281982421875,-0.9917449951171875,-0.0189056396484375
1768416546138699500,2.388699462890625,-0.0657501220703125,-0.9867401123046875,-0.0194244384765625
1768416546148700400,2.398700439453125,-0.066009521484375,-0.982666015625,-0.0251922607421875
1768416546158702300,2.408702392578125,-0.0715789794921875,-0.9748382568359375,-0.024566650390625
1768416546168704500,2.41870458984375,-0.0807037353515625,-0.9703826904296875,-0.0200653076171875
1768416546178705400,2.428705322265625,-0.0846099853515625,-0.9693603515625,-0.0169830322265625
1768416546188707300,2.438707275390625,-0.08099365234375,-0.97015380859375,-0.0090484619140625
1768416546198708500,2.44870849609375,-0.0760955810546875,-0.9771575927734375,0.00909423828125
1768416546208710400,2.45871044921875,-0.081573486328125,-0.9917755126953125,0.0227508544921875
1768416546218711300,2.468711181640625,-0.0858917236328125,-1.00030517578125,0.025390625
1768416546228713500,2.47871337890625,-0.073150634765625,-0.9974212646484375,0.02435302734375
1768416546238715400,2.48871533203125,-0.059661865234375,-0.99285888671875,0.0246124267578125
1768416546248716300,2.49871630859375,-0.0587158203125,-0.988739013671875,0.0250701904296875
1768416546258718500,2.508718505859375,-0.0623779296875,-0.9918212890625,0.024139404296875
1768416546268719000,2.518718994140625,-0.074737548828125,-1.001556396484375,0.0201416015625
1768416546278721000,2.528720947265625,-0.0967864990234375,-1.01611328125,0.012481689453125
1768416546288723000,2.538722900390625,-0.126495361328125,-1.0326080322265625,0.0130615234375
1768416546298724000,2.54872412109375,-0.1456298828125,-1.045562744140625,0.0230560302734375
1768416546308726000,2.55872607421875,-0.143829345703125,-1.0517120361328125,0.0342864990234375
1768416546318727000,2.568726806640625,-0.131103515625,-1.052398681640625,0.037689208984375
1768416546328729000,2.57872900390625,-0.110992431640625,-1.0488433837890625,0.0304718017578125
1768416546338730000,2.58872998046875,-0.094696044921875,-1.044708251953125,0.0155029296875
1768416546348732000,2.59873193359375,-0.0943450927734375,-1.0443572998046875,0.002288818359375
1768416546358734000,2.608734130859375,-0.1038818359375,-1.0503387451171875,-0.003631591796875
1768416546368735000,2.61873486328125,-0.107208251953125,-1.0478668212890625,-0.00177001953125
1768416546378737000,2.62873681640625,-0.1068115234375,-1.0440673828125,0.001708984375
1768416546388738000,2.638738037109375,-0.0985870361328125,-1.03521728515625,0.0038909912109375
1768416546398740000,2.648739990234375,-0.0944976806640625,-1.0256805419921875,0.0057830810546875
1768416546408742100,2.6587421875,-0.0983734130859375,-1.0137481689453125,0.0048675537109375
1768416546418743000,2.668742919921875,-0.10693359375,-1.0044097900390625,0.000213623046875
1768416546428745000,2.678744873046875,-0.11456298828125,-0.9953460693359375,-0.0049591064453125
1768416546438745900,2.688745849609375,-0.1195831298828125,-0.9887237548828125,-0.007232666015625
1768416546448748000,2.698748046875,-0.1124114990234375,-0.9846038818359375,-0.0043487548828125
1768416546458749000,2.7087490234375,-0.0942535400390625,-0.9778900146484375,0.000457763671875
1768416546468751000,2.718751220703125,-0.0808563232421875,-0.9752960205078125,0.0060272216796875
1768416546478753000,2.7287529296875,-0.07110595703125,-0.9705963134765625,0.009429931640625
1768416546488754000,2.73875390625,-0.0622406005859375,-0.9685516357421875,0.0135040283203125
1768416546498756000,2.748756103515625,-0.0628814697265625,-0.967376708984375,0.0184478759765625
1768416546508757000,2.758757080078125,-0.0626068115234375,-0.974945068359375,0.0122528076171875
1768416546518759000,2.768759033203125,-0.0557861328125,-0.982147216796875,0.005218505859375
1768416546528761000,2.778760986328125,-0.0532073974609375,-0.988433837890625,-0.0090789794921875
1768416546538762000,2.788761962890625,-0.056854248046875,-0.9893646240234375,-0.0224151611328125
1768416546548764000,2.798763916015625,-0.0645294189453125,-0.9799041748046875,-0.039947509765625
1768416546558765000,2.80876513671875,-0.073760986328125,-0.966278076171875,-0.047760009765625
1768416546568767000,2.81876708984375,-0.084503173828125,-0.953704833984375,-0.052642822265625
1768416546578768100,2.82876806640625,-0.091217041015625,-0.944488525390625,-0.0557861328125
1768416546588770000,2.83877001953125,-0.101531982421875,-0.93878173828125,-0.0595703125
1768416546598772000,2.84877197265625,-0.112579345703125,-0.938690185546875,-0.06207275390625
1768416546608773000,2.858773193359375,-0.1265106201171875,-0.9437713623046875,-0.062042236328125
1768416546618775000,2.868775146484375,-0.1313934326171875,-0.9511566162109375,-0.0650482177734375
1768416546628776200,2.878776123046875,-0.1372222900390625,-0.96307373046875,-0.06964111328125
1768416546638777900,2.88877783203125,-0.138824462890625,-0.9742584228515625,-0.070404052734375
1768416546648779300,2.898779296875,-0.1284332275390625,-0.98590087890625,-0.0686187744140625
1768416546658781000,2.908781005859375,-0.1278228759765625,-0.9989471435546875,-0.0661163330078125
1768416546668783000,2.918783203125,-0.136810302734375,-1.006378173828125,-0.0609283447265625
1768416546678784300,2.9287841796875,-0.1484222412109375,-1.0109100341796875,-0.0579986572265625
1768416546688786000,2.938785888671875,-0.1552276611328125,-1.0143280029296875,-0.0546112060546875
1768416546698787000,2.948787109375,-0.155364990234375,-1.015716552734375,-0.0557098388671875
1768416546708789000,2.9587890625,-0.14569091796875,-1.018951416015625,-0.0592041015625
1768416546718791000,2.968791015625,-0.1468658447265625,-1.017181396484375,-0.067230224609375
1768416546728792000,2.9787919921875,-0.1550140380859375,-1.0096893310546875,-0.07611083984375
1768416546738794000,2.9887939453125,-0.16583251953125,-0.998046875,-0.0843658447265625
1768416546748795100,2.998795166015625,-0.17291259765625,-0.9829559326171875,-0.0928192138671875
1768416546758797000,3.008797119140625,-0.18084716796875,-0.9712371826171875,-0.1027984619140625
1768416546768798200,3.018798095703125,-0.19464111328125,-0.959808349609375,-0.108673095703125
1768416546778800000,3.028800048828125,-0.2055511474609375,-0.9530487060546875,-0.1094818115234375
1768416546788802000,3.038802001953125,-0.215850830078125,-0.95599365234375,-0.1059417724609375
1768416546798803200,3.04880322265625,-0.22210693359375,-0.966033935546875,-0.0973358154296875
1768416546808804900,3.058804931640625,-0.2293548583984375,-0.97967529296875,-0.0872039794921875
1768416546818806300,3.06880615234375,-0.2349700927734375,-0.99310302734375,-0.0791015625
1768416546828808200,3.07880810546875,-0.2345733642578125,-0.9947967529296875,-0.0749969482421875
1768416546838809000,3.08880908203125,-0.2289581298828125,-0.9860382080078125,-0.069580078125
1768416546848811300,3.098811279296875,-0.2220611572265625,-0.9735870361328125,-0.07220458984375
1768416546858813000,3.10881298828125,-0.21942138671875,-0.953857421875,-0.077239990234375
1768416546868814000,3.11881396484375,-0.2098846435546875,-0.938720703125,-0.083160400390625
1768416546878816000,3.12881591796875,-0.201904296875,-0.9326934814453125,-0.0943603515625
1768416546888817200,3.138817138671875,-0.1990509033203125,-0.9274444580078125,-0.1008453369140625
1768416546898819000,3.148819091796875,-0.199951171875,-0.9217681884765625,-0.1094818115234375
1768416546908820200,3.1588203125,-0.20196533203125,-0.9155120849609375,-0.1171722412109375
1768416546918822100,3.168822265625,-0.20361328125,-0.904205322265625,-0.112274169921875
1768416546928824000,3.178823974609375,-0.2112274169921875,-0.894439697265625,-0.1078643798828125
1768416546938825200,3.1888251953125,-0.2214813232421875,-0.891387939453125,-0.1070709228515625
1768416546948827100,3.1988271484375,-0.225860595703125,-0.8938751220703125,-0.103271484375
1768416546958828000,3.208828125,-0.2313232421875,-0.90020751953125,-0.102569580078125
1768416546968830200,3.218830322265625,-0.2319488525390625,-0.9060821533203125,-0.0995635986328125
1768416546978832100,3.22883203125,-0.2283172607421875,-0.91339111328125,-0.0977020263671875
1768416546988833300,3.238833251953125,-0.2304840087890625,-0.918701171875,-0.0934600830078125
1768416546998835200,3.248835205078125,-0.22637939453125,-0.9163970947265625,-0.08172607421875
1768416547008836000,3.258836181640625,-0.2209014892578125,-0.9188079833984375,-0.0677337646484375
1768416547018838300,3.26883837890625,-0.2187347412109375,-0.925048828125,-0.053436279296875
1768416547028839200,3.278839111328125,-0.2184600830078125,-0.931915283203125,-0.039459228515625
1768416547038841000,3.288841064453125,-0.222564697265625,-0.939697265625,-0.0325927734375
1768416547048843300,3.29884326171875,-0.2311859130859375,-0.9438018798828125,-0.031219482421875
1768416547058844200,3.30884423828125,-0.240936279296875,-0.950347900390625,-0.031890869140625
1768416547068846000,3.31884619140625,-0.2480926513671875,-0.9581298828125,-0.024505615234375
1768416547078847200,3.32884716796875,-0.2556915283203125,-0.96844482421875,-0.008575439453125
1768416547088849200,3.33884912109375,-0.2597198486328125,-0.980926513671875,0.017303466796875
1768416547098850000,3.34885009765625,-0.265472412109375,-0.9946441650390625,0.045166015625
1768416547108852200,3.358852294921875,-0.2688140869140625,-1.00189208984375,0.06591796875
1768416547118854100,3.368854248046875,-0.27301025390625,-1.0016326904296875,0.0672454833984375
1768416547128855000,3.37885498046875,-0.2862701416015625,-0.99267578125,0.0529327392578125
1768416547138857200,3.388857177734375,-0.3053741455078125,-0.9732513427734375,0.038116455078125
1768416547148858000,3.398858154296875,-0.32037353515625,-0.953338623046875,0.0273284912109375
1768416547158860000,3.408860107421875,-0.321990966796875,-0.936065673828125,0.0245513916015625
1768416547168861200,3.418861083984375,-0.3161773681640625,-0.92779541015625,0.0246124267578125
1768416547178863000,3.428863037109375,-0.31927490234375,-0.9305267333984375,0.0189666748046875
1768416547188865300,3.438865234375,-0.3397979736328125,-0.9430389404296875,0.0149383544921875
1768416547198866200,3.4488662109375,-0.3504486083984375,-0.9603729248046875,0.0095367431640625
1768416547208868000,3.4588681640625,-0.2490692138671875,-0.9769134521484375,0.0023956298828125
1768416547218869000,3.468868896484375,-0.1166229248046875,-1.0540313720703125,0.0019989013671875
1768416547228871200,3.47887109375,-0.0330810546875,-1.2474212646484375,-0.0384979248046875
1768416547238872000,3.4888720703125,0.1491241455078125,-1.5162506103515625,-0.1215362548828125
1768416547248874200,3.498874267578125,0.2999420166015625,-1.75482177734375,-0.1342010498046875
1768416547258876200,3.508876220703125,0.2156524658203125,-2.025360107421875,-0.214599609375
1768416547268877300,3.518877197265625,-0.1149444580078125,-1.97198486328125,-0.3665618896484375
1768416547278879500,3.52887939453125,-0.3551025390625,-1.399200439453125,-0.3849334716796875
1768416547288880400,3.53888037109375,-0.4608154296875,-0.925811767578125,-0.320068359375
1768416547298882300,3.54888232421875,-0.4478912353515625,-0.691680908203125,-0.294097900390625
1768416547308883500,3.558883544921875,-0.3684539794921875,-0.563446044921875,-0.237091064453125
1768416547318885400,3.568885498046875,-0.3196563720703125,-0.519317626953125,-0.11468505859375
1768416547328887300,3.57888720703125,-0.299591064453125,-0.58831787109375,0.020294189453125
1768416547338888400,3.588888427734375,-0.2045135498046875,-0.7238311767578125,0.079193115234375
1768416547348890400,3.598890380859375,-0.0561370849609375,-0.883575439453125,0.1147613525390625
1768416547358891300,3.608891357421875,0.097442626953125,-1.048492431640625,0.1190338134765625
1768416547368893400,3.6188935546875,0.2091064453125,-1.1969757080078125,0.096771240234375
1768416547378894300,3.628894287109375,0.183441162109375,-1.3315887451171875,0.081787109375
1768416547388896300,3.638896240234375,0.0911102294921875,-1.3983001708984375,0.0523223876953125
1768416547398898400,3.6488984375,0.054443359375,-1.2528839111328125,0.0176239013671875
1768416547408899300,3.6588994140625,0.0584716796875,-1.0678863525390625,-0.0073394775390625
1768416547418901500,3.668901611328125,0.08154296875,-0.9309844970703125,-0.025360107421875
1768416547428902400,3.67890234375,0.086578369140625,-0.84149169921875,-0.0233612060546875
1768416547438904300,3.688904296875,0.1033172607421875,-0.8191986083984375,-0.0081787109375
1768416547448905200,3.6989052734375,0.102752685546875,-0.8702392578125,0.02032470703125
1768416547458907400,3.708907470703125,0.086334228515625,-0.962860107421875,0.0419158935546875
1768416547468909300,3.718909423828125,0.0624847412109375,-1.0655517578125,0.0289459228515625
1768416547478910500,3.728910400390625,0.024932861328125,-1.1435699462890625,-0.0013275146484375
1768416547488912400,3.738912353515625,-0.01226806640625,-1.177947998046875,-0.038909912109375
1768416547498913300,3.748913330078125,-0.020599365234375,-1.1458282470703125,-0.0584716796875
1768416547508915500,3.75891552734375,-0.006134033203125,-1.0731353759765625,-0.0606842041015625
1768416547518916400,3.768916259765625,0.016937255859375,-0.991546630859375,-0.0676727294921875
1768416547528918300,3.778918212890625,0.052703857421875,-0.9205322265625,-0.0537109375
1768416547538920400,3.78892041015625,0.076507568359375,-0.8598175048828125,-0.003448486328125
1768416547548921300,3.79892138671875,0.0979156494140625,-0.8143768310546875,0.047332763671875
1768416547558923300,3.80892333984375,0.111358642578125,-0.8001861572265625,0.0957794189453125
1768416547568924400,3.81892431640625,0.112060546875,-0.7966156005859375,0.1368255615234375
1768416547578926300,3.82892626953125,0.08917236328125,-0.78912353515625,0.14739990234375
1768416547588927200,3.83892724609375,0.0611724853515625,-0.780609130859375,0.1188507080078125
1768416547598929400,3.848929443359375,0.0355224609375,-0.7885284423828125,0.0501251220703125
1768416547608931300,3.858931396484375,0.0101776123046875,-0.8132781982421875,-0.024749755859375
1768416547618932200,3.86893212890625,0.0086517333984375,-0.854522705078125,-0.0703582763671875
1768416547628934400,3.878934326171875,0.0165863037109375,-0.90093994140625,-0.0702362060546875
1768416547638935300,3.888935302734375,0.0529937744140625,-0.9219512939453125,-0.110137939453125
1768416547648937200,3.898937255859375,0.0483551025390625,-0.954803466796875,-0.0906524658203125
1768416547658938400,3.9089384765625,-0.0032958984375,-0.9718475341796875,-0.020782470703125
1768416547668940300,3.918940185546875,-0.0764312744140625,-0.981903076171875,0.050567626953125
1768416547678942500,3.9289423828125,-0.12103271484375,-0.991180419921875,0.09539794921875
1768416547688943400,3.938943359375,-0.13812255859375,-1.0015106201171875,0.1264495849609375
1768416547698945300,3.9489453125,-0.1472930908203125,-1.01025390625,0.1654052734375
1768416547708946200,3.9589462890625,-0.1914825439453125,-1.01519775390625,0.2259674072265625
1768416547718948400,3.9689482421875,-0.2841949462890625,-1.0041656494140625,0.3521728515625
1768416547728949200,3.97894921875,-0.35137939453125,-0.9709014892578125,0.4682769775390625
1768416547738951400,3.988951416015625,-0.4317474365234375,-0.948638916015625,0.55511474609375
1768416547748953300,3.998953369140625,-0.396453857421875,-0.9676971435546875,0.5891571044921875
1768416547758954200,4.008954345703125,-0.208740234375,-1.0525665283203125,0.5157928466796875
1768416547768956400,4.018956298828125,-0.0190277099609375,-1.14874267578125,0.3118133544921875
1768416547778957300,4.028957275390625,0.0430755615234375,-1.2179107666015625,0.0894622802734375
1768416547788959200,4.038959228515625,-0.0587615966796875,-1.160491943359375,-0.0958251953125
1768416547798960400,4.04896044921875,-0.2958221435546875,-0.93499755859375,-0.287200927734375
1768416547808962300,4.05896240234375,-0.4069976806640625,-0.6302337646484375,-0.4565582275390625
1768416547818963200,4.068963134765625,-0.35394287109375,-0.401397705078125,-0.5660552978515625
1768416547828965400,4.07896533203125,-0.173583984375,-0.2934722900390625,-0.5988616943359375
1768416547838967300,4.08896728515625,0.092376708984375,-0.2821807861328125,-0.5012969970703125
1768416547848968200,4.09896826171875,0.285308837890625,-0.3369903564453125,-0.236175537109375
1768416547858970400,4.108970458984375,0.2523956298828125,-0.4138946533203125,0.0830230712890625
1768416547868971300,4.11897119140625,0.2122802734375,-0.4433441162109375,0.3606719970703125
1768416547878973200,4.12897314453125,0.1937408447265625,-0.4510040283203125,0.5170745849609375
1768416547888974300,4.138974365234375,0.073638916015625,-0.453277587890625,0.559112548828125
1768416547898976300,4.148976318359375,-0.038421630859375,-0.459503173828125,0.5711517333984375
1768416547908978200,4.158978271484375,0.0013885498046875,-0.4500885009765625,0.5550537109375
1768416547918979300,4.168979248046875,-0.0158843994140625,-0.477508544921875,0.47869873046875
1768416547928981200,4.178981201171875,-0.0409088134765625,-0.5871124267578125,0.3465423583984375
1768416547938982100,4.188982177734375,0.0212860107421875,-0.7192230224609375,0.189361572265625
1768416547948984300,4.198984375,-0.006103515625,-0.8399200439453125,0.0975494384765625
1768416547958985200,4.208985107421875,-0.0756683349609375,-0.9354705810546875,0.0423431396484375
1768416547968987100,4.218987060546875,-0.0499725341796875,-0.9801788330078125,-0.0460357666015625
1768416547978989300,4.2289892578125,0.0303497314453125,-0.943389892578125,-0.11260986328125
1768416547988990200,4.238990234375,0.136871337890625,-0.820220947265625,-0.1393890380859375
1768416547998992400,4.248992431640625,0.102447509765625,-0.6639251708984375,-0.100341796875
1768416548008993300,4.2589931640625,-0.02410888671875,-0.55908203125,-0.0088653564453125
1768416548018995200,4.2689951171875,-0.1656036376953125,-0.573486328125,0.1085357666015625
1768416548028996400,4.278996337890625,-0.2806396484375,-0.6360931396484375,0.30035400390625
1768416548038998300,4.288998291015625,-0.238006591796875,-0.72418212890625,0.418365478515625
1768416548048999400,4.29899951171875,-0.09112548828125,-0.76971435546875,0.3327789306640625
1768416548059001300,4.30900146484375,0.050140380859375,-0.7220611572265625,0.096221923828125
1768416548069003300,4.319003173828125,0.1031341552734375,-0.6070098876953125,-0.1263275146484375
1768416548079004200,4.329004150390625,0.2137451171875,-0.4737548828125,-0.2371063232421875
1768416548089006300,4.33900634765625,0.4420166015625,-0.3580474853515625,-0.2437286376953125
1768416548099007500,4.349007568359375,0.519866943359375,-0.2879486083984375,-0.193389892578125
1768416548109009200,4.359009033203125,0.195770263671875,-0.263397216796875,-0.110198974609375
1768416548119010600,4.369010498046875,-0.092041015625,-0.31658935546875,0.041595458984375
1768416548129012200,4.37901220703125,-0.0651702880859375,-0.411224365234375,0.1210479736328125
1768416548139014100,4.38901416015625,0.0052337646484375,-0.5090179443359375,0.1214141845703125
1768416548149015600,4.399015625,0.072540283203125,-0.542449951171875,0.1365203857421875
1768416548159017200,4.409017333984375,0.163665771484375,-0.5408477783203125,0.1428375244140625
1768416548169018400,4.419018310546875,0.2903900146484375,-0.5162506103515625,0.2374267578125
1768416548179020300,4.429020263671875,0.2924346923828125,-0.486083984375,0.3628082275390625
1768416548189021400,4.439021484375,0.3319549560546875,-0.527679443359375,0.310577392578125
1768416548199023400,4.4490234375,0.413665771484375,-0.624053955078125,0.140411376953125
1768416548209024500,4.4590244140625,0.4274749755859375,-0.738006591796875,-0.0733184814453125
1768416548219026400,4.4690263671875,0.603118896484375,-0.885345458984375,-0.4246368408203125
1768416548229028400,4.4790283203125,2.0142059326171875,-1.2528228759765625,-0.99212646484375
1768416548239029500,4.489029541015625,3.3175811767578125,-1.81072998046875,-0.79046630859375
1768416548254032400,4.504032470703125,1.8418731689453125,-4.0337371826171875,-0.4059906005859375
1768416548264033300,4.514033203125,1.97796630859375,-6.6263885498046875,-1.010162353515625
1768416548274035200,4.52403515625,1.2227325439453125,-7.6067047119140625,-1.1536865234375
1768416548284036000,4.5340361328125,0.0026397705078125,-5.8646087646484375,-0.8152313232421875
1768416548294038300,4.544038330078125,-0.6551361083984375,-2.71514892578125,-0.689788818359375
1768416548304039200,4.5540390625,-1.4197540283203125,-0.7422637939453125,-0.663665771484375
1768416548314041000,4.564041015625,-1.5110931396484375,0.4635162353515625,-0.249420166015625
1768416548324042200,4.574042236328125,-1.71923828125,1.2761688232421875,0.1205291748046875
1768416548334044200,4.584044189453125,-1.709930419921875,1.66925048828125,0.328277587890625
1768416548344046000,4.594046142578125,-0.92059326171875,1.5942535400390625,0.4083709716796875
1768416548354047200,4.604047119140625,0.1197662353515625,1.15679931640625,0.220977783203125
1768416548364049200,4.614049072265625,0.5699615478515625,0.7755584716796875,0.031768798828125
1768416548374050000,4.624050048828125,0.691497802734375,0.4904632568359375,-0.110809326171875
1768416548384052200,4.63405224609375,0.617767333984375,0.175994873046875,-0.1822967529296875
1768416548394053000,4.64405322265625,0.175323486328125,-0.0782012939453125,-0.1329345703125
1768416548404055000,4.654054931640625,-0.1511993408203125,-0.3011322021484375,-0.0877685546875
1768416548414056200,4.66405615234375,-0.049041748046875,-0.632415771484375,-0.0791168212890625
1768416548424058000,4.67405810546875,0.1959991455078125,-0.8896484375,-0.0341949462890625
1768416548434060000,4.68406005859375,0.35980224609375,-0.9319915771484375,-0.0513153076171875
1768416548444061200,4.694061279296875,0.244049072265625,-0.67840576171875,-0.090850830078125
1768416548454063000,4.70406298828125,0.3583221435546875,-0.254638671875,-0.27642822265625
1768416548464064000,4.71406396484375,0.529144287109375,-0.0431060791015625,-0.58306884765625
1768416548474066200,4.724066162109375,0.6319732666015625,0.0327301025390625,-0.9474639892578125
1768416548484067300,4.7340673828125,0.704803466796875,-0.0074462890625,-1.3533935546875
1768416548494069000,4.744069091796875,0.565185546875,-0.097869873046875,-1.7931365966796875
1768416548504070400,4.7540703125,0.52337646484375,-0.1325531005859375,-2.07122802734375
1768416548514072000,4.764072021484375,0.726776123046875,-0.1213836669921875,-2.128997802734375
1768416548524074200,4.77407421875,0.9473419189453125,-0.1264801025390625,-1.969940185546875
1768416548534075100,4.7840751953125,1.217315673828125,-0.1725006103515625,-1.5611419677734375
1768416548544077000,4.7940771484375,1.76251220703125,-0.1858673095703125,-1.00799560546875
1768416548554078200,4.804078125,2.1352996826171875,-0.215972900390625,-0.5945892333984375
1768416548564080000,4.814080078125,2.404937744140625,-0.237060546875,-0.381439208984375
1768416548574081300,4.824081298828125,2.1941680908203125,-0.233062744140625,-0.411712646484375
1768416548584083200,4.834083251953125,1.4716796875,-0.1130828857421875,-0.2198638916015625
1768416548594084400,4.84408447265625,-0.432769775390625,0.35089111328125,0.028350830078125
1768416548604086300,4.854086181640625,-0.8921051025390625,0.5107879638671875,-1.220794677734375
1768416548614088200,4.864088134765625,-0.0805816650390625,0.6280059814453125,-1.8195343017578125
1768416548624089300,4.87408935546875,-0.05731201171875,0.558013916015625,-1.6781768798828125
1768416548634091300,4.88409130859375,-0.7136688232421875,0.2211456298828125,-2.069610595703125
1768416548644092400,4.894092529296875,-0.5562591552734375,0.0874786376953125,-2.4772491455078125
1768416548654094300,4.90409423828125,-0.0833740234375,0.29583740234375,-2.570068359375
1768416548664095200,4.91409521484375,0.2169952392578125,0.4557952880859375,-2.9535675048828125
1768416548674097400,4.924097412109375,0.820556640625,0.29046630859375,-2.9745941162109375
1768416548684098300,4.934098388671875,0.8842926025390625,0.087432861328125,-2.7409515380859375
1768416548694100200,4.944100341796875,0.6009674072265625,-0.226806640625,-2.28582763671875
1768416548704102400,4.954102294921875,0.501373291015625,-0.436004638671875,-1.9291229248046875
1768416548714103300,4.964103271484375,0.06072998046875,-0.246826171875,-1.8177032470703125
1768416548724105200,4.974105224609375,-0.3200225830078125,0.17633056640625,-1.5056610107421875
1768416548734106400,4.9841064453125,-0.3905181884765625,0.4437408447265625,-1.0449066162109375
1768416548744108300,4.9941083984375,-0.3909454345703125,0.5038909912109375,-0.833099365234375
1768416548754109200,5.004109130859375,-0.5734710693359375,0.5565032958984375,-0.991455078125
1768416548764111400,5.014111328125,-0.5264129638671875,0.54473876953125,-1.09295654296875
1768416548774112300,5.0241123046875,-0.24725341796875,0.3966522216796875,-1.0558624267578125
1768416548784114200,5.0341142578125,-0.0269622802734375,0.1778411865234375,-0.836944580078125
1768416548794116400,5.044116455078125,0.0118408203125,-0.01385498046875,-0.611572265625
1768416548804117200,5.0541171875,0.070892333984375,-0.11767578125,-0.4861297607421875
1768416548814119200,5.064119140625,0.1500396728515625,-0.140716552734375,-0.4032745361328125
1768416548824120300,5.074120361328125,0.0607147216796875,-0.11053466796875,-0.413604736328125
1768416548834122200,5.084122314453125,-0.183074951171875,-0.0227203369140625,-0.4629974365234375
1768416548844123100,5.094123046875,-0.368072509765625,0.1026763916015625,-0.48004150390625
1768416548854125300,5.104125244140625,-0.3142242431640625,0.2082977294921875,-0.4775543212890625
1768416548864126200,5.114126220703125,-0.1810760498046875,0.2093048095703125,-0.4906005859375
1768416548874128100,5.124128173828125,-0.06268310546875,0.12176513671875,-0.4780426025390625
1768416548884130300,5.13413037109375,-0.0386199951171875,0.035675048828125,-0.46490478515625
1768416548894131200,5.144131103515625,-0.059326171875,-0.007537841796875,-0.4609832763671875
1768416548904133400,5.15413330078125,-0.1493377685546875,-0.02490234375,-0.5299224853515625
1768416548914134300,5.16413427734375,-0.274566650390625,0.04107666015625,-0.6932525634765625
1768416548924136200,5.17413623046875,-0.245361328125,0.1160125732421875,-0.9659576416015625
1768416548934137000,5.18413720703125,-0.1025238037109375,0.136566162109375,-1.32476806640625
1768416548944139300,5.19413916015625,-0.0546417236328125,0.1847686767578125,-1.634307861328125
1768416548954140200,5.20414013671875,-0.0623931884765625,0.2797698974609375,-1.8036651611328125
1768416548964142300,5.214142333984375,-0.02093505859375,0.3388519287109375,-1.8053131103515625
1768416548974144300,5.224144287109375,-0.0138397216796875,0.2873382568359375,-1.6998291015625
1768416548984145200,5.234145263671875,-0.105133056640625,0.2267608642578125,-1.56951904296875
1768416548994147300,5.244147216796875,-0.1610260009765625,0.1950225830078125,-1.4407958984375
1768416549004148200,5.254148193359375,-0.15716552734375,0.1730194091796875,-1.30859375
1768416549014150100,5.264150146484375,-0.1307830810546875,0.1806640625,-1.1493988037109375
1768416549024151000,5.274151123046875,-0.1123046875,0.17266845703125,-1.02880859375
1768416549034153200,5.2841533203125,-0.0970001220703125,0.1522369384765625,-0.9399566650390625
1768416549044154000,5.294154052734375,-0.123016357421875,0.133941650390625,-0.870269775390625
1768416549054156300,5.30415625,-0.1856536865234375,0.1202239990234375,-0.7974700927734375
1768416549064158200,5.314158203125,-0.19805908203125,0.132965087890625,-0.70404052734375
1768416549074159000,5.3241591796875,-0.1556549072265625,0.1291351318359375,-0.64373779296875
1768416549084161300,5.334161376953125,-0.14495849609375,0.1015472412109375,-0.614776611328125
1768416549094162200,5.344162109375,-0.200439453125,0.042755126953125,-0.6364898681640625
1768416549104164000,5.3541640625,-0.26080322265625,0.00640869140625,-0.667083740234375
1768416549114165200,5.364165283203125,-0.2566375732421875,-0.0038299560546875,-0.725494384765625
1768416549124167200,5.374167236328125,-0.2067108154296875,-0.0017547607421875,-0.801300048828125
1768416549134168000,5.38416796875,-0.1638641357421875,-0.0009918212890625,-0.8697357177734375
1768416549144170200,5.394170166015625,-0.127716064453125,-0.00726318359375,-0.9320831298828125
1768416549154171100,5.404171142578125,-0.09521484375,-0.024688720703125,-0.9824066162109375
1768416549164173000,5.414173095703125,-0.10699462890625,-0.0384368896484375,-1.0155487060546875
1768416549174175200,5.42417529296875,-0.15869140625,-0.0370941162109375,-1.0492095947265625
1768416549184176000,5.434176025390625,-0.20172119140625,-0.04010009765625,-1.095916748046875
1768416549194178000,5.444177978515625,-0.1922149658203125,-0.04632568359375,-1.1263885498046875
1768416549204179200,5.45417919921875,-0.1537933349609375,-0.059051513671875,-1.1428680419921875
1768416549214181000,5.46418115234375,-0.117919921875,-0.07489013671875,-1.143951416015625
1768416549224182000,5.47418212890625,-0.0949859619140625,-0.0951080322265625,-1.125946044921875
1768416549234184200,5.48418408203125,-0.0889129638671875,-0.119659423828125,-1.0901336669921875
1768416549244185000,5.49418505859375,-0.1019744873046875,-0.137176513671875,-1.0419769287109375
1768416549254187000,5.50418701171875,-0.1253814697265625,-0.1499176025390625,-0.9918212890625
1768416549264189200,5.514189208984375,-0.1426544189453125,-0.1595001220703125,-0.9426116943359375
1768416549274190000,5.524190185546875,-0.165802001953125,-0.1555023193359375,-0.902099609375
1768416549284192500,5.534192626953125,-0.1926116943359375,-0.145904541015625,-0.8830108642578125
1768416549294193400,5.544193359375,-0.1960906982421875,-0.1353607177734375,-0.8802032470703125
1768416549304195600,5.554195556640625,-0.1839447021484375,-0.131072998046875,-0.886138916015625
1768416549314196500,5.564196533203125,-0.171844482421875,-0.1209564208984375,-0.895172119140625
1768416549324198400,5.574198486328125,-0.1461181640625,-0.11993408203125,-0.9049530029296875
1768416549334199600,5.584199462890625,-0.1157989501953125,-0.1271820068359375,-0.9139251708984375
1768416549344201500,5.594201416015625,-0.0867462158203125,-0.135101318359375,-0.91790771484375
1768416549354202600,5.60420263671875,-0.0536041259765625,-0.1456146240234375,-0.918914794921875
1768416549364204500,5.61420458984375,-0.03118896484375,-0.153778076171875,-0.9234466552734375
1768416549374206500,5.62420654296875,-0.0341339111328125,-0.1561126708984375,-0.9385223388671875
1768416549384207400,5.634207275390625,-0.0388031005859375,-0.1486358642578125,-0.963470458984375
1768416549394209500,5.64420947265625,-0.06134033203125,-0.138275146484375,-0.9903411865234375
1768416549404210700,5.654210693359375,-0.095672607421875,-0.129852294921875,-1.015655517578125
1768416549414212400,5.66421240234375,-0.12115478515625,-0.1208343505859375,-1.02069091796875
1768416549424213800,5.6742138671875,-0.1294097900390625,-0.1124420166015625,-1.00830078125
1768416549434215400,5.68421533203125,-0.110382080078125,-0.1055755615234375,-0.99017333984375
1768416549444216600,5.694216552734375,-0.079315185546875,-0.1033935546875,-0.972625732421875
1768416549454218800,5.70421875,-0.0582122802734375,-0.1031951904296875,-0.9620361328125
1768416549464220400,5.714220458984375,-0.037200927734375,-0.0997772216796875,-0.9509429931640625
1768416549474221600,5.7242216796875,-0.008636474609375,-0.0935516357421875,-0.9403228759765625
1768416549484223500,5.734223388671875,0.0217132568359375,-0.0885467529296875,-0.9382171630859375
1768416549494224600,5.744224609375,0.04803466796875,-0.0862274169921875,-0.9503021240234375
1768416549504226600,5.7542265625,0.062774658203125,-0.081390380859375,-0.9719085693359375
1768416549514227700,5.764227783203125,0.0718841552734375,-0.0717010498046875,-0.9909210205078125
1768416549524229600,5.774229736328125,0.0788116455078125,-0.0576019287109375,-1.0002288818359375
1768416549534230500,5.78423046875,0.094329833984375,-0.039825439453125,-0.9896240234375
1768416549544232700,5.794232666015625,0.101959228515625,-0.0318756103515625,-0.9736785888671875
1768416549554233600,5.804233642578125,0.099761962890625,-0.0361328125,-0.962677001953125
1768416549564235800,5.81423583984375,0.104278564453125,-0.039398193359375,-0.9594879150390625
1768416549574237700,5.82423779296875,0.1139678955078125,-0.041259765625,-0.9697265625
1768416549584238600,5.834238525390625,0.1218109130859375,-0.0370025634765625,-0.984405517578125
1768416549594240800,5.84424072265625,0.1223297119140625,-0.0271453857421875,-0.996795654296875
1768416549604241700,5.85424169921875,0.114532470703125,-0.01483154296875,-1.0027313232421875
1768416549614243600,5.86424365234375,0.1167449951171875,-0.010894775390625,-1.0092315673828125
1768416549624244700,5.87424462890625,0.139007568359375,-0.012298583984375,-1.0134429931640625
1768416549634246700,5.88424658203125,0.1623992919921875,-0.01641845703125,-1.0174713134765625
1768416549644247600,5.89424755859375,0.1742706298828125,-0.0207061767578125,-1.02886962890625
1768416549654249700,5.904249755859375,0.1875,-0.015167236328125,-1.0272674560546875
1768416549664250600,5.914250732421875,0.1992645263671875,-0.0138397216796875,-1.0218658447265625
1768416549674252500,5.92425244140625,0.20599365234375,-0.0131378173828125,-1.0186004638671875
1768416549684254700,5.934254638671875,0.2054443359375,-0.01910400390625,-1.0259246826171875
1768416549694255600,5.944255615234375,0.211822509765625,-0.0224609375,-1.04180908203125
1768416549704257500,5.954257568359375,0.232177734375,-0.02447509765625,-1.0589599609375
1768416549714258700,5.9642587890625,0.2615203857421875,-0.0212554931640625,-1.06158447265625
1768416549724260600,5.974260498046875,0.28985595703125,-0.032684326171875,-1.0731353759765625
1768416549734261500,5.984261474609375,0.3119659423828125,-0.031463623046875,-1.058013916015625
1768416549744263700,5.994263671875,0.3155517578125,-0.0311126708984375,-1.0440521240234375
1768416549754264600,6.0042646484375,0.305755615234375,-0.032562255859375,-1.0336456298828125
1768416549764266500,6.0142666015625,0.2946014404296875,-0.0352783203125,-1.0235443115234375
1768416549774267600,6.024267578125,0.297027587890625,-0.0421600341796875,-1.015350341796875
1768416549784269600,6.03426953125,0.3040313720703125,-0.0509796142578125,-1.0102386474609375
1768416549794271500,6.044271484375,0.3104248046875,-0.05859375,-1.0104827880859375
1768416549804272600,6.054272705078125,0.3130340576171875,-0.0587005615234375,-1.010498046875
1768416549814274600,6.064274658203125,0.31005859375,-0.0576629638671875,-1.0138397216796875
1768416549824275500,6.074275390625,0.312774658203125,-0.0500030517578125,-1.005767822265625
1768416549834277600,6.084277587890625,0.3119049072265625,-0.047149658203125,-1.0014801025390625
1768416549844278500,6.094278564453125,0.3116455078125,-0.0474395751953125,-0.995025634765625
1768416549854280400,6.104280517578125,0.311431884765625,-0.052032470703125,-0.986968994140625
1768416549864281600,6.114281494140625,0.3092803955078125,-0.0541229248046875,-0.9805908203125
1768416549874283500,6.124283447265625,0.3018951416015625,-0.0608978271484375,-0.982818603515625
1768416549884285700,6.13428564453125,0.29705810546875,-0.060394287109375,-0.9903564453125
1768416549894286600,6.14428662109375,0.2928466796875,-0.054412841796875,-0.9957427978515625
1768416549904288500,6.15428857421875,0.2878570556640625,-0.04779052734375,-0.9993133544921875
1768416549914289400,6.164289306640625,0.279815673828125,-0.041351318359375,-1.0035858154296875
1768416549924291600,6.17429150390625,0.2681121826171875,-0.0384979248046875,-1.0053253173828125
1768416549934292500,6.18429248046875,0.2645416259765625,-0.0367584228515625,-1.003448486328125
1768416549944294700,6.194294677734375,0.2741851806640625,-0.0427703857421875,-1.0027313232421875
1768416549954295600,6.204295654296875,0.2791290283203125,-0.0503082275390625,-0.9994659423828125
1768416549964297500,6.21429736328125,0.26910400390625,-0.0511016845703125,-1.0006866455078125
1768416549974298400,6.22429833984375,0.246917724609375,-0.0451812744140625,-1.000091552734375
1768416549984300500,6.234300537109375,0.228057861328125,-0.0364532470703125,-0.9956817626953125
1768416549994301400,6.244301513671875,0.220855712890625,-0.0308990478515625,-0.9907684326171875
1768416550004303600,6.2543037109375,0.21685791015625,-0.0335845947265625,-0.9876251220703125
1768416550014305500,6.264305419921875,0.21185302734375,-0.0359344482421875,-0.984649658203125
1768416550024306400,6.274306396484375,0.20404052734375,-0.041046142578125,-0.9797515869140625
1768416550034308600,6.28430859375,0.1934814453125,-0.044891357421875,-0.9736328125
1768416550044309500,6.2943095703125,0.183135986328125,-0.0489501953125,-0.9669189453125
1768416550054311400,6.3043115234375,0.171630859375,-0.0511474609375,-0.9658355712890625
1768416550064312600,6.3143125,0.1595916748046875,-0.049072265625,-0.96649169921875
1768416550074314500,6.324314453125,0.1486053466796875,-0.045379638671875,-0.966522216796875
1768416550084315600,6.334315673828125,0.1406097412109375,-0.04534912109375,-0.9664306640625
1768416550094317600,6.344317626953125,0.1339111328125,-0.04559326171875,-0.9682464599609375
1768416550104318700,6.354318603515625,0.1251220703125,-0.0469818115234375,-0.972564697265625
1768416550114320600,6.364320556640625,0.122314453125,-0.0475006103515625,-0.975799560546875
1768416550124322600,6.374322509765625,0.1214752197265625,-0.0480499267578125,-0.9765167236328125
1768416550134323700,6.38432373046875,0.1163177490234375,-0.053070068359375,-0.9744415283203125
1768416550144325400,6.394325439453125,0.114044189453125,-0.05426025390625,-0.9698028564453125
1768416550154326800,6.404326904296875,0.1062469482421875,-0.0566253662109375,-0.9695587158203125
1768416550164328400,6.414328369140625,0.101898193359375,-0.0544281005859375,-0.9677276611328125
1768416550174329600,6.42432958984375,0.0995635986328125,-0.050567626953125,-0.9699859619140625
1768416550184331800,6.434331787109375,0.0941314697265625,-0.050811767578125,-0.971343994140625
1768416550194332700,6.444332763671875,0.090301513671875,-0.0535736083984375,-0.9680633544921875
1768416550204334600,6.45433447265625,0.0882568359375,-0.0554962158203125,-0.9676361083984375
1768416550214335700,6.464335693359375,0.0891571044921875,-0.056854248046875,-0.9681549072265625
1768416550224337700,6.474337646484375,0.09375,-0.0579376220703125,-0.96875
1768416550234339600,6.484339599609375,0.098388671875,-0.0547943115234375,-0.9700775146484375
1768416550244340700,6.4943408203125,0.1050872802734375,-0.0552978515625,-0.9691925048828125
1768416550254342700,6.5043427734375,0.1110687255859375,-0.0576324462890625,-0.970916748046875
1768416550264343600,6.514343505859375,0.111175537109375,-0.0614166259765625,-0.97662353515625
1768416550274345700,6.524345703125,0.109771728515625,-0.063690185546875,-0.9784088134765625
1768416550284346000,6.53434619140625,0.112579345703125,-0.0619354248046875,-0.9813995361328125
1768416550294348000,6.54434814453125,0.1160888671875,-0.0601959228515625,-0.97967529296875
1768416550304349000,6.554348876953125,0.1192169189453125,-0.05841064453125,-0.9786224365234375
1768416550314351000,6.56435107421875,0.12176513671875,-0.0567169189453125,-0.9763641357421875
1768416550324352000,6.57435205078125,0.123291015625,-0.0582733154296875,-0.9761505126953125
1768416550334354000,6.58435400390625,0.1274871826171875,-0.0592803955078125,-0.974365234375
1768416550344355000,6.59435498046875,0.1315765380859375,-0.056121826171875,-0.9747467041015625
1768416550354357000,6.60435693359375,0.1346893310546875,-0.0532989501953125,-0.9781036376953125
1768416550364359000,6.61435888671875,0.136932373046875,-0.050689697265625,-0.9844207763671875
1768416550374360000,6.624360107421875,0.13934326171875,-0.0457611083984375,-0.9869232177734375
1768416550384362000,6.634362060546875,0.147491455078125,-0.0451202392578125,-0.9924774169921875
1768416550394363000,6.64436279296875,0.15631103515625,-0.0432281494140625,-0.9931640625
1768416550404365000,6.654364990234375,0.16278076171875,-0.0424652099609375,-0.994140625
1768416550414366000,6.664365966796875,0.17071533203125,-0.0433807373046875,-0.9953460693359375
1768416550424367900,6.674367919921875,0.17230224609375,-0.039947509765625,-0.9979705810546875
1768416550434369000,6.684369140625,0.1771392822265625,-0.037933349609375,-1.00213623046875
1768416550444371000,6.694370849609375,0.177825927734375,-0.0359954833984375,-1.0051727294921875
1768416550454371800,6.704371826171875,0.178192138671875,-0.0337066650390625,-1.0089111328125
1768416550464374000,6.7143740234375,0.176300048828125,-0.0326995849609375,-1.0074005126953125
1768416550474375000,6.724375,0.1772918701171875,-0.031829833984375,-1.00628662109375
1768416550484376800,6.734376953125,0.1774749755859375,-0.032623291015625,-1.00653076171875
1768416550494379000,6.74437890625,0.174468994140625,-0.0326385498046875,-1.005584716796875
1768416550504380000,6.7543798828125,0.171478271484375,-0.0313262939453125,-1.00421142578125
1768416550514381800,6.7643818359375,0.17254638671875,-0.03192138671875,-1.0063323974609375
1768416550524383000,6.774383056640625,0.1734619140625,-0.03179931640625,-1.0051116943359375
1768416550534385000,6.784385009765625,0.172943115234375,-0.03179931640625,-1.0022430419921875
1768416550544385800,6.7943857421875,0.1698760986328125,-0.0310211181640625,-1.0001373291015625
1768416550554388000,6.804387939453125,0.1702728271484375,-0.0312347412109375,-0.999664306640625
1768416550564388900,6.814388916015625,0.171722412109375,-0.0342864990234375,-0.998260498046875
1768416550574390800,6.824390869140625,0.170501708984375,-0.03436279296875,-0.9944915771484375
1768416550584392200,6.83439208984375,0.1656036376953125,-0.034912109375,-0.9908599853515625
1768416550594393900,6.844393798828125,0.1610260009765625,-0.0362091064453125,-0.9923858642578125
1768416550604395000,6.85439501953125,0.15887451171875,-0.037689208984375,-0.9916534423828125
1768416550614397000,6.86439697265625,0.162139892578125,-0.0379486083984375,-0.9903106689453125
1768416550624398800,6.87439892578125,0.163482666015625,-0.0382080078125,-0.9895477294921875
1768416550634400000,6.88439990234375,0.15887451171875,-0.04132080078125,-0.98675537109375
1768416550644402000,6.89440185546875,0.1527862548828125,-0.041717529296875,-0.9863128662109375
1768416550654403000,6.904403076171875,0.1477203369140625,-0.04083251953125,-0.98602294921875
1768416550664405000,6.914405029296875,0.1473846435546875,-0.040771484375,-0.987518310546875
1768416550674406100,6.92440625,0.1506195068359375,-0.041259765625,-0.9865875244140625
1768416550684408000,6.934407958984375,0.1480255126953125,-0.0431976318359375,-0.9846954345703125
1768416550694409000,6.944408935546875,0.142578125,-0.0457305908203125,-0.9833984375
1768416550704411100,6.9544111328125,0.1424102783203125,-0.0487213134765625,-0.980682373046875
1768416550714412000,6.964412109375,0.1399383544921875,-0.051055908203125,-0.9817657470703125
1768416550724414200,6.974414306640625,0.1350250244140625,-0.0454864501953125,-0.9845733642578125
1768416550734415000,6.9844150390625,0.134735107421875,-0.0427093505859375,-0.9873504638671875
1768416550744417000,6.9944169921875,0.13824462890625,-0.0404205322265625,-0.9869384765625
1768416550754419200,7.004419189453125,0.1431732177734375,-0.04205322265625,-0.985198974609375
1768416550764420000,7.014420166015625,0.1478424072265625,-0.044189453125,-0.9844512939453125
1768416550774422000,7.024422119140625,0.1496429443359375,-0.0461273193359375,-0.9829559326171875
1768416550784423200,7.034423095703125,0.1515350341796875,-0.0456695556640625,-0.980926513671875
1768416550794425000,7.044425048828125,0.1528167724609375,-0.0440826416015625,-0.9837646484375
1768416550804426000,7.054426025390625,0.1551971435546875,-0.042755126953125,-0.98516845703125
1768416550814428200,7.06442822265625,0.1547698974609375,-0.0416259765625,-0.985504150390625
1768416550824429000,7.074428955078125,0.156097412109375,-0.041534423828125,-0.98529052734375
1768416550834431000,7.084430908203125,0.157379150390625,-0.04144287109375,-0.9854888916015625
1768416550844432100,7.09443212890625,0.155548095703125,-0.0397796630859375,-0.98736572265625
1768416550854434000,7.10443408203125,0.153961181640625,-0.0381011962890625,-0.986663818359375
1768416550864435000,7.11443505859375,0.15484619140625,-0.0381011962890625,-0.988067626953125
1768416550874437000,7.12443701171875,0.1551055908203125,-0.037261962890625,-0.988922119140625
1768416550884438000,7.13443798828125,0.15765380859375,-0.037261962890625,-0.9887237548828125
1768416550894440000,7.14443994140625,0.1598358154296875,-0.0378570556640625,-0.9893798828125
1768416550904442000,7.154442138671875,0.1630859375,-0.0368804931640625,-0.9903717041015625
1768416550914443000,7.164443115234375,0.16766357421875,-0.0357513427734375,-0.991668701171875
1768416550924445000,7.17444482421875,0.1699676513671875,-0.036468505859375,-0.9940643310546875
1768416550934446000,7.184446044921875,0.17156982421875,-0.0370635986328125,-0.993743896484375
1768416550944448000,7.194447998046875,0.1732330322265625,-0.0377349853515625,-0.995330810546875
1768416550954449000,7.204448974609375,0.1734161376953125,-0.0377655029296875,-0.993011474609375
1768416550964451000,7.214451171875,0.1710968017578125,-0.0365447998046875,-0.990631103515625
1768416550974452000,7.224451904296875,0.1699676513671875,-0.0367889404296875,-0.989105224609375
1768416550984454000,7.234453857421875,0.172027587890625,-0.037567138671875,-0.9879913330078125
1768416550994455000,7.244455078125,0.1727142333984375,-0.037445068359375,-0.9919891357421875
1768416551004457000,7.25445703125,0.17401123046875,-0.036163330078125,-0.99176025390625
1768416551014457900,7.264457763671875,0.1729583740234375,-0.0372161865234375,-0.9889678955078125
1768416551024460000,7.2744599609375,0.172271728515625,-0.0381927490234375,-0.9866485595703125
1768416551034461000,7.2844609375,0.1690521240234375,-0.0373687744140625,-0.9877471923828125
1768416551044462800,7.294462890625,0.168701171875,-0.0369873046875,-0.98858642578125
1768416551054465000,7.304465087890625,0.1663665771484375,-0.03582763671875,-0.9880523681640625
1768416551064466000,7.3144658203125,0.1629486083984375,-0.036468505859375,-0.98724365234375
1768416551074467800,7.3244677734375,0.1652374267578125,-0.0372161865234375,-0.9881439208984375
1768416551084469000,7.334468994140625,0.16845703125,-0.0368804931640625,-0.988006591796875
1768416551094471000,7.344470947265625,0.1678924560546875,-0.0374298095703125,-0.989288330078125
1768416551104471800,7.354471923828125,0.1675567626953125,-0.0368499755859375,-0.98876953125
1768416551114474000,7.364473876953125,0.169677734375,-0.037109375,-0.9903717041015625
1768416551124475000,7.374474853515625,0.1667938232421875,-0.0378570556640625,-0.98956298828125
1768416551134476800,7.384476806640625,0.1676025390625,-0.038665771484375,-0.9874114990234375
1768416551144478200,7.394478271484375,0.168609619140625,-0.0371551513671875,-0.9886627197265625
1768416551154479900,7.40447998046875,0.1696624755859375,-0.03680419921875,-0.98773193359375
1768416551164481000,7.41448095703125,0.169921875,-0.0375823974609375,-0.990264892578125
1768416551174483000,7.42448291015625,0.1710052490234375,-0.0362701416015625,-0.9913177490234375
1768416551184484000,7.434484130859375,0.1689910888671875,-0.037933349609375,-0.9923248291015625
1768416551194486000,7.444486083984375,0.1672515869140625,-0.0366058349609375,-0.9915008544921875
1768416551204487200,7.454487060546875,0.1648712158203125,-0.03680419921875,-0.99078369140625
1768416551214489000,7.464489013671875,0.1617431640625,-0.0361328125,-0.987762451171875
1768416551224491000,7.474490966796875,0.1634063720703125,-0.037750244140625,-0.9844818115234375
1768416551234492200,7.4844921875,0.164794921875,-0.03662109375,-0.982391357421875
1768416551244494000,7.494494140625,0.166046142578125,-0.0369720458984375,-0.9853057861328125
1768416551254495000,7.504494873046875,0.164337158203125,-0.035980224609375,-0.9857177734375
1768416551264497200,7.5144970703125,0.16680908203125,-0.03680419921875,-0.9870452880859375
1768416551274498000,7.524498046875,0.17340087890625,-0.0367431640625,-0.9876556396484375
1768416551284500000,7.5345,0.176788330078125,-0.038482666015625,-0.9870758056640625
1768416551294500900,7.5445009765625,0.174957275390625,-0.038177490234375,-0.9856414794921875
1768416551304503000,7.5545029296875,0.169464111328125,-0.0364532470703125,-0.987030029296875
1768416551314504000,7.56450390625,0.166168212890625,-0.0319976806640625,-0.9894256591796875
1768416551324505900,7.574505859375,0.1700439453125,-0.031768798828125,-0.991119384765625
1768416551334507000,7.584507080078125,0.1736907958984375,-0.0340728759765625,-0.990203857421875
1768416551344509000,7.594509033203125,0.17156982421875,-0.03729248046875,-0.986907958984375
1768416551354509800,7.604509765625,0.1674957275390625,-0.04052734375,-0.9818572998046875
1768416551364512000,7.614511962890625,0.1689453125,-0.041046142578125,-0.980621337890625
1768416551374514000,7.624513916015625,0.1699676513671875,-0.040985107421875,-0.98291015625
1768416551384514800,7.634514892578125,0.169281005859375,-0.0367584228515625,-0.984649658203125
1768416551394517000,7.64451708984375,0.174072265625,-0.0363922119140625,-0.990142822265625
1768416551404518000,7.654517822265625,0.17901611328125,-0.0350799560546875,-0.989227294921875
1768416551414519800,7.664519775390625,0.180328369140625,-0.0362701416015625,-0.991058349609375
1768416551424521000,7.67452099609375,0.181610107421875,-0.037384033203125,-0.989044189453125
1768416551434523000,7.68452294921875,0.178436279296875,-0.0368499755859375,-0.9882659912109375
1768416551444523800,7.694523681640625,0.1724090576171875,-0.035003662109375,-0.986968994140625
1768416551454526000,7.70452587890625,0.171234130859375,-0.03619384765625,-0.9873809814453125
1768416551464526800,7.71452685546875,0.1690673828125,-0.03338623046875,-0.9880828857421875
1768416551474528800,7.72452880859375,0.1680755615234375,-0.0326995849609375,-0.99237060546875
1768416551484530000,7.734530029296875,0.1693878173828125,-0.0330047607421875,-0.9956817626953125
1768416551494531800,7.74453173828125,0.167755126953125,-0.033172607421875,-0.9925079345703125
1768416551504532700,7.75453271484375,0.16796875,-0.0325775146484375,-0.9886932373046875
1768416551514535000,7.764534912109375,0.1708221435546875,-0.0324554443359375,-0.987762451171875
1768416551524535800,7.774535888671875,0.172271728515625,-0.0326690673828125,-0.986968994140625
1768416551534537700,7.784537841796875,0.17340087890625,-0.03375244140625,-0.9862213134765625
1768416551544540000,7.794539794921875,0.1711273193359375,-0.0345458984375,-0.98565673828125
1768416551554540800,7.804540771484375,0.17034912109375,-0.033935546875,-0.98516845703125
1768416551564542700,7.814542724609375,0.1692352294921875,-0.0357666015625,-0.98663330078125
1768416551574544000,7.8245439453125,0.1698455810546875,-0.0348052978515625,-0.9867095947265625
1768416551584545800,7.8345458984375,0.1713714599609375,-0.0334625244140625,-0.98858642578125
1768416551594546700,7.844546630859375,0.1725006103515625,-0.035400390625,-0.989501953125
1768416551604548900,7.854548828125,0.17205810546875,-0.0355224609375,-0.9884796142578125
1768416551614549800,7.8645498046875,0.17169189453125,-0.0346221923828125,-0.988494873046875
1768416551624551700,7.8745517578125,0.1679840087890625,-0.0356292724609375,-0.9881744384765625
1768416551634552800,7.884552734375,0.168487548828125,-0.0366058349609375,-0.98736572265625
1768416551644554800,7.8945546875,0.169097900390625,-0.0358123779296875,-0.987579345703125
1768416551654556000,7.904555908203125,0.1708526611328125,-0.0350341796875,-0.9871368408203125
1768416551664557800,7.914557861328125,0.173187255859375,-0.0357818603515625,-0.986480712890625
1768416551674559000,7.92455908203125,0.171478271484375,-0.0351409912109375,-0.98712158203125
1768416551684561000,7.934560791015625,0.1717681884765625,-0.033935546875,-0.9879608154296875
1768416551694562000,7.94456201171875,0.171875,-0.0341644287109375,-0.9874725341796875
1768416551704564000,7.95456396484375,0.16986083984375,-0.0356292724609375,-0.986297607421875
1768416551714565600,7.964565673828125,0.1687774658203125,-0.0354766845703125,-0.9853363037109375
1768416551724567000,7.974567138671875,0.16644287109375,-0.03570556640625,-0.982757568359375
1768416551734569000,7.98456884765625,0.167327880859375,-0.035614013671875,-0.9822235107421875
1768416551744569900,7.99456982421875,0.1668701171875,-0.0353240966796875,-0.9858856201171875
1768416551754572000,8.004572021484375,0.167449951171875,-0.0336761474609375,-0.9883880615234375
1768416551764573000,8.014572998046875,0.1682891845703125,-0.0321197509765625,-0.988433837890625
1768416551774574800,8.024574951171875,0.1696624755859375,-0.0312042236328125,-0.9898834228515625
1768416551784576000,8.034575927734375,0.1688690185546875,-0.0338134765625,-0.9891510009765625
1768416551794578000,8.044577880859375,0.17218017578125,-0.03509521484375,-0.9866180419921875
1768416551804578800,8.054578857421875,0.1740875244140625,-0.0364227294921875,-0.9865570068359375
1768416551814581000,8.0645810546875,0.1724090576171875,-0.0360107421875,-0.987457275390625
1768416551824582000,8.074581787109375,0.173797607421875,-0.0365753173828125,-0.9865875244140625
1768416551834583800,8.084583740234375,0.173370361328125,-0.036163330078125,-0.9878082275390625
1768416551844585000,8.0945849609375,0.1730499267578125,-0.034912109375,-0.9890899658203125
1768416551854587000,8.1045869140625,0.172332763671875,-0.0345916748046875,-0.9882659912109375
1768416551864587800,8.114587890625,0.1702880859375,-0.032806396484375,-0.9873199462890625
1768416551874590000,8.12458984375,0.16851806640625,-0.033355712890625,-0.986114501953125
1768416551884590800,8.1345908203125,0.1671905517578125,-0.035400390625,-0.9842529296875
1768416551894592800,8.1445927734375,0.1694488525390625,-0.03521728515625,-0.9855194091796875
1768416551904595000,8.154594970703124,0.171417236328125,-0.0356597900390625,-0.9871826171875
1768416551914595800,8.164595947265624,0.1711273193359375,-0.0334320068359375,-0.988250732421875
1768416551924598000,8.174597900390625,0.1669158935546875,-0.0321197509765625,-0.9905548095703125
1768416551934599000,8.184598876953125,0.16973876953125,-0.0325469970703125,-0.9908447265625
1768416551944600800,8.194600830078125,0.1768341064453125,-0.03363037109375,-0.990570068359375
1768416551954601700,8.204601806640625,0.1804962158203125,-0.0364990234375,-0.9882965087890625
1768416551964604000,8.21460400390625,0.17755126953125,-0.037353515625,-0.987579345703125
1768416551974604800,8.224604736328125,0.1723785400390625,-0.034423828125,-0.9871826171875
1768416551984607000,8.23460693359375,0.17242431640625,-0.0318603515625,-0.9886932373046875
1768416551994607900,8.24460791015625,0.17523193359375,-0.032562255859375,-0.9898681640625
1768416552004609800,8.25460986328125,0.1743621826171875,-0.03472900390625,-0.987152099609375
1768416552014610700,8.264610595703125,0.1700592041015625,-0.036712646484375,-0.9848175048828125
1768416552024612900,8.27461279296875,0.16668701171875,-0.0379180908203125,-0.9821014404296875
1768416552034613800,8.28461376953125,0.168701171875,-0.0374298095703125,-0.980712890625
1768416552044616000,8.294615966796876,0.166900634765625,-0.0351104736328125,-0.9834747314453125
1768416552054616800,8.304616943359376,0.166717529296875,-0.0335693359375,-0.985992431640625
1768416552064618800,8.31461865234375,0.16851806640625,-0.0332183837890625,-0.987091064453125
1768416552074619600,8.32461962890625,0.170562744140625,-0.0351409912109375,-0.9875640869140625
1768416552084621800,8.334621826171874,0.17633056640625,-0.0361785888671875,-0.989776611328125
1768416552094623000,8.344623046875,0.180572509765625,-0.0355072021484375,-0.9912261962890625
1768416552104625000,8.354625,0.1810455322265625,-0.0363922119140625,-0.9879302978515625
1768416552114626800,8.364626708984375,0.17376708984375,-0.0352783203125,-0.9864501953125
1768416552124627700,8.374627685546875,0.1678314208984375,-0.031768798828125,-0.9871368408203125
1768416552134630000,8.3846298828125,0.1681060791015625,-0.032745361328125,-0.9891510009765625
1768416552144630800,8.394630859375,0.173492431640625,-0.0346832275390625,-0.9898834228515625
1768416552154632700,8.4046328125,0.1751861572265625,-0.0345306396484375,-0.9895477294921875
1768416552164634000,8.414634033203125,0.1700286865234375,-0.0351104736328125,-0.9866790771484375
1768416552174635800,8.4246357421875,0.1651611328125,-0.0336151123046875,-0.9849395751953125
1768416552184637000,8.434636962890625,0.16485595703125,-0.034423828125,-0.9835052490234375
1768416552194638800,8.444638916015625,0.1643829345703125,-0.034454345703125,-0.983551025390625
1768416552204640000,8.454639892578125,0.1658172607421875,-0.0346527099609375,-0.9856719970703125
1768416552214642000,8.464641845703126,0.167877197265625,-0.0347442626953125,-0.9870452880859375
1768416552224642800,8.474642822265626,0.166351318359375,-0.03369140625,-0.9864349365234375
1768416552234645000,8.48464501953125,0.167144775390625,-0.0322723388671875,-0.9899444580078125
1768416552244646000,8.49464599609375,0.1704559326171875,-0.0337371826171875,-0.9900970458984375
1768416552254648000,8.50464794921875,0.1725921630859375,-0.0317840576171875,-0.9911041259765625
1768416552264649000,8.51464892578125,0.1726837158203125,-0.033172607421875,-0.9906005859375
1768416552274651000,8.52465087890625,0.1742401123046875,-0.034912109375,-0.9906158447265625
1768416552284652500,8.534652587890625,0.176025390625,-0.0357208251953125,-0.9886932373046875
1768416552294654500,8.544654541015625,0.1733245849609375,-0.0372772216796875,-0.9878997802734375
1768416552304655600,8.554655517578125,0.1694793701171875,-0.035858154296875,-0.9892120361328125
1768416552314657500,8.564657470703125,0.168792724609375,-0.0349884033203125,-0.98846435546875
1768416552324658400,8.574658447265625,0.1705474853515625,-0.0355224609375,-0.988677978515625
1768416552334660600,8.58466064453125,0.173828125,-0.0355072021484375,-0.9881439208984375
1768416552344661500,8.59466162109375,0.172393798828125,-0.0347747802734375,-0.9881134033203125
1768416552354663400,8.604663330078125,0.1705322265625,-0.0345306396484375,-0.9886627197265625
1768416552364665600,8.61466552734375,0.1689605712890625,-0.034332275390625,-0.9891204833984375
1768416552374666500,8.62466650390625,0.166046142578125,-0.032470703125,-0.9911956787109375
1768416552384668400,8.63466845703125,0.16845703125,-0.031280517578125,-0.9922943115234375
1768416552394669600,8.644669677734376,0.170318603515625,-0.0317840576171875,-0.9933929443359375
1768416552404671500,8.65467138671875,0.172088623046875,-0.032928466796875,-0.9926300048828125
1768416552414672400,8.66467236328125,0.1743011474609375,-0.0350189208984375,-0.9900360107421875
1768416552424674600,8.674674560546874,0.17572021484375,-0.03656005859375,-0.9895477294921875
1768416552434675500,8.684675537109374,0.1728668212890625,-0.0362701416015625,-0.98797607421875
1768416552444677400,8.694677490234374,0.170440673828125,-0.033294677734375,-0.9881134033203125
1768416552454678500,8.704678466796874,0.1667633056640625,-0.0317840576171875,-0.987762451171875
1768416552464680400,8.714680419921875,0.1654510498046875,-0.0328521728515625,-0.9880218505859375
1768416552474681300,8.724681396484375,0.163970947265625,-0.033233642578125,-0.98724365234375
1768416552484683500,8.73468359375,0.1647491455078125,-0.0339508056640625,-0.9859771728515625
1768416552494684400,8.744684326171875,0.16607666015625,-0.0344085693359375,-0.9858245849609375
1768416552504686300,8.754686279296875,0.1646575927734375,-0.0341949462890625,-0.9857940673828125
1768416552514687500,8.7646875,0.1647796630859375,-0.0339202880859375,-0.984832763671875
1768416552524689400,8.774689453125,0.162353515625,-0.03399658203125,-0.985931396484375
1768416552534690300,8.784690185546875,0.1603240966796875,-0.033416748046875,-0.988861083984375
1768416552544692500,8.7946923828125,0.16290283203125,-0.032440185546875,-0.987762451171875
1768416552554693400,8.804693359375,0.1636199951171875,-0.03240966796875,-0.98944091796875
1768416552564695300,8.8146953125,0.16180419921875,-0.0334625244140625,-0.9877471923828125
1768416552574696400,8.824696533203126,0.1619720458984375,-0.034149169921875,-0.9863128662109375
1768416552584698400,8.834698486328126,0.1620635986328125,-0.035369873046875,-0.9864044189453125
1768416552594699300,8.84469921875,0.160552978515625,-0.034088134765625,-0.984771728515625
1768416552604701400,8.854701416015626,0.1592864990234375,-0.033660888671875,-0.9863739013671875
1768416552614702300,8.864702392578126,0.16058349609375,-0.033843994140625,-0.9864501953125
1768416552624704300,8.874704345703124,0.1648101806640625,-0.0345458984375,-0.9872283935546875
1768416552634706400,8.88470654296875,0.165618896484375,-0.035186767578125,-0.98455810546875
1768416552644707300,8.894707275390624,0.1632080078125,-0.03857421875,-0.9840850830078125
1768416552654709200,8.904709228515625,0.159149169921875,-0.0382080078125,-0.9835968017578125
1768416552664710400,8.91471044921875,0.158233642578125,-0.0357513427734375,-0.9837799072265625
1768416552674712300,8.92471240234375,0.1610107421875,-0.0351104736328125,-0.9860382080078125
1768416552684713500,8.93471337890625,0.1612396240234375,-0.03668212890625,-0.98455810546875
1768416552694715400,8.94471533203125,0.1558074951171875,-0.0387420654296875,-0.981658935546875
1768416552704716500,8.954716552734375,0.153564453125,-0.0407257080078125,-0.9804534912109375
1768416552714718500,8.964718505859375,0.1582183837890625,-0.042449951171875,-0.9804534912109375
1768416552724719600,8.9747197265625,0.157745361328125,-0.0406036376953125,-0.98284912109375
1768416552734721500,8.984721435546875,0.157379150390625,-0.03607177734375,-0.9890899658203125
1768416552744722400,8.994722412109375,0.161346435546875,-0.033660888671875,-0.9908905029296875
1768416552754724600,9.004724609375,0.1650238037109375,-0.033203125,-0.9903411865234375
1768416552764725500,9.0147255859375,0.1692962646484375,-0.0352020263671875,-0.9908905029296875
1768416552774727400,9.0247275390625,0.1708984375,-0.0364227294921875,-0.9922027587890625
1768416552784728600,9.034728515625,0.169342041015625,-0.0352325439453125,-0.990875244140625
1768416552794730500,9.04473046875,0.1667938232421875,-0.0319366455078125,-0.9903411865234375
1768416552804731400,9.0547314453125,0.1664276123046875,-0.0312957763671875,-0.990509033203125
1768416552814733600,9.064733642578124,0.1659088134765625,-0.03240966796875,-0.9912109375
1768416552824734500,9.074734375,0.1653594970703125,-0.0307464599609375,-0.99139404296875
1768416552834736400,9.084736328125,0.164306640625,-0.031219482421875,-0.98931884765625
1768416552844737500,9.094737548828125,0.1662445068359375,-0.0339202880859375,-0.9871063232421875
1768416552854739500,9.104739501953125,0.1693115234375,-0.033935546875,-0.987396240234375
1768416552864740400,9.114740234375,0.1699676513671875,-0.0357513427734375,-0.986328125
1768416552874742500,9.124742431640625,0.16680908203125,-0.0337982177734375,-0.987060546875
1768416552884743400,9.134743408203125,0.1633148193359375,-0.030792236328125,-0.9887847900390625
1768416552894745300,9.144745361328125,0.1602630615234375,-0.029754638671875,-0.9901885986328125
1768416552904746500,9.15474658203125,0.1609649658203125,-0.0281219482421875,-0.99163818359375
1768416552914748400,9.16474853515625,0.16412353515625,-0.0303192138671875,-0.9915008544921875
1768416552924749300,9.174749267578125,0.16668701171875,-0.031707763671875,-0.99029541015625
1768416552934751500,9.18475146484375,0.168792724609375,-0.032562255859375,-0.990203857421875
1768416552944752400,9.19475244140625,0.1683349609375,-0.03436279296875,-0.9900360107421875
1768416552954754300,9.20475439453125,0.1688385009765625,-0.0363311767578125,-0.9880828857421875
1768416552964756500,9.214756591796874,0.1694793701171875,-0.0347137451171875,-0.987213134765625
1768416552974757400,9.22475732421875,0.1692657470703125,-0.0347442626953125,-0.98748779296875
1768416552984759600,9.234759521484374,0.1691741943359375,-0.0346221923828125,-0.988250732421875
1768416552994760400,9.244760498046874,0.168792724609375,-0.0356597900390625,-0.9867706298828125
1768416553004762400,9.254762451171874,0.16864013671875,-0.03594970703125,-0.986297607421875
1768416553014763300,9.26476318359375,0.1657257080078125,-0.03582763671875,-0.9871826171875
1768416553024765400,9.274765380859375,0.16949462890625,-0.034820556640625,-0.986785888671875
1768416553034766300,9.284766357421875,0.16839599609375,-0.035919189453125,-0.988037109375
1768416553044768500,9.2947685546875,0.168426513671875,-0.034698486328125,-0.990203857421875
1768416553054769400,9.304769287109375,0.166717529296875,-0.0356903076171875,-0.9892578125
1768416553064771300,9.314771240234375,0.1634979248046875,-0.034423828125,-0.9893951416015625
1768416553074772500,9.3247724609375,0.164276123046875,-0.0330963134765625,-0.9878997802734375
1768416553084774400,9.3347744140625,0.1644287109375,-0.0326080322265625,-0.9873504638671875
1768416553094775600,9.344775634765625,0.1642303466796875,-0.0321807861328125,-0.9861602783203125
1768416553104777500,9.354777587890625,0.1656494140625,-0.0319976806640625,-0.986480712890625
1768416553114778600,9.364778564453125,0.1657257080078125,-0.03131103515625,-0.989288330078125
1768416553124780500,9.374780517578126,0.1633148193359375,-0.0326690673828125,-0.9878692626953125
1768416553134781400,9.384781494140626,0.16448974609375,-0.03076171875,-0.98760986328125
1768416553144783600,9.39478369140625,0.165863037109375,-0.0321197509765625,-0.9871673583984375
1768416553154784500,9.404784423828126,0.1635894775390625,-0.03338623046875,-0.984954833984375
1768416553164786400,9.414786376953124,0.165557861328125,-0.033050537109375,-0.9856719970703125
1768416553174787600,9.42478759765625,0.1676177978515625,-0.032501220703125,-0.9876861572265625
1768416553184789500,9.43478955078125,0.166229248046875,-0.0337677001953125,-0.9871368408203125
1768416553194790400,9.444790283203124,0.1662139892578125,-0.034698486328125,-0.986114501953125
1768416553204792600,9.45479248046875,0.1655426025390625,-0.0348968505859375,-0.9874267578125
1768416553214793500,9.46479345703125,0.16265869140625,-0.033050537109375,-0.9874114990234375
1768416553224795400,9.47479541015625,0.161163330078125,-0.0324554443359375,-0.986236572265625
1768416553234796500,9.484796630859375,0.1602935791015625,-0.0320892333984375,-0.9872589111328125
1768416553244798500,9.494798583984375,0.1620941162109375,-0.0325927734375,-0.9879302978515625
1768416553254799400,9.50479931640625,0.163665771484375,-0.0326995849609375,-0.987335205078125
1768416553264801500,9.514801513671875,0.1663360595703125,-0.0334320068359375,-0.988067626953125
1768416553274802400,9.524802490234375,0.16497802734375,-0.0323333740234375,-0.9876556396484375
1768416553284804900,9.534804931640625,0.16571044921875,-0.03253173828125,-0.9885406494140625
1768416553294805800,9.5448056640625,0.1668701171875,-0.03265380859375,-0.9881591796875
1768416553304807700,9.5548076171875,0.169708251953125,-0.0331268310546875,-0.9882659912109375
1768416553314808600,9.56480859375,0.175506591796875,-0.0345001220703125,-0.9881439208984375
1768416553324810800,9.574810791015626,0.1730499267578125,-0.0361480712890625,-0.987396240234375
1768416553334811600,9.584811767578126,0.1693878173828125,-0.0352935791015625,-0.9884185791015625
1768416553344813800,9.594813720703126,0.16552734375,-0.0320892333984375,-0.9877166748046875
1768416553354814700,9.604814697265626,0.169097900390625,-0.030609130859375,-0.9906768798828125
1768416553364816600,9.614816650390624,0.171295166015625,-0.029693603515625,-0.989013671875
1768416553374817500,9.624817626953124,0.1693267822265625,-0.031982421875,-0.9859619140625
1768416553384819700,9.63481982421875,0.1671142578125,-0.035736083984375,-0.985748291015625
1768416553394821600,9.644821533203125,0.1677398681640625,-0.0386505126953125,-0.98040771484375
1768416553404822500,9.654822509765625,0.167449951171875,-0.037689208984375,-0.983001708984375
1768416553414824700,9.66482470703125,0.166412353515625,-0.033294677734375,-0.9873046875
1768416553424825600,9.67482568359375,0.16412353515625,-0.033355712890625,-0.9893798828125
1768416553434827800,9.684827880859375,0.1644744873046875,-0.0320587158203125,-0.9912872314453125
1768416553444828700,9.69482861328125,0.168212890625,-0.0295257568359375,-0.990753173828125
1768416553454830600,9.70483056640625,0.170867919921875,-0.0330963134765625,-0.99072265625
1768416553464831500,9.71483154296875,0.1717681884765625,-0.0323028564453125,-0.988189697265625
1768416553474833700,9.724833740234375,0.1672821044921875,-0.0308685302734375,-0.9815673828125
1768416553484834600,9.73483447265625,0.169158935546875,-0.0323638916015625,-0.9830169677734375
1768416553494836700,9.744836669921876,0.170745849609375,-0.0335693359375,-0.992828369140625
1768416553504837600,9.754837646484376,0.1669769287109375,-0.0325927734375,-0.992950439453125
1768416553514839600,9.764839599609376,0.1682281494140625,-0.0315399169921875,-0.9926910400390625
1768416553524840700,9.7748408203125,0.1655120849609375,-0.0284576416015625,-0.9915008544921875
1768416553534842600,9.784842529296874,0.163421630859375,-0.028106689453125,-0.9890289306640625
1768416553544843800,9.79484375,0.1626129150390625,-0.0281829833984375,-0.9884185791015625
1768416553554845700,9.804845703125,0.1629180908203125,-0.0301361083984375,-0.9873199462890625
1768416553564846800,9.814846923828124,0.1631622314453125,-0.0305023193359375,-0.98626708984375
1768416553574848800,9.824848876953125,0.1635894775390625,-0.0307159423828125,-0.98553466796875
1768416553584849700,9.834849609375,0.1652069091796875,-0.0305328369140625,-0.9871368408203125
1768416553594851800,9.844851806640625,0.1643524169921875,-0.0316009521484375,-0.9868621826171875
1768416553604852700,9.854852783203125,0.1639556884765625,-0.0316925048828125,-0.987030029296875
1768416553614855000,9.86485498046875,0.1656951904296875,-0.0315704345703125,-0.9878387451171875
1768416553624855800,9.874855712890625,0.166229248046875,-0.031219482421875,-0.9883270263671875
1768416553634857700,9.884857666015625,0.16778564453125,-0.030792236328125,-0.9891357421875
1768416553644858600,9.894858642578125,0.168426513671875,-0.0329132080078125,-0.9879608154296875
1768416553654860800,9.90486083984375,0.16986083984375,-0.0345458984375,-0.9874114990234375
1768416553664861700,9.91486181640625,0.16876220703125,-0.0350799560546875,-0.9864959716796875
1768416553674863900,9.92486376953125,0.1674346923828125,-0.034912109375,-0.987457275390625
1768416553684864800,9.93486474609375,0.1669769287109375,-0.032379150390625,-0.987213134765625
1768416553694866700,9.94486669921875,0.1660308837890625,-0.03167724609375,-0.9873504638671875
1768416553704867600,9.95486767578125,0.16571044921875,-0.032440185546875,-0.987762451171875
1768416553714869800,9.964869873046876,0.166259765625,-0.0299224853515625,-0.9874114990234375
1768416553724870700,9.97487060546875,0.1679840087890625,-0.0303497314453125,-0.9877166748046875
1768416553734872800,9.984872802734374,0.167633056640625,-0.0316009521484375,-0.9880828857421875
1768416553744873700,9.994873779296874,0.16741943359375,-0.031524658203125,-0.988189697265625
1768416553754875600,10.004875732421874,0.16949462890625,-0.030364990234375,-0.98931884765625
1768416553764876500,10.01487646484375,0.1681365966796875,-0.028961181640625,-0.988037109375
1768416553774878700,10.024878662109375,0.17120361328125,-0.0302886962890625,-0.989227294921875
1768416553784879600,10.034879638671875,0.1733856201171875,-0.0305938720703125,-0.9879150390625
1768416553794881800,10.0448818359375,0.1711883544921875,-0.0311126708984375,-0.986724853515625
1768416553804882700,10.054882568359375,0.1708221435546875,-0.0314788818359375,-0.9880523681640625
1768416553814884600,10.064884521484375,0.171417236328125,-0.0306396484375,-0.98883056640625
1768416553824885500,10.074885498046875,0.1684417724609375,-0.0302734375,-0.9892425537109375
1768416553834887700,10.0848876953125,0.1685333251953125,-0.030120849609375,-0.98828125
1768416553844888600,10.094888671875,0.16766357421875,-0.0302581787109375,-0.9876556396484375
1768416553854890800,10.104890869140625,0.1679534912109375,-0.0309600830078125,-0.9894561767578125
1768416553864891600,10.1148916015625,0.1679840087890625,-0.0315704345703125,-0.98846435546875
1768416553874893600,10.1248935546875,0.17034912109375,-0.0313720703125,-0.9874725341796875
1768416553884894700,10.134894775390626,0.1708221435546875,-0.0320587158203125,-0.9865570068359375
1768416553894896600,10.144896728515626,0.1721038818359375,-0.0322265625,-0.988525390625
1768416553904897800,10.154897705078126,0.1726226806640625,-0.03106689453125,-0.99066162109375
1768416553914899700,10.164899658203124,0.1688995361328125,-0.0317840576171875,-0.990264892578125
1768416553924900900,10.17490087890625,0.1660614013671875,-0.0302734375,-0.990478515625
1768416553934902800,10.18490283203125,0.1637115478515625,-0.02911376953125,-0.9910125732421875
1768416553944903700,10.194903564453124,0.16680908203125,-0.02789306640625,-0.9906158447265625
1768416553954905900,10.20490576171875,0.167022705078125,-0.030029296875,-0.9897003173828125
1768416553964906800,10.21490673828125,0.1666259765625,-0.031158447265625,-0.9880828857421875
1768416553974908700,10.22490869140625,0.1665496826171875,-0.033111572265625,-0.984954833984375
1768416553984909800,10.234909912109375,0.16754150390625,-0.0335693359375,-0.9820556640625
1768416553994911700,10.244911865234375,0.1663055419921875,-0.0334320068359375,-0.981903076171875
1768416554004912600,10.25491259765625,0.16259765625,-0.0331573486328125,-0.9850311279296875
1768416554014914800,10.264914794921875,0.1637725830078125,-0.0298309326171875,-0.9871368408203125
1768416554024915700,10.274915771484375,0.168548583984375,-0.02960205078125,-0.9894866943359375
1768416554034917600,10.284917724609375,0.1706695556640625,-0.0297393798828125,-0.98876953125
1768416554044918800,10.294918701171875,0.168487548828125,-0.03302001953125,-0.9880218505859375
1768416554054920700,10.304920654296875,0.1631927490234375,-0.03228759765625,-0.987701416015625
1768416554064921600,10.314921630859375,0.1623077392578125,-0.0284271240234375,-0.988067626953125
1768416554074923800,10.324923828125,0.165008544921875,-0.02618408203125,-0.98956298828125
1768416554084924700,10.334924560546876,0.168670654296875,-0.02947998046875,-0.988250732421875
1768416554094926600,10.344926513671876,0.1695404052734375,-0.0323486328125,-0.9843902587890625
1768416554104927700,10.354927734375,0.1672821044921875,-0.0330810546875,-0.981475830078125
1768416554114929700,10.3649296875,0.16864013671875,-0.035736083984375,-0.980743408203125
1768416554124930600,10.3749306640625,0.1662750244140625,-0.03619384765625,-0.9845123291015625
1768416554134932700,10.3849326171875,0.163543701171875,-0.0303802490234375,-0.98809814453125
1768416554144933600,10.39493359375,0.164947509765625,-0.0290679931640625,-0.989227294921875
1768416554154935600,10.404935546875,0.166259765625,-0.031646728515625,-0.98876953125
1768416554164936700,10.414936767578125,0.1686859130859375,-0.032135009765625,-0.98779296875
1768416554174938600,10.424938720703125,0.1705780029296875,-0.034759521484375,-0.987884521484375
1768416554184939500,10.434939453125,0.171173095703125,-0.0333099365234375,-0.98748779296875
1768416554194941700,10.444941650390625,0.1717987060546875,-0.03204345703125,-0.9895782470703125
1768416554204942600,10.454942626953125,0.1709442138671875,-0.030731201171875,-0.9882965087890625
1768416554214944500,10.464944580078125,0.1684417724609375,-0.0297088623046875,-0.9887542724609375
1768416554224945700,10.474945556640625,0.168853759765625,-0.0296630859375,-0.989593505859375
1768416554234947600,10.484947509765625,0.1683197021484375,-0.028839111328125,-0.9891357421875
1768416554244948700,10.49494873046875,0.16705322265625,-0.028961181640625,-0.9889068603515625
1768416554254950700,10.50495068359375,0.1660003662109375,-0.028839111328125,-0.98931884765625
1768416554264951800,10.514951904296876,0.1666107177734375,-0.0289459228515625,-0.99090576171875
1768416554274953700,10.52495361328125,0.1663818359375,-0.0288543701171875,-0.98809814453125
1768416554284954600,10.53495458984375,0.1670684814453125,-0.0284271240234375,-0.9871673583984375
1768416554294956800,10.544956787109374,0.168548583984375,-0.0303802490234375,-0.987518310546875
1768416554304957700,10.554957763671876,0.169586181640625,-0.0308380126953125,-0.9864654541015625
1768416554314959600,10.564959716796874,0.170440673828125,-0.0314178466796875,-0.986724853515625
1768416554324960800,10.574960693359374,0.1697998046875,-0.03179931640625,-0.987274169921875
1768416554334962700,10.584962646484374,0.1720428466796875,-0.031646728515625,-0.9891815185546875
1768416554344963600,10.594963623046874,0.171661376953125,-0.0292510986328125,-0.99066162109375
1768416554354965800,10.6049658203125,0.171844482421875,-0.0290374755859375,-0.988861083984375
1768416554364966700,10.614966552734375,0.1716156005859375,-0.030853271484375,-0.9879302978515625
1768416554374968600,10.624968505859375,0.1692657470703125,-0.0302886962890625,-0.988983154296875
1768416554384969700,10.6349697265625,0.167877197265625,-0.030120849609375,-0.988677978515625
1768416554394971600,10.6449716796875,0.166656494140625,-0.0306854248046875,-0.9899749755859375
1768416554404972500,10.65497265625,0.1648101806640625,-0.03106689453125,-0.9860382080078125
1768416554414974700,10.664974609375,0.166412353515625,-0.032684326171875,-0.9864349365234375
1768416554424975600,10.6749755859375,0.170013427734375,-0.0323638916015625,-0.987640380859375
1768416554434977500,10.6849775390625,0.170074462890625,-0.03143310546875,-0.9891510009765625
1768416554444978700,10.694978759765625,0.1688385009765625,-0.0304718017578125,-0.9866180419921875
1768416554454980600,10.704980712890626,0.167877197265625,-0.0291595458984375,-0.9863128662109375
1768416554464981500,10.7149814453125,0.1678466796875,-0.0296478271484375,-0.985809326171875
1768416554474983700,10.724983642578126,0.1671142578125,-0.029083251953125,-0.98748779296875
1768416554484984600,10.734984619140626,0.168212890625,-0.029571533203125,-0.987945556640625
1768416554494986500,10.744986572265624,0.1670074462890625,-0.02764892578125,-0.98785400390625
1768416554504987600,10.754987548828124,0.1678314208984375,-0.0304107666015625,-0.9874267578125
1768416554514989600,10.764989501953124,0.1671295166015625,-0.030181884765625,-0.9874267578125
1768416554524990500,10.774990478515624,0.1676788330078125,-0.03021240234375,-0.987640380859375
1768416554534992600,10.78499267578125,0.1688690185546875,-0.029815673828125,-0.9871368408203125
1768416554544993500,10.79499365234375,0.168792724609375,-0.0299072265625,-0.9874725341796875
1768416554554995500,10.804995361328125,0.1680145263671875,-0.032073974609375,-0.986724853515625
1768416554564996600,10.81499658203125,0.1669769287109375,-0.032073974609375,-0.9846343994140625
1768416554574998500,10.82499853515625,0.1689300537109375,-0.0314483642578125,-0.9854888916015625
1768416554584999700,10.834999755859375,0.1679840087890625,-0.0322113037109375,-0.9886627197265625
1768416554595001600,10.845001708984375,0.169219970703125,-0.0294036865234375,-0.989959716796875
1768416554605002800,10.855002685546875,0.170074462890625,-0.0308837890625,-0.989990234375
1768416554615004400,10.86500439453125,0.169281005859375,-0.0306854248046875,-0.99078369140625
1768416554625005800,10.875005859375,0.1682281494140625,-0.0321807861328125,-0.989990234375
1768416554635007700,10.8850078125,0.1692352294921875,-0.032958984375,-0.9871978759765625
1768416554645008600,10.895008544921875,0.1673126220703125,-0.0320892333984375,-0.9873809814453125
1768416554655010800,10.9050107421875,0.163787841796875,-0.0319061279296875,-0.9869537353515625
1768416554665011700,10.91501171875,0.16326904296875,-0.031768798828125,-0.98504638671875
1768416554675013600,10.925013671875,0.1643829345703125,-0.031890869140625,-0.9834442138671875
1768416554685014800,10.935014892578126,0.164520263671875,-0.0317230224609375,-0.985504150390625
1768416554695016700,10.9450166015625,0.166015625,-0.031524658203125,-0.9847259521484375
1768416554705017600,10.955017578125,0.1662139892578125,-0.0319366455078125,-0.9846954345703125
1768416554715019800,10.965019775390624,0.1671600341796875,-0.0304412841796875,-0.9862518310546875
1768416554725020700,10.975020751953124,0.16778564453125,-0.02996826171875,-0.985198974609375
1768416554735022600,10.985022705078125,0.1665496826171875,-0.030670166015625,-0.9853363037109375
1768416554745023700,10.995023681640625,0.1650848388671875,-0.02972412109375,-0.985809326171875
1768416554755025700,11.005025634765625,0.1700897216796875,-0.0298919677734375,-0.9880218505859375
1768416554765026600,11.015026611328125,0.1744384765625,-0.0289306640625,-0.9895782470703125
1768416554775028700,11.02502880859375,0.1778411865234375,-0.0294189453125,-0.992462158203125
1768416554785029600,11.035029541015625,0.175445556640625,-0.031097412109375,-0.9930267333984375
1768416554795031600,11.045031494140625,0.169891357421875,-0.027252197265625,-0.9927215576171875
1768416554805032700,11.05503271484375,0.171661376953125,-0.02618408203125,-0.994232177734375
1768416554815034600,11.06503466796875,0.1761016845703125,-0.029205322265625,-0.990966796875
1768416554825035500,11.075035400390625,0.175201416015625,-0.0293121337890625,-0.985076904296875
1768416554835037700,11.08503759765625,0.1707305908203125,-0.0330047607421875,-0.98345947265625
1768416554845038600,11.09503857421875,0.168487548828125,-0.034881591796875,-0.9788818359375
1768416554855040500,11.10504052734375,0.170196533203125,-0.037139892578125,-0.9814300537109375
1768416554865041700,11.115041748046876,0.1691741943359375,-0.0351715087890625,-0.98724365234375
1768416554875043600,11.125043701171874,0.16845703125,-0.031829833984375,-0.988677978515625
1768416554885044500,11.13504443359375,0.1690216064453125,-0.0298919677734375,-0.9881591796875
1768416554895046700,11.145046630859374,0.173583984375,-0.030303955078125,-0.9874420166015625
1768416554905047600,11.155047607421874,0.1733551025390625,-0.0299530029296875,-0.9889068603515625
1768416554915049500,11.165049560546874,0.1744537353515625,-0.0303497314453125,-0.9893798828125
1768416554925050600,11.175050537109374,0.17291259765625,-0.03082275390625,-0.988555908203125
1768416554935052500,11.185052490234375,0.17218017578125,-0.031036376953125,-0.9871368408203125
1768416554945053700,11.1950537109375,0.1729888916015625,-0.0309600830078125,-0.98828125
1768416554955055600,11.2050556640625,0.1699066162109375,-0.030029296875,-0.987548828125
1768416554965056800,11.215056884765625,0.170440673828125,-0.031005859375,-0.98675537109375
1768416554975058400,11.225058349609375,0.1684112548828125,-0.028900146484375,-0.988494873046875
1768416554985059800,11.235059814453125,0.16705322265625,-0.029144287109375,-0.988922119140625
1768416554995061800,11.245061767578125,0.165740966796875,-0.0286407470703125,-0.9893798828125
1768416555005062700,11.255062744140625,0.1640777587890625,-0.028564453125,-0.9881134033203125
1768416555015064800,11.26506494140625,0.1657562255859375,-0.027496337890625,-0.98773193359375
1768416555025065700,11.275065673828125,0.1665496826171875,-0.029144287109375,-0.986297607421875
1768416555035067600,11.285067626953126,0.1688690185546875,-0.031494140625,-0.986541748046875
1768416555045068800,11.29506884765625,0.1700286865234375,-0.029052734375,-0.9869232177734375
1768416555055069700,11.305069580078126,0.1687164306640625,-0.030029296875,-0.9886016845703125
1768416555065071600,11.315071533203126,0.1696929931640625,-0.030364990234375,-0.9896087646484375
1768416555075072500,11.325072509765626,0.166595458984375,-0.0303802490234375,-0.9895172119140625
1768416555085074700,11.33507470703125,0.166717529296875,-0.0298614501953125,-0.9874114990234375
1768416555095075600,11.34507568359375,0.1697998046875,-0.0322113037109375,-0.98504638671875
1768416555105077500,11.355077392578124,0.1694793701171875,-0.0331573486328125,-0.9852294921875
1768416555115078700,11.36507861328125,0.1668853759765625,-0.0308837890625,-0.98455810546875
1768416555125080600,11.37508056640625,0.163970947265625,-0.0322113037109375,-0.98626708984375
1768416555135081500,11.38508154296875,0.164154052734375,-0.0317535400390625,-0.9868927001953125
1768416555145083600,11.395083740234375,0.1652679443359375,-0.0323028564453125,-0.9864349365234375
1768416555155084500,11.40508447265625,0.1677703857421875,-0.0319671630859375,-0.9882659912109375
1768416555165086500,11.41508642578125,0.17010498046875,-0.0323486328125,-0.9882354736328125
1768416555175087600,11.425087646484375,0.1690826416015625,-0.0324554443359375,-0.986480712890625
1768416555185089500,11.435089599609375,0.1694488525390625,-0.03057861328125,-0.9867706298828125
1768416555195090400,11.44509033203125,0.16937255859375,-0.0273284912109375,-0.9857177734375
1768416555205092600,11.455092529296875,0.1696319580078125,-0.02978515625,-0.990142822265625
1768416555215093500,11.465093505859375,0.1697235107421875,-0.0275726318359375,-0.9888458251953125
1768416555225095400,11.475095458984375,0.1680755615234375,-0.02813720703125,-0.987640380859375
1768416555235096600,11.4850966796875,0.1685943603515625,-0.0276641845703125,-0.9859771728515625
1768416555245098500,11.495098388671876,0.167572021484375,-0.028289794921875,-0.9849853515625
1768416555255099600,11.505099609375,0.169464111328125,-0.0295257568359375,-0.9873504638671875
1768416555265101600,11.5151015625,0.1710968017578125,-0.0289154052734375,-0.9911346435546875
1768416555275102700,11.525102783203126,0.1712799072265625,-0.0275115966796875,-0.9920654296875
1768416555285103900,11.535103759765626,0.1714324951171875,-0.0269775390625,-0.99163818359375
1768416555295104800,11.545104736328126,0.1715240478515625,-0.0270843505859375,-0.9912567138671875
1768416555305106700,11.555106689453124,0.1712646484375,-0.0286407470703125,-0.990203857421875
1768416555315107800,11.56510791015625,0.1726226806640625,-0.0281829833984375,-0.98846435546875
1768416555325109800,11.57510986328125,0.1705474853515625,-0.028472900390625,-0.987823486328125
1768416555335110700,11.585110595703124,0.1719818115234375,-0.028472900390625,-0.9899749755859375
1768416555345112800,11.59511279296875,0.170379638671875,-0.0270233154296875,-0.9894256591796875
1768416555355113700,11.60511376953125,0.168212890625,-0.0274810791015625,-0.9905853271484375
1768416555365115600,11.61511572265625,0.1687469482421875,-0.0303192138671875,-0.9892425537109375
1768416555375116500,11.625116455078125,0.1707305908203125,-0.0310211181640625,-0.9874267578125
1768416555385118700,11.63511865234375,0.1698455810546875,-0.03082275390625,-0.9878997802734375
1768416555395119600,11.64511962890625,0.169921875,-0.0295867919921875,-0.988922119140625
1768416555405121800,11.655121826171875,0.1697235107421875,-0.031982421875,-0.9894561767578125
1768416555415122700,11.665122802734375,0.1696929931640625,-0.0311279296875,-0.9872283935546875
1768416555425124600,11.67512451171875,0.16656494140625,-0.031890869140625,-0.9865875244140625
1768416555435125500,11.68512548828125,0.1659088134765625,-0.032958984375,-0.9855804443359375
1768416555445127700,11.695127685546876,0.1662139892578125,-0.0314788818359375,-0.986663818359375
1768416555455128600,11.705128662109376,0.1656646728515625,-0.0293731689453125,-0.988067626953125
1768416555465130800,11.715130859375,0.1651458740234375,-0.0283966064453125,-0.9891357421875
1768416555475131600,11.725131591796876,0.1651153564453125,-0.0268096923828125,-0.9880828857421875
1768416555485133600,11.735133544921876,0.1660919189453125,-0.0291290283203125,-0.9867401123046875
1768416555495134700,11.745134765625,0.16546630859375,-0.0285797119140625,-0.9842987060546875
1768416555505136600,11.75513671875,0.16326904296875,-0.029449462890625,-0.9842987060546875
1768416555515137800,11.7651376953125,0.1628265380859375,-0.0290985107421875,-0.9852294921875
1768416555525138700,11.775138671875,0.1666259765625,-0.028411865234375,-0.98822021484375
1768416555535140900,11.785140869140625,0.1678314208984375,-0.027191162109375,-0.988311767578125
1768416555545141800,11.795141845703125,0.1705169677734375,-0.0279541015625,-0.9892730712890625
1768416555555143700,11.805143798828125,0.1675872802734375,-0.03009033203125,-0.990020751953125
1768416555565144800,11.815144775390625,0.166015625,-0.028594970703125,-0.9886932373046875
1768416555575146800,11.825146728515625,0.169036865234375,-0.0274810791015625,-0.9901275634765625
1768416555585147600,11.835147705078125,0.1697845458984375,-0.028472900390625,-0.9884185791015625
1768416555595149800,11.84514990234375,0.166168212890625,-0.03033447265625,-0.986358642578125
1768416555605150700,11.855150634765625,0.1641387939453125,-0.02996826171875,-0.9835052490234375
1768416555615152600,11.865152587890625,0.163238525390625,-0.0330963134765625,-0.9813385009765625
1768416555625153800,11.87515380859375,0.166107177734375,-0.0352783203125,-0.9838714599609375
1768416555635155700,11.88515576171875,0.166717529296875,-0.0327606201171875,-0.988250732421875
1768416555645156600,11.895156494140625,0.1680145263671875,-0.031097412109375,-0.9881744384765625
1768416555655158800,11.90515869140625,0.17431640625,-0.0302276611328125,-0.9914093017578125
1768416555665159700,11.91515966796875,0.18560791015625,-0.03167724609375,-0.995147705078125
1768416555675161600,11.92516162109375,0.193084716796875,-0.0329132080078125,-0.995361328125
1768416555685162800,11.935162841796876,0.18756103515625,-0.03094482421875,-0.9933319091796875
1768416555695164700,11.94516455078125,0.17388916015625,-0.0275726318359375,-0.9890899658203125
1768416555705165600,11.95516552734375,0.1660919189453125,-0.027984619140625,-0.987701416015625
1768416555715167700,11.965167724609374,0.163848876953125,-0.0279083251953125,-0.98773193359375
1768416555725168600,11.975168701171874,0.1636962890625,-0.0281524658203125,-0.9904022216796875
1768416555735170600,11.985170654296875,0.1620941162109375,-0.0271148681640625,-0.9907073974609375
1768416555745171700,11.995171630859375,0.16253662109375,-0.0272369384765625,-0.989471435546875
1768416555755173600,12.005173583984375,0.1628570556640625,-0.0267791748046875,-0.9889068603515625
1768416555765174500,12.015174560546875,0.1611175537109375,-0.0262298583984375,-0.986053466796875
1768416555775176700,12.0251767578125,0.1604156494140625,-0.027587890625,-0.9856414794921875
1768416555785177600,12.035177490234375,0.1607666015625,-0.0288543701171875,-0.98406982421875
1768416555795179500,12.045179443359375,0.1593780517578125,-0.0296173095703125,-0.9823150634765625
1768416555805180700,12.0551806640625,0.15936279296875,-0.0289306640625,-0.98309326171875
1768416555815182600,12.0651826171875,0.16094970703125,-0.0284576416015625,-0.9843597412109375
1768416555825183700,12.075183837890625,0.1640777587890625,-0.030670166015625,-0.9857330322265625
1768416555835185700,12.085185546875,0.166046142578125,-0.030181884765625,-0.986602783203125
1768416555845186800,12.095186767578125,0.1660614013671875,-0.02886962890625,-0.9891510009765625
1768416555855188700,12.105188720703126,0.1688232421875,-0.0290679931640625,-0.9880218505859375
1768416555865190000,12.11518994140625,0.167388916015625,-0.0300750732421875,-0.98602294921875
1768416555875191800,12.12519189453125,0.166748046875,-0.0338134765625,-0.9865264892578125
1768416555885192700,12.135192626953126,0.167327880859375,-0.0330810546875,-0.985931396484375
1768416555895195000,12.14519482421875,0.16448974609375,-0.03399658203125,-0.98675537109375
1768416555905195800,12.15519580078125,0.162567138671875,-0.034271240234375,-0.9884185791015625
1768416555915197700,12.16519775390625,0.162567138671875,-0.0319366455078125,-0.9887542724609375
1768416555925198800,12.17519873046875,0.16375732421875,-0.0307159423828125,-0.9916534423828125
1768416555935200800,12.18520068359375,0.1636505126953125,-0.0295257568359375,-0.992218017578125
1768416555945201700,12.19520166015625,0.163909912109375,-0.0294342041015625,-0.9910430908203125
1768416555955203800,12.205203857421875,0.1649627685546875,-0.0299072265625,-0.9893035888671875
1768416555965204700,12.215204833984375,0.1652069091796875,-0.031158447265625,-0.98797607421875
1768416555975206700,12.22520654296875,0.1649932861328125,-0.032073974609375,-0.988067626953125
1768416555985207800,12.235207763671875,0.1667938232421875,-0.0290069580078125,-0.9878387451171875
1768416555995209700,12.245209716796875,0.162567138671875,-0.03204345703125,-0.9941864013671875
1768416556005210600,12.255210693359375,0.1688232421875,-0.0236053466796875,-0.9821929931640625
1768416556015212800,12.265212890625,0.168487548828125,-0.0281982421875,-0.983734130859375
1768416556025213700,12.275213623046875,0.1658782958984375,-0.0312652587890625,-0.9878387451171875
1768416556035215600,12.285215576171876,0.169281005859375,-0.0278472900390625,-0.9873046875
1768416556045216800,12.295216796875,0.16925048828125,-0.0278472900390625,-0.98773193359375
1768416556055218700,12.30521875,0.167144775390625,-0.027313232421875,-0.986968994140625
1768416556065219600,12.315219482421876,0.16668701171875,-0.0290374755859375,-0.987274169921875
1768416556075221800,12.3252216796875,0.1646728515625,-0.0281524658203125,-0.9871368408203125
1768416556085222700,12.33522265625,0.1650390625,-0.02899169921875,-0.9872589111328125
1768416556095224600,12.345224609375,0.1676788330078125,-0.0300750732421875,-0.987030029296875
1768416556105225700,12.355225830078124,0.1685333251953125,-0.03125,-0.98944091796875
1768416556115227600,12.3652275390625,0.1692352294921875,-0.032135009765625,-0.9886474609375
1768416556125228500,12.375228515625,0.1683349609375,-0.0322418212890625,-0.9882965087890625
1768416556135230700,12.385230712890625,0.16815185546875,-0.03131103515625,-0.989715576171875
1768416556145231600,12.395231689453125,0.17083740234375,-0.032257080078125,-0.9891357421875
1768416556155233500,12.405233642578125,0.1701507568359375,-0.03118896484375,-0.9893035888671875
1768416556165234700,12.415234619140625,0.1680145263671875,-0.033050537109375,-0.9896087646484375
1768416556175236600,12.425236572265625,0.1657562255859375,-0.0325469970703125,-0.9894561767578125
1768416556185237800,12.43523779296875,0.1637115478515625,-0.0328826904296875,-0.9893646240234375
1768416556195239700,12.44523974609375,0.1630096435546875,-0.0319061279296875,-0.988983154296875
1768416556205240800,12.45524072265625,0.1635284423828125,-0.032806396484375,-0.9886322021484375
1768416556215242800,12.46524267578125,0.16363525390625,-0.031646728515625,-0.9885101318359375
1768416556225244000,12.475243896484375,0.1625518798828125,-0.0314178466796875,-0.9871978759765625
1768416556235245800,12.485245849609376,0.16265869140625,-0.0313262939453125,-0.9857025146484375
1768416556245246700,12.495246826171876,0.16253662109375,-0.0306854248046875,-0.98516845703125
1768416556255249000,12.505248779296876,0.16058349609375,-0.0328216552734375,-0.9854278564453125
1768416556265249800,12.515249755859376,0.1593017578125,-0.0301513671875,-0.98553466796875
1768416556275251700,12.525251708984374,0.159637451171875,-0.030242919921875,-0.98834228515625
1768416556285253600,12.535253662109374,0.164520263671875,-0.03082275390625,-0.989349365234375
1768416556295255300,12.54525537109375,0.169158935546875,-0.0295562744140625,-0.989990234375
1768416556305256400,12.55525634765625,0.1666717529296875,-0.0305023193359375,-0.9878997802734375
1768416556315258600,12.565258544921875,0.1606597900390625,-0.030059814453125,-0.988006591796875
1768416556325259500,12.575259521484375,0.1610260009765625,-0.0261077880859375,-0.9886627197265625
1768416556335261400,12.585261474609375,0.161956787109375,-0.02777099609375,-0.9908447265625
1768416556345262600,12.5952626953125,0.1651153564453125,-0.0305328369140625,-0.9893798828125
1768416556355264500,12.605264404296875,0.164581298828125,-0.0330657958984375,-0.987396240234375
1768416556365265400,12.615265380859375,0.158355712890625,-0.0317840576171875,-0.984619140625
1768416556375267600,12.625267578125,0.1550140380859375,-0.0322113037109375,-0.983856201171875
1768416556385268500,12.6352685546875,0.15771484375,-0.0351715087890625,-0.9823150634765625
1768416556395270400,12.6452705078125,0.160736083984375,-0.0342559814453125,-0.987030029296875
1768416556405271600,12.655271484375,0.1647186279296875,-0.0313720703125,-0.988983154296875
1768416556415273500,12.6652734375,0.1697540283203125,-0.0308074951171875,-0.99090576171875
1768416556425274400,12.6752744140625,0.1696319580078125,-0.029083251953125,-0.9912261962890625
1768416556435276500,12.685276611328124,0.17059326171875,-0.029266357421875,-0.991912841796875
1768416556445277400,12.69527734375,0.16845703125,-0.0304412841796875,-0.992340087890625
1768416556455279400,12.705279296875,0.1641998291015625,-0.0274658203125,-0.992919921875
1768416556465280500,12.715280517578124,0.1609954833984375,-0.0287933349609375,-0.99114990234375
1768416556475282400,12.725282470703124,0.16033935546875,-0.02947998046875,-0.9900054931640625
1768416556485283300,12.735283447265624,0.1593170166015625,-0.0300445556640625,-0.9881439208984375
1768416556495285500,12.745285400390625,0.1606292724609375,-0.0298004150390625,-0.988433837890625
1768416556505286400,12.755286376953125,0.1599884033203125,-0.0292816162109375,-0.9869842529296875
1768416556515288300,12.765288330078125,0.160614013671875,-0.028106689453125,-0.986236572265625
1768416556525289500,12.77528955078125,0.1597900390625,-0.029144287109375,-0.986663818359375
1768416556535291400,12.78529150390625,0.1602935791015625,-0.028656005859375,-0.9857940673828125
1768416556545292300,12.795292236328125,0.16326904296875,-0.028717041015625,-0.985992431640625
1768416556555294500,12.80529443359375,0.161163330078125,-0.0289306640625,-0.98980712890625
1768416556565295400,12.81529541015625,0.1614837646484375,-0.0283050537109375,-0.9887847900390625
1768416556575297300,12.82529736328125,0.1628570556640625,-0.02960205078125,-0.987060546875
1768416556585298400,12.83529833984375,0.164947509765625,-0.0319366455078125,-0.989227294921875
1768416556595300400,12.84530029296875,0.165985107421875,-0.031890869140625,-0.9874420166015625
1768416556605301500,12.855301513671876,0.1660308837890625,-0.0323333740234375,-0.9881134033203125
1768416556615303400,12.865303466796876,0.1640777587890625,-0.032318115234375,-0.9861907958984375
1768416556625304600,12.8753046875,0.1627655029296875,-0.03277587890625,-0.9855194091796875
1768416556635306200,12.88530615234375,0.1619415283203125,-0.033050537109375,-0.9860382080078125
