time,seconds_elapsed,z,y,x
1768416543824580600,0.07458056640625,0.013885270804166794,0.059334252029657364,-0.017096590250730515
1768416543834582500,0.08458251953125,0.01581772230565548,0.05902332812547684,-0.01603223755955696
1768416543844583400,0.09458349609375,0.014468565583229065,0.0577671155333519,-0.015506263822317123
1768416543854585600,0.104585693359375,0.011943881399929523,0.05403316766023636,-0.012540150433778763
1768416543864587500,0.11458740234375,0.010139590129256248,0.04936278238892555,-0.011339064687490463
1768416543874588400,0.12458837890625,0.00543612614274025,0.046143610030412674,-0.010995820164680481
1768416543884590600,0.134590576171875,0.002743403660133481,0.04052993282675743,-0.011179046705365181
1768416543894591500,0.144591552734375,-0.0024362641852349043,0.03437802568078041,-0.010086732916533947
1768416543904593400,0.154593505859375,-0.0027321414090692997,0.026211708784103394,-0.009524539113044739
1768416543914595600,0.164595703125,-0.007501103915274143,0.015087110921740532,-0.010984750464558601
1768416543924596500,0.174596435546875,-0.008649990893900394,0.007055283524096012,-0.014621030539274216
1768416543934598700,0.1845986328125,-0.010697045363485813,0.0007878770120441914,-0.01568184234201908
1768416543944599600,0.194599609375,-0.010624341666698456,-0.00837872363626957,-0.016347099095582962
1768416543954601500,0.2046015625,-0.01030530221760273,-0.014031477272510529,-0.01805829629302025
1768416543964603600,0.214603759765625,-0.011146861128509045,-0.0202462300658226,-0.018088921904563904
1768416543974604500,0.2246044921875,-0.011266970075666904,-0.025985607877373695,-0.016697954386472702
1768416543984606500,0.2346064453125,-0.007660187780857086,-0.027017712593078613,-0.011902779340744019
1768416543994607600,0.244607666015625,-0.00698805321007967,-0.025509268045425415,-0.012406496331095695
1768416544004609500,0.254609619140625,-0.00632865447551012,-0.024970775470137596,-0.015316000208258629
1768416544014611500,0.264611572265625,-0.007553724572062492,-0.02421620488166809,-0.019056182354688644
1768416544024612600,0.274612548828125,-0.0053305174224078655,-0.021355703473091125,-0.01710035651922226
1768416544034614500,0.284614501953125,-0.004882417153567076,-0.01885700784623623,-0.010689405724406242
1768416544044615400,0.294615478515625,-0.002461603842675686,-0.01477251760661602,-0.0066432650201022625
1768416544054617600,0.30461767578125,-0.004077037796378136,-0.010840851813554764,-0.0058456482365727425
1768416544064619500,0.31461962890625,-0.0041334968991577625,-0.009985710494220257,-0.008206807076931
1768416544074620400,0.324620361328125,-0.006034516263753176,-0.010022403672337532,-0.012246061116456985
1768416544084622600,0.33462255859375,-0.006516281981021166,-0.011222423985600471,-0.022517872974276543
1768416544094623500,0.34462353515625,-0.006443060003221035,-0.010010319761931896,-0.029604583978652954
1768416544104625400,0.35462548828125,-0.0056294649839401245,-0.01253180019557476,-0.03017769753932953
1768416544114627600,0.364627685546875,-0.004535085987299681,-0.01280796155333519,-0.027958903461694717
1768416544124628500,0.37462841796875,-0.005983845796436071,-0.013938473537564278,-0.027161020785570145
1768416544134630700,0.384630615234375,-0.006245563738048077,-0.01476394571363926,-0.031236909329891205
1768416544144631600,0.394631591796875,-0.006138504482805729,-0.01687796227633953,-0.02958548441529274
1768416544154633500,0.404633544921875,-0.005935195833444595,-0.015947038307785988,-0.03163151443004608
1768416544164635600,0.4146357421875,-0.006703251041471958,-0.015731588006019592,-0.029972631484270096
1768416544174636500,0.424636474609375,-0.007466881535947323,-0.01368512399494648,-0.03063191846013069
1768416544184638500,0.434638427734375,-0.007862093858420849,-0.013617746531963348,-0.02718339115381241
1768416544194639600,0.4446396484375,-0.009346078149974346,-0.011664957739412785,-0.02576613426208496
1768416544204641500,0.4546416015625,-0.009921320714056492,-0.011361890472471714,-0.023936275392770767
1768416544214643500,0.4646435546875,-0.011013953946530819,-0.012390803545713425,-0.02116083912551403
1768416544224644600,0.47464453125,-0.012531156651675701,-0.011917559430003166,-0.01976933889091015
1768416544234646500,0.484646484375,-0.01079070195555687,-0.012989131733775139,-0.017024952918291092
1768416544244647400,0.4946474609375,-0.011557159945368767,-0.01257793977856636,-0.01774454116821289
1768416544254649600,0.504649658203125,-0.012444384396076202,-0.010185938328504562,-0.016468467190861702
1768416544264651800,0.51465185546875,-0.009132742881774902,-0.009980342350900173,-0.017286591231822968
1768416544274652700,0.524652587890625,-0.008305925875902176,-0.009086835198104382,-0.016745204105973244
1768416544284654600,0.534654541015625,-0.00880952924489975,-0.008731302805244923,-0.01533452793955803
1768416544294655700,0.54465576171875,-0.008366521447896957,-0.00783483311533928,-0.013956228271126747
1768416544304657700,0.55465771484375,-0.008851748891174793,-0.005215880926698446,-0.013284580782055855
1768416544314659600,0.56465966796875,-0.00653531588613987,-0.005732367746531963,-0.01141100749373436
1768416544324660700,0.57466064453125,-0.007571818307042122,-0.007060752250254154,-0.012583596631884575
1768416544334662700,0.58466259765625,-0.005258094985038042,-0.007446977309882641,-0.012957315891981125
1768416544344663600,0.59466357421875,-0.0024612429551780224,-0.0075172847136855125,-0.012365296483039856
1768416544354665700,0.604665771484375,-0.0029762517660856247,-0.005658697336912155,-0.013157203793525696
1768416544364667600,0.614667724609375,-0.0011461275862529874,-0.007202532142400742,-0.014332456514239311
1768416544374668500,0.62466845703125,-0.003957305569201708,-0.008004467934370041,-0.015114855952560902
1768416544384670700,0.634670654296875,-0.0035322648473083973,-0.008650817908346653,-0.014589947648346424
1768416544394671600,0.644671630859375,-0.002545931376516819,-0.007115413900464773,-0.015540583059191704
1768416544404673800,0.654673828125,0.0003148360410705209,-0.007479467894881964,-0.017365381121635437
1768416544414675700,0.66467578125,-0.00012735847849398851,-0.004178629256784916,-0.015479670837521553
1768416544424676600,0.674676513671875,-0.00006530690006911755,-0.0016462295316159725,-0.012048454955220222
1768416544434678800,0.6846787109375,0.0019343593157827854,-0.0006815409287810326,-0.011094130575656891
1768416544444679700,0.6946796875,0.00266246753744781,0.001991740195080638,-0.009865348227322102
1768416544454681600,0.704681640625,0.003477997612208128,0.003995078150182962,-0.009307073429226875
1768416544464683800,0.714683837890625,0.0033110175281763077,0.0037207724526524544,-0.005655613727867603
1768416544474684700,0.7246845703125,0.003434588201344013,0.0028251511976122856,-0.006739785894751549
1768416544484686600,0.7346865234375,0.004273483995348215,0.002253903541713953,-0.006651102565228939
1768416544494687700,0.744687744140625,0.004366318695247173,0.0022668023593723774,-0.007804327178746462
1768416544504689700,0.754689697265625,0.003930625505745411,0.000023622065782546997,-0.008898619562387466
1768416544514691600,0.764691650390625,0.002518296241760254,-0.001091384794563055,-0.0098014697432518
1768416544524692700,0.774692626953125,0.00038803357165306807,-0.003545754123479128,-0.012277410365641117
1768416544534694700,0.784694580078125,-0.0005737042520195246,-0.004225767217576504,-0.01227615401148796
1768416544544695600,0.794695556640625,0.0010676018428057432,-0.006068941205739975,-0.012100385501980782
1768416544554697700,0.80469775390625,0.001616996363736689,-0.009442534297704697,-0.010739017277956009
1768416544564699600,0.81469970703125,0.002660689176991582,-0.010231096297502518,-0.009220749139785767
1768416544574700500,0.824700439453125,0.0020878210198134184,-0.010422665625810623,-0.007908234372735023
1768416544584702700,0.83470263671875,0.0028793122619390488,-0.012011773884296417,-0.007078392896801233
1768416544594703600,0.84470361328125,0.001734504010528326,-0.013294128701090813,-0.007793939672410488
1768416544604705800,0.854705810546875,0.0009661820949986577,-0.013686678372323513,-0.008848018944263458
1768416544614707700,0.864707763671875,-0.0014379312051460147,-0.014315485954284668,-0.007164560258388519
1768416544624708600,0.87470849609375,-0.001495455508120358,-0.013266466557979584,-0.008262049406766891
1768416544634710800,0.884710693359375,-0.0014283208874985576,-0.013289542868733406,-0.009599334560334682
1768416544644711700,0.894711669921875,0.0009200546192005277,-0.009398131631314754,-0.011029718443751335
1768416544654713600,0.904713623046875,0.0016688731266185641,-0.008556708693504333,-0.012057585641741753
1768416544664715800,0.9147158203125,-0.000774843618273735,-0.008884809911251068,-0.013932982459664345
1768416544674716700,0.924716552734375,-0.001391999307088554,-0.00998646765947342,-0.015208525583148003
1768416544684718600,0.934718505859375,-0.004475407302379608,-0.013627009466290474,-0.012629253789782524
1768416544694719700,0.9447197265625,-0.0035881209187209606,-0.01549290306866169,-0.0065580434165894985
1768416544704721700,0.9547216796875,-0.005265379790216684,-0.016366152092814445,-0.005038443487137556
1768416544714723600,0.9647236328125,-0.005002329591661692,-0.011653531342744827,-0.00607635360211134
1768416544724724700,0.974724853515625,-0.0026933690533041954,-0.01010117493569851,-0.007482502609491348
1768416544734726700,0.9847265625,-0.00524114491418004,-0.01326863095164299,-0.009506428614258766
1768416544744727600,0.9947275390625,-0.005320240743458271,-0.014087285846471786,-0.008436104282736778
1768416544754729700,1.004729736328125,-0.004945784341543913,-0.012041011825203896,-0.0019355560652911663
1768416544764730600,1.014730712890625,-0.004910896997898817,-0.009941110387444496,0.0007728785276412964
1768416544774732500,1.024732666015625,-0.0050531174056231976,-0.009373782202601433,0.0017693168483674526
1768416544784734700,1.034734619140625,-0.006596685387194157,-0.007811571937054396,-0.0006586872041225433
1768416544794735600,1.044735595703125,-0.006958703510463238,-0.008623287081718445,-0.0024481010623276234
1768416544804737800,1.05473779296875,-0.007730754092335701,-0.011668878607451916,-0.01032945979386568
1768416544814739700,1.06473974609375,-0.006888380739837885,-0.011835957877337933,-0.011262593790888786
1768416544824740600,1.07474072265625,-0.004739742260426283,-0.011603198014199734,-0.006517639383673668
1768416544834742800,1.08474267578125,-0.002926184330135584,-0.010493932291865349,-0.005170383956283331
1768416544844743700,1.09474365234375,-0.0012704971013590693,-0.009589256718754768,-0.00630995025858283
1768416544854745600,1.10474560546875,-0.0020871548913419247,-0.009251010604202747,-0.009115288965404034
1768416544864746800,1.114746826171875,-0.002025103196501732,-0.006338844075798988,-0.009946993552148342
1768416544874748700,1.124748779296875,-0.001786884036846459,-0.004316197708249092,-0.008414912968873978
1768416544884750600,1.13475048828125,-0.0014537227107211947,-0.00279952771961689,-0.006296368781477213
1768416544894751700,1.144751708984375,-0.0004909898852929473,-0.0035830296110361814,-0.0071110292337834835
1768416544904753700,1.154753662109375,0.000005156965926289558,-0.0017561011482030153,-0.0057320441119372845
1768416544914754600,1.164754638671875,-0.0015867708716541529,-0.0005205112975090742,-0.009548278525471687
1768416544924756700,1.1747568359375,-0.0026171477511525154,0.001528524560853839,-0.012127816677093506
1768416544934758700,1.184758544921875,-0.0028400153387337923,-0.0004456350579857826,-0.011746186763048172
1768416544944759600,1.194759521484375,-0.0038600058760493994,-0.0004030244890600443,-0.01299361139535904
1768416544954761700,1.20476171875,-0.0025484380312263966,-0.0011716543231159449,-0.013378171250224113
1768416544964762600,1.2147626953125,0.000400479999370873,-0.0005402187816798687,-0.013684434816241264
1768416544974764800,1.224764892578125,0.000685343868099153,0.002939484780654311,-0.01554841734468937
1768416544984766700,1.2347666015625,0.001226764521561563,0.0038822439964860678,-0.015274377539753914
1768416544994767600,1.244767578125,-0.0007893810980021954,0.004030606243759394,-0.013043945655226707
1768416545004769800,1.254769775390625,-0.000344899483025074,0.004343527369201183,-0.010561613366007805
1768416545014770700,1.264770751953125,0.0011679793242365122,0.003966508433222771,-0.007420108187943697
1768416545024772600,1.274772705078125,0.0016750451177358627,0.004412055015563965,-0.00762011157348752
1768416545034774800,1.28477490234375,0.001396173844113946,0.006754312664270401,-0.006506837904453278
1768416545044775700,1.294775634765625,0.002829753328114748,0.0069745564833283424,-0.008121512830257416
1768416545054777600,1.304777587890625,0.002175665693357587,0.004618292208760977,-0.009614253416657448
1768416545064778800,1.31477880859375,0.0035852768924087286,0.004873157013207674,-0.007470407988876104
1768416545074780700,1.32478076171875,0.002919642021879554,0.003792781149968505,-0.009300148114562035
1768416545084782600,1.334782470703125,0.001694321632385254,0.002189558232203126,-0.006806097459048033
1768416545094783700,1.34478369140625,0.000617974204942584,0.0014723234344273806,-0.0056314170360565186
1768416545104785700,1.35478564453125,0.0004954687901772559,0.003503250190988183,-0.004140579141676426
1768416545114786600,1.36478662109375,0.00037044845521450043,0.00473457295447588,-0.003372255712747574
1768416545124788700,1.374788818359375,0.0013496928149834275,0.0031270894687622786,-0.00399729935452342
1768416545134790700,1.384790771484375,0.0013793015386909246,0.001866629347205162,-0.0017203744500875473
1768416545144791600,1.39479150390625,0.0016911576967686415,-0.0008679043967276812,-0.0008284817449748516
1768416545154793700,1.404793701171875,-0.0008233990520238876,-0.0036314665339887142,-0.0023906920105218887
1768416545164794600,1.414794677734375,-0.0035595307126641273,-0.006130310706794262,-0.0042687528766691685
1768416545174796800,1.424796875,-0.0036006378941237926,-0.008264550939202309,-0.0047225928865373135
1768416545184798700,1.434798828125,-0.005057653412222862,-0.008799047209322453,-0.0057814656756818295
1768416545194799600,1.444799560546875,-0.004805091302841902,-0.010040629655122757,-0.0038373214192688465
1768416545204801800,1.4548017578125,-0.0043401033617556095,-0.009302934631705284,-0.0034756637178361416
1768416545214802700,1.464802734375,-0.004249304998666048,-0.007261521182954311,-0.002055705524981022
1768416545224804600,1.4748046875,-0.004135055001825094,-0.008102813735604286,0.0012122595217078924
1768416545234806800,1.484806884765625,-0.0055037084966897964,-0.005916832946240902,-0.000013630837202072144
1768416545244807700,1.4948076171875,-0.0037348370533436537,-0.002653395524248481,-0.0025146054103970528
1768416545254809600,1.5048095703125,-0.0013730836799368262,-0.0022471293341368437,-0.002319241873919964
1768416545264810500,1.514810546875,-0.0018165000947192311,-0.0040194629691541195,-0.0011122971773147583
1768416545274812400,1.5248125,-0.0014733594143763185,-0.0063363634981215,-0.0015862258151173592
1768416545284814300,1.534814453125,-0.003005476202815771,-0.005825835280120373,-0.0008285562507808208
1768416545294815500,1.5448154296875,-0.0015631942078471184,-0.0033104890026152134,0.0004397931043058634
1768416545304817400,1.5548173828125,0.0011023638071492314,-0.0010862168855965137,-0.0008161538280546665
1768416545314818300,1.564818359375,-0.0009729982120916247,0.000612122705206275,-0.004303031601011753
1768416545324820500,1.574820556640625,0.001983110560104251,0.0010038737673312426,-0.004963229410350323
1768416545334821400,1.5848212890625,0.0004159191157668829,0.002170689171180129,-0.0063539352267980576
1768416545344823300,1.5948232421875,-0.0012557471636682749,0.0022239519748836756,-0.005742473527789116
1768416545354825500,1.604825439453125,0.0002900530816987157,0.003032128792256117,-0.004402216989547014
1768416545364826400,1.614826416015625,0.0024163208436220884,0.00357781071215868,-0.003815255593508482
1768416545374828300,1.624828369140625,0.0008346384856849909,0.003413960337638855,-0.001995595172047615
1768416545384829400,1.634829345703125,0.0010809808736667037,0.0013819686137139797,-0.0015130303800106049
1768416545394831400,1.644831298828125,0.00011218502186238766,0.0013192500919103622,-0.0007171235047280788
1768416545404833500,1.65483349609375,0.0020392483565956354,0.0008494681678712368,-0.0006619957275688648
1768416545414834400,1.66483447265625,0.0014203296741470695,0.000397796044126153,-0.002986669074743986
1768416545424836400,1.67483642578125,0.0040121180936694145,0.0007400121539831161,-0.0037073208950459957
1768416545434837200,1.684837158203125,0.003786101471632719,0.0004827596712857485,-0.00382252037525177
1768416545444839400,1.69483935546875,0.004113137722015381,0.001445226138457656,-0.004340238869190216
1768416545454841300,1.70484130859375,0.004356629680842161,0.00041866092942655087,-0.005313626490533352
1768416545464842500,1.714842529296875,0.004717487841844559,0.0005480903200805187,-0.003743959590792656
1768416545474844400,1.724844482421875,0.0037740948610007763,0.001422499306499958,-0.0002473830245435238
1768416545484845300,1.73484521484375,0.0026736767031252384,0.0026139975525438786,0.0018852765206247568
1768416545494847500,1.744847412109375,0.004922879859805107,0.004141360986977816,0.0016863804776221514
1768416545504849400,1.754849365234375,0.005454180762171745,0.005829005967825651,-0.0014774547889828682
1768416545514850300,1.764850341796875,0.004822447896003723,0.005012680776417255,-0.003951608203351498
1768416545524852500,1.7748525390625,0.006518881302326918,0.00681484118103981,-0.0005616704002022743
1768416545534853400,1.784853271484375,0.004805379547178745,0.009225128218531609,0.005842471960932016
1768416545544855300,1.794855224609375,0.005746274720877409,0.013179123401641846,0.00825582817196846
1768416545554857500,1.804857421875,0.003531049471348524,0.014503054320812225,0.01013670302927494
1768416545564858400,1.8148583984375,0.0025925515219569206,0.012330181896686554,0.008820834569633007
1768416545574860500,1.824860595703125,0.0026119532994925976,0.010359667241573334,0.004762178286910057
1768416545584861400,1.834861328125,0.002482523676007986,0.006178237032145262,0.0002846056595444679
1768416545594863400,1.84486328125,0.002676817588508129,0.0031059409957379103,-0.0018549039959907532
1768416545604865500,1.854865478515625,0.0036203754134476185,0.0012116346042603254,0.005197945516556501
1768416545614866400,1.864866455078125,0.005600756965577602,0.00043606432154774666,0.01014240738004446
1768416545624868400,1.874868408203125,0.006355763413012028,0.0001156860962510109,0.009645728394389153
1768416545634869200,1.884869140625,0.0037954002618789673,-0.0015719591174274683,0.007061928976327181
1768416545644871400,1.894871337890625,0.0010874980362132192,-0.004859098698943853,0.006128757260739803
1768416545654872300,1.904872314453125,0.002125989878550172,-0.003161283675581217,0.00649345712736249
1768416545664874500,1.91487451171875,0.002855962375178933,-0.002084034960716963,0.011125493794679642
1768416545674876400,1.92487646484375,0.004630849231034517,-0.0018578170565888286,0.008872117847204208
1768416545684877300,1.934877197265625,0.004866006318479776,-0.0032586397137492895,0.010354699566960335
1768416545694879500,1.94487939453125,0.005705756135284901,-0.0023921048268675804,0.012250375002622604
1768416545704880400,1.95488037109375,0.004844489507377148,-0.004740746691823006,0.01373242400586605
1768416545714882300,1.96488232421875,0.0030101509764790535,-0.004011075012385845,0.01245209388434887
1768416545724884500,1.974884521484375,0.003129460383206606,-0.003245416097342968,0.014673702418804169
1768416545734885400,1.984885498046875,0.0038969286251813173,-0.00040749344043433666,0.014083774760365486
1768416545744887300,1.99488720703125,0.002878003055229783,0.0009701596572995186,0.013872852548956871
1768416545754888400,2.004888427734375,0.004916653037071228,0.003250091802328825,0.013048071414232254
1768416545764890400,2.014890380859375,0.005632244050502777,0.00565705681219697,0.008675427176058292
1768416545774892500,2.024892578125,0.007883304730057716,0.007113390136510134,0.009198397397994995
1768416545784893400,2.0348935546875,0.006997270509600639,0.005640661809593439,0.006461999379098415
1768416545794895400,2.044895263671875,0.007356390357017517,0.004581838846206665,0.006526295095682144
1768416545804896300,2.054896240234375,0.007580894976854324,0.00747163500636816,0.00791087280958891
1768416545814898400,2.0648984375,0.004855541046708822,0.008129218593239784,0.008062253706157207
1768416545824900400,2.074900390625,0.003686679992824793,0.0075510465539991856,0.0064366599544882774
1768416545834901500,2.084901611328125,0.0031777736730873585,0.0068712844513356686,0.00782838836312294
1768416545844903400,2.0949033203125,0.0026648486964404583,0.005132506135851145,0.009386870078742504
1768416545854904300,2.104904296875,0.0028389333747327328,0.0030368566513061523,0.014541836455464363
1768416545864906500,2.114906494140625,0.004025638103485107,0.00019659544341266155,0.01777784340083599
1768416545874907400,2.124907470703125,0.0026622251607477665,-0.0010686216410249472,0.019691437482833862
1768416545884909300,2.134909423828125,0.0031442572362720966,-0.0024699768982827663,0.023745035752654076
1768416545894911500,2.144911376953125,0.0035072769969701767,-0.00428698631003499,0.023632463067770004
1768416545904912400,2.154912353515625,0.0030156574212014675,-0.0037578162737190723,0.02306467667222023
1768416545914914300,2.164914306640625,0.005807268433272839,-0.0026677765417844057,0.024215009063482285
1768416545924915500,2.17491552734375,0.0060269795358181,-0.005398049019277096,0.020605627447366714
1768416545934917400,2.18491748046875,0.005674511194229126,-0.006082721054553986,0.017573919147253036
1768416545944919300,2.194919189453125,0.006277983542531729,-0.007232673466205597,0.016305988654494286
1768416545954920400,2.20492041015625,0.005613978486508131,-0.007635429035872221,0.01892201416194439
1768416545964922400,2.21492236328125,0.004622483626008034,-0.00794222578406334,0.022098898887634277
1768416545974923300,2.22492333984375,0.0057890270836651325,-0.009428982622921467,0.02439720556139946
1768416545984925400,2.234925537109375,0.004515237174928188,-0.006828672252595425,0.027794865891337395
1768416545994927400,2.24492724609375,0.006238208152353764,-0.0065980274230241776,0.031244955956935883
1768416546004928300,2.25492822265625,0.0024695685133337975,-0.005692819133400917,0.03214137628674507
1768416546014930400,2.264930419921875,0.005331104155629873,-0.0034877872094511986,0.0331418439745903
1768416546024931300,2.274931396484375,0.005311130546033382,0.000012938166037201881,0.03219082951545715
1768416546034933500,2.28493359375,0.008628318086266518,0.00490147341042757,0.027646828442811966
1768416546044934400,2.294934326171875,0.00909224059432745,0.004829035140573978,0.025555714964866638
1768416546054936300,2.304936279296875,0.012030521407723427,0.007186552044004202,0.022801630198955536
1768416546064938500,2.3149384765625,0.012154891155660152,0.004731649998575449,0.018949635326862335
1768416546074939400,2.324939453125,0.012388013303279877,0.00021704426035284996,0.017468953505158424
1768416546084941300,2.33494140625,0.010305953212082386,-0.002638397039845586,0.019460732117295265
1768416546094942500,2.3449423828125,0.01225375011563301,-0.001087947515770793,0.02652103826403618
1768416546104944400,2.3549443359375,0.014152583666145802,-0.0036831977777183056,0.03398082032799721
1768416546114946300,2.3649462890625,0.018633831292390823,-0.00638038944453001,0.04523370414972305
1768416546124947500,2.374947509765625,0.01903170719742775,-0.005857877433300018,0.05221251770853996
1768416546134949400,2.384949462890625,0.01993093267083168,-0.011552772484719753,0.0601433664560318
1768416546144950300,2.3949501953125,0.019191373139619827,-0.011874482035636902,0.07058348506689072
1768416546154952400,2.404952392578125,0.021443473175168037,-0.010845467448234558,0.08149309456348419
1768416546164954400,2.414954345703125,0.028643328696489334,-0.018401388078927994,0.09427600353956223
1768416546174955300,2.424955322265625,0.03656686842441559,-0.02979821152985096,0.11166553199291229
1768416546184957400,2.43495751953125,0.03994801640510559,-0.04387940838932991,0.12624554336071014
1768416546194958300,2.444958251953125,0.0335330069065094,-0.05706775188446045,0.13522841036319733
1768416546204960300,2.454960205078125,0.025338729843497276,-0.06985917687416077,0.1511000543832779
1768416546214961400,2.46496142578125,0.02430294081568718,-0.08003433048725128,0.16473506391048431
1768416546224963300,2.47496337890625,0.03374171629548073,-0.09224492311477661,0.1616916060447693
1768416546234965500,2.484965576171875,0.043381571769714355,-0.11188184469938278,0.14485113322734833
1768416546244966400,2.49496630859375,0.05805160105228424,-0.13586626946926117,0.12070745974779129
1768416546254968300,2.50496826171875,0.08121611177921295,-0.1383887231349945,0.09207261353731155
1768416546264969200,2.51496923828125,0.11496182531118393,-0.11025242507457733,0.053924694657325745
1768416546274971100,2.52497119140625,0.15300163626670837,-0.06714624166488647,-0.005844627041369677
1768416546284973000,2.53497314453125,0.1870775669813156,-0.02576497755944729,-0.06235264241695404
1768416546294974200,2.54497412109375,0.20863021910190582,0.004288032650947571,-0.09963515400886536
1768416546304976000,2.554975830078125,0.21460981667041779,0.03346695750951767,-0.12490695714950562
1768416546314977300,2.564977294921875,0.21023917198181152,0.06796373426914215,-0.13965143263339996
1768416546324979000,2.57497900390625,0.20648491382598877,0.10343464463949203,-0.15900488197803497
1768416546334980000,2.58497998046875,0.20094680786132812,0.14314855635166168,-0.1795797049999237
1768416546344982300,2.594982177734375,0.19209206104278564,0.17747430503368378,-0.19869855046272278
1768416546354984000,2.60498388671875,0.18177255988121033,0.21161802113056183,-0.20699717104434967
1768416546364985000,2.614985107421875,0.17038407921791077,0.24941228330135345,-0.21384522318840027
1768416546374987000,2.624987060546875,0.1571575254201889,0.2863120138645172,-0.21368828415870667
1768416546384988200,2.63498828125,0.14509953558444977,0.3062441647052765,-0.21698421239852905
1768416546394990000,2.644989990234375,0.1332116425037384,0.3107679486274719,-0.22137032449245453
1768416546404992000,2.654991943359375,0.11924656480550766,0.3121112585067749,-0.2257930338382721
1768416546414993200,2.6649931640625,0.10213855654001236,0.314992755651474,-0.21602894365787506
1768416546424995000,2.6749951171875,0.09071572870016098,0.32193082571029663,-0.19227275252342224
1768416546434996200,2.684996337890625,0.08268194645643234,0.3201928436756134,-0.16200897097587585
1768416546444998100,2.694998046875,0.0824851393699646,0.31827884912490845,-0.13329504430294037
1768416546454999000,2.7049990234375,0.08250978589057922,0.30825483798980713,-0.11835122853517532
1768416546465001200,2.715001220703125,0.0808064267039299,0.2930569648742676,-0.10683518648147583
1768416546475003000,2.7250029296875,0.0762583389878273,0.27459853887557983,-0.097706638276577
1768416546485004300,2.73500439453125,0.07646740227937698,0.24689419567584991,-0.08324088156223297
1768416546495006200,2.745006103515625,0.08114087581634521,0.2273528128862381,-0.07059022039175034
1768416546505007000,2.755007080078125,0.0892491340637207,0.20941242575645447,-0.0627586618065834
1768416546515009300,2.76500927734375,0.09777568280696869,0.20254069566726685,-0.06286042928695679
1768416546525011000,2.775010986328125,0.100255087018013,0.18824352324008942,-0.07407020777463913
1768416546535012000,2.78501220703125,0.09877429157495499,0.18196694552898407,-0.0876581221818924
1768416546545014000,2.795013916015625,0.09002980589866638,0.17543980479240417,-0.10536760836839676
1768416546555015200,2.80501513671875,0.07925964891910553,0.17470493912696838,-0.1153113916516304
1768416546565017000,2.81501708984375,0.06881605833768845,0.17900994420051575,-0.11933356523513794
1768416546575018200,2.825018310546875,0.05257729813456535,0.18264885246753693,-0.12456777691841125
1768416546585020200,2.835020263671875,0.028391003608703613,0.18215270340442657,-0.1270301342010498
1768416546595022000,2.84502197265625,0.0072045703418552876,0.17911039292812347,-0.12818196415901184
1768416546605023200,2.855023193359375,-0.00895735528320074,0.18024036288261414,-0.1262005716562271
1768416546615025200,2.865025146484375,-0.015392914414405823,0.18453331291675568,-0.11882661283016205
1768416546625026000,2.875026123046875,-0.017626242712140083,0.18177694082260132,-0.09723237156867981
1768416546635028200,2.8850283203125,-0.01769755221903324,0.18836334347724915,-0.06764262914657593
1768416546645029000,2.895029052734375,-0.019218750298023224,0.20203706622123718,-0.0566142201423645
1768416546655031000,2.905031005859375,-0.009914981201291084,0.21136681735515594,-0.05596942827105522
1768416546665033200,2.915033203125,-0.0022280337288975716,0.21044856309890747,-0.05169691890478134
1768416546675034000,2.9250341796875,0.0096529396250844,0.20629039406776428,-0.04375377669930458
1768416546685036300,2.935036376953125,0.02417622320353985,0.21218983829021454,-0.03100496158003807
1768416546695037200,2.945037109375,0.042376164346933365,0.20731687545776367,-0.022342119365930557
1768416546705039000,2.9550390625,0.05827603489160538,0.19948318600654602,-0.029149159789085388
1768416546715041300,2.965041259765625,0.07385919988155365,0.18994805216789246,-0.04351961240172386
1768416546725042200,2.975042236328125,0.08854919672012329,0.18558499217033386,-0.054675061255693436
1768416546735044000,2.985044189453125,0.10467216372489929,0.18421898782253265,-0.058328382670879364
1768416546745045200,2.995045166015625,0.1266179382801056,0.18412098288536072,-0.05612275004386902
1768416546755047200,3.005047119140625,0.15264984965324402,0.18830856680870056,-0.04361681267619133
1768416546765048000,3.015048095703125,0.18005670607089996,0.18354791402816772,-0.014602208510041237
1768416546775050200,3.02505029296875,0.2009512186050415,0.1740109771490097,0.019708022475242615
1768416546785052200,3.03505224609375,0.2164263129234314,0.1674545407295227,0.05017218738794327
1768416546795053000,3.045052978515625,0.2195408195257187,0.15502357482910156,0.0651262104511261
1768416546805055200,3.05505517578125,0.21279582381248474,0.14021266996860504,0.0694461241364479
1768416546815056100,3.06505615234375,0.20050282776355743,0.12361606955528259,0.0760655626654625
1768416546825058000,3.07505810546875,0.17898021638393402,0.10490496456623077,0.07771912217140198
1768416546835059200,3.08505908203125,0.16450053453445435,0.09698383510112762,0.07436833530664444
1768416546845061000,3.09506103515625,0.15035542845726013,0.08588378131389618,0.07574758678674698
1768416546855063000,3.10506298828125,0.14702124893665314,0.07934249937534332,0.09393772482872009
1768416546865064200,3.115064208984375,0.14398923516273499,0.07379673421382904,0.10809402912855148
1768416546875066000,3.125066162109375,0.13192403316497803,0.06924204528331757,0.11632324010133743
1768416546885067000,3.13506689453125,0.12008760869503021,0.06634026765823364,0.11818159371614456
1768416546895069200,3.145069091796875,0.10126682370901108,0.06905986368656158,0.12099622189998627
1768416546905070000,3.155070068359375,0.07377820461988449,0.07233341783285141,0.126471146941185
1768416546915072000,3.165072021484375,0.050559110939502716,0.07463293522596359,0.12871257960796356
1768416546925074200,3.17507421875,0.026108626276254654,0.08404747396707535,0.1275453120470047
1768416546935075000,3.185074951171875,0.00048643426271155477,0.09598358720541,0.12298117578029633
1768416546945077200,3.1950771484375,-0.02420053631067276,0.09958231449127197,0.12523820996284485
1768416546955078100,3.205078125,-0.05227118730545044,0.10325158387422562,0.13166704773902893
1768416546965080000,3.215080078125,-0.06843125075101852,0.10250217467546463,0.13606099784374237
1768416546975082200,3.225082275390625,-0.08690998703241348,0.09024199098348618,0.13629363477230072
1768416546985083100,3.235083251953125,-0.1116371676325798,0.0749482586979866,0.13277161121368408
1768416546995085000,3.2450849609375,-0.1363581120967865,0.053141381591558456,0.13364626467227936
1768416547005086200,3.255086181640625,-0.15671585500240326,0.03060917742550373,0.12932634353637695
1768416547015088000,3.265088134765625,-0.17077454924583435,0.003608749946579337,0.12082024663686752
1768416547025089000,3.275089111328125,-0.1863955855369568,-0.021340807899832726,0.10538216680288315
1768416547035091200,3.28509130859375,-0.20662567019462585,-0.0384773425757885,0.08244204521179199
1768416547045093000,3.295093017578125,-0.23366156220436096,-0.058607641607522964,0.06361562758684158
1768416547055094000,3.305093994140625,-0.2679247260093689,-0.08830571919679642,0.05724165588617325
1768416547065096200,3.31509619140625,-0.3029354214668274,-0.14310957491397858,0.045716024935245514
1768416547075097000,3.32509716796875,-0.33573800325393677,-0.21465088427066803,0.03195417672395706
1768416547085099000,3.33509912109375,-0.3619941174983978,-0.28891420364379883,0.010845961049199104
1768416547095100200,3.34510009765625,-0.37880828976631165,-0.3596557676792145,-0.00933805014938116
1768416547105102000,3.35510205078125,-0.3857293128967285,-0.42579618096351624,-0.024629920721054077
1768416547115104300,3.365104248046875,-0.38813120126724243,-0.5018260478973389,-0.02943236380815506
1768416547125105200,3.375105224609375,-0.4003700017929077,-0.5774387717247009,-0.033679571002721786
1768416547135107000,3.385107177734375,-0.4089612066745758,-0.6574801802635193,-0.026277512311935425
1768416547145108000,3.39510791015625,-0.41567930579185486,-0.7322624921798706,0.0004102918319404125
1768416547155110100,3.405110107421875,-0.4176783561706543,-0.7842714786529541,0.04048413038253784
1768416547165111000,3.415111083984375,-0.41723307967185974,-0.818515419960022,0.07419628649950027
1768416547175113000,3.425113037109375,-0.4098513424396515,-0.8459256291389465,0.09849288314580917
1768416547185115100,3.435115234375,-0.39527639746665955,-0.8742268085479736,0.11045020818710327
1768416547195116000,3.445115966796875,-0.39559197425842285,-0.9156693816184998,0.12141942232847214
1768416547205118200,3.4551181640625,-0.35693830251693726,-0.8870419859886169,0.16337859630584717
1768416547215119000,3.465119140625,-0.2452741414308548,-0.8464237451553345,0.2888081669807434
1768416547225121000,3.47512109375,-0.11441385746002197,-0.8287185430526733,0.4988463521003723
1768416547235122000,3.485121826171875,0.019546184688806534,-0.6599879264831543,0.5337581038475037
1768416547245124000,3.4951240234375,0.31953316926956177,-0.3964625298976898,0.4962226450443268
1768416547255126000,3.5051259765625,0.5849716067314148,-0.21989282965660095,0.30169618129730225
1768416547265127200,3.515127197265625,0.5089367628097534,-0.0050404490903019905,-0.01510254479944706
1768416547275129300,3.52512939453125,0.3572165369987488,0.21159961819648743,-0.1667262613773346
1768416547285130200,3.535130126953125,0.2776857614517212,0.36554551124572754,-0.24851380288600922
1768416547295132400,3.54513232421875,0.19526493549346924,0.3649943172931671,-0.27017873525619507
1768416547305133300,3.55513330078125,0.09032706171274185,0.17696397006511688,-0.19611942768096924
1768416547315135200,3.56513525390625,-0.04842672497034073,-0.06460455060005188,-0.04056696966290474
1768416547325137400,3.575137451171875,-0.15152832865715027,-0.2910321056842804,0.23582413792610168
1768416547335138300,3.58513818359375,-0.24379733204841614,-0.41681206226348877,0.5449795722961426
1768416547345140200,3.59514013671875,-0.2868151068687439,-0.5267143249511719,0.7903017401695251
1768416547355141400,3.605141357421875,-0.30605265498161316,-0.5919411182403564,0.8525140881538391
1768416547365143300,3.615143310546875,-0.27746307849884033,-0.5600593686103821,0.7622462511062622
1768416547375144200,3.625144287109375,-0.1670105755329132,-0.4729204773902893,0.6834126114845276
1768416547385146400,3.635146484375,-0.08420836925506592,-0.3873051702976227,0.6037185788154602
1768416547395148300,3.645148193359375,-0.039593495428562164,-0.3558063507080078,0.4948141872882843
1768416547405149200,3.655149169921875,-0.06140851229429245,-0.4008747637271881,0.3548312485218048
1768416547415151400,3.6651513671875,-0.1227744072675705,-0.5324455499649048,0.20948053896427155
1768416547425152300,3.67515234375,-0.198944553732872,-0.6398612260818481,0.14232653379440308
1768416547435154400,3.685154541015625,-0.251140832901001,-0.7054951786994934,0.1557922214269638
1768416547445155300,3.6951552734375,-0.2864026725292206,-0.7190107107162476,0.19055712223052979
1768416547455157200,3.7051572265625,-0.27826783061027527,-0.6587066650390625,0.19451218843460083
1768416547465159400,3.715159423828125,-0.23448307812213898,-0.526340663433075,0.1731909215450287
1768416547475160300,3.725160400390625,-0.1807030737400055,-0.35577067732810974,0.12841832637786865
1768416547485162200,3.735162353515625,-0.16312408447265625,-0.2021113783121109,0.0789911225438118
1768416547495163400,3.745163330078125,-0.17686827480793,-0.07506950199604034,0.03935213387012482
1768416547505165300,3.755165283203125,-0.2022886723279953,0.02377399057149887,0.020941702648997307
1768416547515166200,3.765166259765625,-0.2428971230983734,0.07956690341234207,0.03217092528939247
1768416547525168400,3.77516845703125,-0.29419946670532227,0.051896125078201294,0.05970747768878937
1768416547535170300,3.78517041015625,-0.3367603123188019,-0.018169986084103584,0.08538031578063965
1768416547545171200,3.795171142578125,-0.35426124930381775,-0.08479135483503342,0.1271360218524933
1768416547555173400,3.80517333984375,-0.32175374031066895,-0.09571731090545654,0.192501500248909
1768416547565174300,3.81517431640625,-0.22634921967983246,-0.08010292798280716,0.23835287988185883
1768416547575176200,3.82517626953125,-0.11468443274497986,-0.014177380129694939,0.25627949833869934
1768416547585177300,3.83517724609375,-0.019801065325737,0.09233655035495758,0.2562353014945984
1768416547595179300,3.84517919921875,0.026180395856499672,0.24870552122592926,0.2697625458240509
1768416547605181200,3.85518115234375,0.04630590230226517,0.41868096590042114,0.2996131181716919
1768416547615182300,3.865182373046875,0.05755970999598503,0.5475478768348694,0.3280467391014099
1768416547625184300,3.875184326171875,0.0751725286245346,0.6743271350860596,0.3360564708709717
1768416547635185200,3.88518505859375,0.015003344975411892,0.7788428068161011,0.3103833794593811
1768416547645187300,3.895187255859375,-0.03864869847893715,0.8801867365837097,0.2826676070690155
1768416547655188200,3.905188232421875,-0.038964640349149704,1.027597188949585,0.24706417322158813
1768416547665190100,3.915190185546875,0.000803546397946775,1.1786186695098877,0.2030080258846283
1768416547675192300,3.9251923828125,0.029133187606930733,1.2886372804641724,0.12041781097650528
1768416547685193200,3.935193115234375,0.03735170140862465,1.3557488918304443,0.025832446292042732
1768416547695195400,3.9451953125,0.016812073066830635,1.3416451215744019,-0.03935641050338745
1768416547705196300,3.9551962890625,-0.0151144340634346,1.2716050148010254,-0.060022272169589996
1768416547715198200,3.9651982421875,0.017920466139912605,1.1578702926635742,-0.026961565017700195
1768416547725199000,3.97519921875,0.07973296195268631,0.9612787365913391,0.002109767869114876
1768416547735201300,3.985201171875,0.12741506099700928,0.8113216161727905,0.009603855200111866
1768416547745203200,3.995203125,0.18189215660095215,0.7518412470817566,-0.057034291326999664
1768416547755204400,4.005204345703125,0.219286248087883,0.7164296507835388,-0.34532299637794495
1768416547765206300,4.015206298828125,0.17559842765331268,0.6728715300559998,-0.8164950609207153
1768416547775207200,4.025207275390625,0.008847352117300034,0.7010295391082764,-1.1325221061706543
1768416547785209300,4.035209228515625,-0.252225786447525,0.7448707818984985,-1.1269116401672363
1768416547795210200,4.045210205078125,-0.562391996383667,0.8036789298057556,-0.8283159136772156
1768416547805212200,4.055212158203125,-0.8065383434295654,0.9130565524101257,-0.4651816189289093
1768416547815213600,4.065213623046875,-0.9043543338775635,1.132806420326233,-0.2101295292377472
1768416547825215200,4.07521533203125,-0.8941088914871216,1.357317566871643,-0.1230742484331131
1768416547835217200,4.085217041015625,-0.8284735679626465,1.4572421312332153,-0.21551872789859772
1768416547845218300,4.09521826171875,-0.7082613706588745,1.4125587940216064,-0.3880518972873688
1768416547855220200,4.10522021484375,-0.5616351962089539,1.3632701635360718,-0.5161481499671936
1768416547865221400,4.115221435546875,-0.41717275977134705,1.251329779624939,-0.5991793870925903
1768416547875223300,4.125223388671875,-0.312700480222702,1.0244228839874268,-0.6029530167579651
1768416547885224400,4.135224365234375,-0.2753429710865021,0.6580392718315125,-0.46072131395339966
1768416547895226400,4.145226318359375,-0.296674907207489,0.22902503609657288,-0.12105732411146164
1768416547905228300,4.155228271484375,-0.31803959608078003,-0.15237239003181458,0.3095872700214386
1768416547915229400,4.1652294921875,-0.29064592719078064,-0.3055705726146698,0.5899417996406555
1768416547925231000,4.175231201171875,-0.21492719650268555,-0.31273820996284485,0.7051029801368713
1768416547935232500,4.185232421875,-0.12879014015197754,-0.3934958279132843,0.6876129508018494
1768416547945234200,4.195234130859375,-0.029592448845505714,-0.31752410531044006,0.599407434463501
1768416547955235300,4.2052353515625,0.12311364710330963,-0.055128712207078934,0.4766729772090912
1768416547965237500,4.215237548828125,0.2560005784034729,0.14295800030231476,0.36485856771469116
1768416547975239200,4.2252392578125,0.30609598755836487,0.34665536880493164,0.2927747070789337
1768416547985240300,4.235240234375,0.23255415260791779,0.468459814786911,0.29484426975250244
1768416547995242200,4.2452421875,0.12139315903186798,0.4902874827384949,0.39541181921958923
1768416548005243400,4.255243408203125,0.07875142246484756,0.38938695192337036,0.5086200833320618
1768416548015245300,4.265245361328125,0.06877720355987549,0.3349006175994873,0.45496028661727905
1768416548025246500,4.27524658203125,0.14223091304302216,0.4131655991077423,0.35019126534461975
1768416548035248400,4.285248291015625,0.28746315836906433,0.5960378646850586,0.25541648268699646
1768416548045249300,4.295249267578125,0.40431201457977295,0.6585739850997925,0.22078047692775726
1768416548055251500,4.30525146484375,0.3863210380077362,0.6122715473175049,0.2432909905910492
1768416548065253400,4.31525341796875,0.25703468918800354,0.4954295754432678,0.3861629366874695
1768416548075254500,4.325254638671875,0.15278559923171997,0.38305220007896423,0.6118286848068237
1768416548085256400,4.33525634765625,0.11213404685258865,0.3344303071498871,0.7403455972671509
1768416548095257300,4.34525732421875,0.12045681476593018,0.3435751497745514,0.7009149789810181
1768416548105259500,4.355259521484375,0.1691702902317047,0.38769227266311646,0.6448003053665161
1768416548115260400,4.365260498046875,0.33692845702171326,0.5305014848709106,0.708199679851532
1768416548125262300,4.375262451171875,0.5960699915885925,0.5544531345367432,0.7757973670959473
1768416548135264500,4.385264404296875,0.8222200870513916,0.4547039568424225,0.8802111148834229
1768416548145265400,4.395265380859375,0.9556341171264648,0.20004983246326447,1.0522427558898926
1768416548155267300,4.405267333984375,0.9784128069877625,-0.05710601061582565,1.2844932079315186
1768416548165268500,4.4152685546875,0.9905679821968079,-0.2531631290912628,1.4815253019332886
1768416548175270400,4.4252705078125,1.0771020650863647,-0.3215162456035614,1.7194656133651733
1768416548185271300,4.435271240234375,1.1937648057937622,-0.29730919003486633,1.9317986965179443
1768416548195273500,4.4452734375,1.2981644868850708,-0.1915401965379715,2.038628101348877
1768416548205274400,4.4552744140625,1.384602665901184,-0.006350109353661537,2.171894073486328
1768416548215276300,4.4652763671875,1.4622374773025513,0.7172592282295227,2.4416720867156982
1768416548225278500,4.475278564453125,1.4627389907836914,2.7568864822387695,2.491363763809204
1768416548235279400,4.485279296875,1.502054214477539,2.023568868637085,3.1499223709106445
1768416548245281300,4.49528125,1.7259371280670166,-1.8309907913208008,5.816205978393555
1768416548255282400,4.505282470703125,1.4047800302505493,-4.419617176055908,7.632610321044922
1768416548265284400,4.515284423828125,1.0606580972671509,-3.806274890899658,6.735859394073486
1768416548275285200,4.52528515625,1.0944474935531616,-1.4414145946502686,3.482484817504883
1768416548285287200,4.535287109375,0.8420273065567017,1.3941196203231812,0.4243638813495636
1768416548295288300,4.545288330078125,0.35249489545822144,3.128948450088501,0.3356799781322479
1768416548305290200,4.555290283203125,0.3561367690563202,4.187098026275635,1.5986579656600952
1768416548315292200,4.565292236328125,0.636881947517395,4.401650428771973,3.246063470840454
1768416548325293300,4.575293212890625,0.80119788646698,3.7003297805786133,4.90473747253418
1768416548335295200,4.585295166015625,0.6839512586593628,2.6247870922088623,5.898306369781494
1768416548345296100,4.595296142578125,0.5939513444900513,1.9363996982574463,5.791739463806152
1768416548355298300,4.60529833984375,0.5055313110351562,1.6874881982803345,5.124081611633301
1768416548365299200,4.61529931640625,0.594314455986023,2.0683069229125977,4.551098346710205
1768416548375301000,4.625301025390625,0.8899418115615845,2.3534398078918457,4.194737911224365
1768416548385303300,4.63530322265625,1.4700202941894531,2.128842830657959,4.321653842926025
1768416548395304200,4.64530419921875,2.1358978748321533,1.8004096746444702,4.786594390869141
1768416548405306000,4.65530615234375,2.6584649085998535,1.6622004508972168,4.964818954467773
1768416548415307300,4.665307373046875,2.7687880992889404,1.9386017322540283,4.500012397766113
1768416548425309200,4.67530908203125,2.431821584701538,2.3996918201446533,3.5024986267089844
1768416548435310000,4.68531005859375,1.9409595727920532,2.6345109939575195,2.8131911754608154
1768416548445312300,4.695312255859375,1.7949975728988647,2.870811700820923,2.4972503185272217
1768416548455313200,4.705313232421875,1.7993260622024536,3.2930703163146973,2.1418137550354004
1768416548465315000,4.715315185546875,1.8330339193344116,4.242682933807373,1.83769953250885
1768416548475317200,4.725317138671875,1.8286614418029785,5.60036039352417,1.5867968797683716
1768416548485318100,4.735318115234375,1.776549220085144,7.094127655029297,1.5694669485092163
1768416548495320300,4.7453203125,1.7499741315841675,8.103495597839355,1.927193284034729
1768416548505321200,4.7553212890625,1.9117861986160278,7.887720108032227,2.31874680519104
1768416548515323100,4.7653232421875,2.2423202991485596,7.017055034637451,2.220759630203247
1768416548525324000,4.775323974609375,2.163029432296753,7.115905284881592,1.7916994094848633
1768416548535326200,4.785326171875,1.9034388065338135,7.4668049812316895,1.0750385522842407
1768416548545327000,4.7953271484375,1.735874056816101,6.908960819244385,0.1215156614780426
1768416548555329300,4.805329345703125,1.5917679071426392,5.337583065032959,-0.7873924374580383
1768416548565331200,4.815331298828125,1.3911809921264648,3.9074904918670654,-1.4421697854995728
1768416548575332000,4.82533203125,0.8394927978515625,2.6421027183532715,-1.6179759502410889
1768416548585334300,4.835334228515625,0.5021610856056213,1.2389129400253296,-0.5442085266113281
1768416548595335200,4.845335205078125,-0.46976813673973083,0.11100894212722778,2.2663164138793945
1768416548605337000,4.855337158203125,-2.299445867538452,0.3529198467731476,3.7597522735595703
1768416548615338000,4.865337890625,-2.4133458137512207,0.0973268523812294,2.9426236152648926
1768416548625340200,4.875340087890625,-0.8992987871170044,1.2129998207092285,1.015156865119934
1768416548635341000,4.885341064453125,0.43767595291137695,3.933267116546631,0.04233371466398239
1768416548645343200,4.89534326171875,1.302304744720459,5.1133904457092285,0.15040212869644165
1768416548655345200,4.90534521484375,1.8605351448059082,4.91831111907959,0.8922857642173767
1768416548665346000,4.915345947265625,1.8986366987228394,2.982389211654663,1.7279391288757324
1768416548675348200,4.92534814453125,1.4068655967712402,0.826839029788971,2.0551974773406982
1768416548685349000,4.93534912109375,1.053581953048706,0.6031984686851501,1.3938429355621338
1768416548695351000,4.94535107421875,0.8805012702941895,1.3252002000808716,-0.19393405318260193
1768416548705352200,4.955352294921875,0.6033639311790466,1.3547914028167725,-0.9549693465232849
1768416548715354000,4.96535400390625,-0.05232638865709305,0.7470487356185913,-0.7885809540748596
1768416548725355300,4.975355224609375,-0.6312938928604126,0.4251319169998169,-0.43051522970199585
1768416548735357200,4.985357177734375,-0.7452823519706726,0.14538604021072388,-0.40850192308425903
1768416548745359000,4.995359130859375,-0.6688706278800964,0.1902374029159546,-0.2672228217124939
1768416548755360000,5.005360107421875,-0.6251966953277588,0.4001341164112091,0.1389818638563156
1768416548765362200,5.015362060546875,-0.604860246181488,0.4158387780189514,0.49214500188827515
1768416548775363300,5.02536328125,-0.670703649520874,0.3076344430446625,0.5533505082130432
1768416548785365000,5.035364990234375,-0.6628265380859375,0.19678649306297302,0.4090287685394287
1768416548795366400,5.045366455078125,-0.623386561870575,0.20090332627296448,0.18409334123134613
1768416548805368000,5.0553681640625,-0.5454664826393127,0.26532334089279175,-0.12441869080066681
1768416548815369200,5.065369140625,-0.4508410692214966,0.2779366970062256,-0.3831620514392853
1768416548825371400,5.075371337890625,-0.3240290582180023,0.2441776543855667,-0.46953874826431274
1768416548835373000,5.085373046875,-0.2350313663482666,0.21253859996795654,-0.31114718317985535
1768416548845374200,5.095374267578125,-0.19358059763908386,0.15458235144615173,-0.04762687906622887
1768416548855376100,5.105376220703125,-0.16177880764007568,0.16372914612293243,0.0934988260269165
1768416548865377300,5.115377197265625,-0.09361147880554199,0.05376696586608887,0.09752659499645233
1768416548875379200,5.125379150390625,-0.0492381677031517,-0.1660609096288681,0.03414997458457947
1768416548885380400,5.13538037109375,-0.04192086681723595,-0.1587372124195099,-0.052880529314279556
1768416548895382300,5.14538232421875,0.013361376710236073,0.0008493571076542139,-0.18408462405204773
1768416548905383200,5.155383056640625,0.14212921261787415,0.2530011534690857,-0.17826002836227417
1768416548915385300,5.16538525390625,0.40298396348953247,0.6004476547241211,-0.045204728841781616
1768416548925387300,5.17538720703125,0.6346797347068787,0.8677811026573181,-0.07406754046678543
1768416548935388200,5.18538818359375,0.6934295892715454,0.827885627746582,-0.26283663511276245
1768416548945390300,5.195390380859375,0.600585401058197,0.5450155735015869,-0.3381196856498718
1768416548955391200,5.20539111328125,0.4776555299758911,0.2847979962825775,-0.3241656422615051
1768416548965393400,5.215393310546875,0.3345535099506378,0.11490405350923538,-0.3605037033557892
1768416548975394300,5.225394287109375,0.15885195136070251,0.0005055067595094442,-0.42068350315093994
1768416548985396200,5.235396240234375,-0.03652554005384445,-0.04836296662688255,-0.3732890784740448
1768416548995397000,5.245397216796875,-0.20508509874343872,-0.060045089572668076,-0.2774609923362732
1768416549005399300,5.2553994140625,-0.32782697677612305,-0.06103391945362091,-0.2439086139202118
1768416549015400200,5.265400146484375,-0.34900495409965515,-0.058151520788669586,-0.27426379919052124
1768416549025402400,5.27540234375,-0.32713615894317627,-0.02310165949165821,-0.32179296016693115
1768416549035404300,5.285404296875,-0.2786107361316681,-0.010537517257034779,-0.3705425560474396
1768416549045405200,5.2954052734375,-0.25313228368759155,0.07673533260822296,-0.40963509678840637
1768416549055407400,5.305407470703125,-0.21980975568294525,0.19778276979923248,-0.3950124979019165
1768416549065408300,5.315408203125,-0.19936759769916534,0.2830478549003601,-0.39318159222602844
1768416549075410200,5.32541015625,-0.15586206316947937,0.32165220379829407,-0.44061926007270813
1768416549085411300,5.335411376953125,-0.12100154906511307,0.2513178288936615,-0.46228620409965515
1768416549095413200,5.345413330078125,-0.08959886431694031,0.1584027111530304,-0.4015522599220276
1768416549105414100,5.3554140625,-0.09093417227268219,0.10877737402915955,-0.3011382818222046
1768416549115416300,5.365416259765625,-0.12899303436279297,0.1033521369099617,-0.2262839376926422
1768416549125418200,5.375418212890625,-0.18231111764907837,0.11242606490850449,-0.1756625771522522
1768416549135419100,5.385419189453125,-0.2260512411594391,0.141397625207901,-0.13769805431365967
1768416549145421300,5.39542138671875,-0.2577740252017975,0.16691149771213531,-0.12115795165300369
1768416549155422200,5.405422119140625,-0.2688243091106415,0.1765991598367691,-0.1225375086069107
1768416549165424000,5.415424072265625,-0.25548774003982544,0.1794215738773346,-0.09684626758098602
1768416549175425300,5.42542529296875,-0.2181735783815384,0.19580420851707458,-0.025210296735167503
1768416549185427200,5.43542724609375,-0.17355976998806,0.22727717459201813,0.04490034654736519
1768416549195428000,5.445427978515625,-0.12665070593357086,0.23259934782981873,0.07811015844345093
1768416549205430300,5.45543017578125,-0.0905693992972374,0.19542454183101654,0.07102987915277481
1768416549215432200,5.46543212890625,-0.06665988266468048,0.13332831859588623,0.03662930428981781
1768416549225433000,5.47543310546875,-0.04771255701780319,0.060800325125455856,-0.01866723969578743
1768416549235435300,5.485435302734375,-0.036348920315504074,-0.0034902640618383884,-0.06545598059892654
1768416549245436200,5.495436279296875,-0.019915886223316193,-0.06449263542890549,-0.08631465584039688
1768416549255438000,5.50543798828125,-0.009744782000780106,-0.11494147032499313,-0.0934162437915802
1768416549265439200,5.515439208984375,0.007423285394906998,-0.1728130280971527,-0.08603715151548386
1768416549275441700,5.525441650390625,0.02856236882507801,-0.21723070740699768,-0.04812701418995857
1768416549285442600,5.535442626953125,0.05346611887216568,-0.2643697261810303,0.013126756995916367
1768416549295444500,5.545444580078125,0.07475590705871582,-0.3038656711578369,0.0702563226222992
1768416549305445600,5.555445556640625,0.09306167811155319,-0.3331149220466614,0.12171684950590134
1768416549315447600,5.565447509765625,0.10122755914926529,-0.35839444398880005,0.1760203242301941
1768416549325449500,5.575449462890625,0.10736774653196335,-0.3813974857330322,0.21128644049167633
1768416549335450600,5.58545068359375,0.11253239214420319,-0.38718363642692566,0.2189752161502838
1768416549345452500,5.59545263671875,0.11437903344631195,-0.394071102142334,0.1941143423318863
1768416549355453400,5.605453369140625,0.1154673844575882,-0.41656044125556946,0.13530203700065613
1768416549365455600,5.61545556640625,0.10635431110858917,-0.4456557333469391,0.07727495580911636
1768416549375456500,5.62545654296875,0.09787862747907639,-0.4705254137516022,0.05043724551796913
1768416549385458400,5.63545849609375,0.09047024697065353,-0.4882063865661621,0.05054137483239174
1768416549395459600,5.64545947265625,0.09019280225038528,-0.5031021237373352,0.08503612875938416
1768416549405461500,5.65546142578125,0.08631337434053421,-0.5505969524383545,0.1370180994272232
1768416549415463700,5.665463623046875,0.07842610776424408,-0.6155825853347778,0.1904836893081665
1768416549425464600,5.675464599609375,0.07464388757944107,-0.6903673410415649,0.22812959551811218
1768416549435466500,5.685466552734375,0.06429759413003922,-0.7798095941543579,0.23082555830478668
1768416549445467400,5.69546728515625,0.055456437170505524,-0.8754367828369141,0.21249209344387054
1768416549455469600,5.705469482421875,0.046273183077573776,-0.9690359234809875,0.19583706557750702
1768416549465470500,5.715470458984375,0.048248182982206345,-1.0130823850631714,0.17364947497844696
1768416549475472600,5.72547265625,0.06209045648574829,-1.0090606212615967,0.1336682289838791
1768416549485473500,5.7354736328125,0.09510432928800583,-0.9891631007194519,0.08437471091747284
1768416549495475500,5.745475341796875,0.12693782150745392,-0.9673014879226685,0.04794787988066673
1768416549505476400,5.755476318359375,0.15021410584449768,-0.9469301700592041,0.0301760733127594
1768416549515478500,5.765478515625,0.16195087134838104,-0.9360098242759705,0.011756551451981068
1768416549525480400,5.77548046875,0.1679520308971405,-0.9354284405708313,-0.02502303570508957
1768416549535481600,5.785481689453125,0.17223083972930908,-0.9421311020851135,-0.07961049675941467
1768416549545483500,5.7954833984375,0.1709008663892746,-0.9332470893859863,-0.12239658087491989
1768416549555484400,5.805484375,0.16694530844688416,-0.9153928756713867,-0.14025165140628815
1768416549565486600,5.815486572265625,0.1620972901582718,-0.896696925163269,-0.14515560865402222
1768416549575487500,5.825487548828125,0.15469250082969666,-0.8841882944107056,-0.1416262686252594
1768416549585489400,5.835489501953125,0.13817662000656128,-0.8732086420059204,-0.1327424943447113
1768416549595490800,5.84549072265625,0.13049210608005524,-0.8579627275466919,-0.10726803541183472
1768416549605492500,5.855492431640625,0.13045242428779602,-0.8449116945266724,-0.07018085569143295
1768416549615494400,5.865494384765625,0.12014523148536682,-0.8408457040786743,-0.03665942698717117
1768416549625495600,5.87549560546875,0.1155368983745575,-0.8371771574020386,-0.025973225012421608
1768416549635497500,5.88549755859375,0.10015375167131424,-0.8396924138069153,-0.020059866830706596
1768416549645498600,5.89549853515625,0.07816030830144882,-0.8358966112136841,-0.013861624523997307
1768416549655500500,5.90550048828125,0.05926728993654251,-0.8175798654556274,-0.0040756152011454105
1768416549665501700,5.915501708984375,0.04910839721560478,-0.7756558656692505,0.006677963305264711
1768416549675503600,5.925503662109375,0.04444510489702225,-0.7301485538482666,0.027543801814317703
1768416549685504800,5.9355048828125,0.04175478219985962,-0.6886866092681885,0.0613425076007843
1768416549695506700,5.945506591796875,0.023089637979865074,-0.6604076623916626,0.10128746181726456
1768416549705507600,5.955507568359375,0.016714561730623245,-0.6456093192100525,0.12091602385044098
1768416549715509800,5.965509765625,-0.00047483970411121845,-0.6273000836372375,0.12061100453138351
1768416549725511400,5.975511474609375,-0.020425111055374146,-0.608130931854248,0.10297475755214691
1768416549735512600,5.9855126953125,-0.028167083859443665,-0.5661903619766235,0.0743710920214653
1768416549745514800,5.9955146484375,-0.028151903301477432,-0.5034422874450684,0.057664282619953156
1768416549755515600,6.005515625,-0.022429252043366432,-0.4289935827255249,0.06241048127412796
1768416549765517600,6.015517578125,-0.02018740214407444,-0.35704243183135986,0.08207260072231293
1768416549775518700,6.025518798828125,-0.013094702735543251,-0.2909555435180664,0.0949617326259613
1768416549785520600,6.035520751953125,-0.011377230286598206,-0.23300302028656006,0.09784433990716934
1768416549795521500,6.045521484375,-0.015954500064253807,-0.19111575186252594,0.09570419043302536
1768416549805523700,6.055523681640625,-0.020196115598082542,-0.15211056172847748,0.0919635146856308
1768416549815524600,6.065524658203125,-0.02448476105928421,-0.1120665892958641,0.08734886348247528
1768416549825526500,6.075526611328125,-0.02502325177192688,-0.07423745095729828,0.07819663733243942
1768416549835528700,6.08552880859375,-0.022985907271504402,-0.027995232492685318,0.07053148746490479
1768416549845529600,6.095529541015625,-0.016822021454572678,0.02981640212237835,0.059400271624326706
1768416549855531800,6.10553173828125,-0.006373431067913771,0.0914238914847374,0.054384440183639526
1768416549865532700,6.11553271484375,0.000373154878616333,0.14240238070487976,0.051782798022031784
1768416549875534600,6.12553466796875,0.0016561956144869328,0.17783936858177185,0.04616744443774223
1768416549885535500,6.135535400390625,-0.00017046660650521517,0.20631654560565948,0.041915975511074066
1768416549895537700,6.14553759765625,-0.00523954164236784,0.2269875705242157,0.033926982432603836
1768416549905538600,6.15553857421875,-0.008779682219028473,0.24978475272655487,0.03010055236518383
1768416549915540700,6.165540771484375,-0.015318134799599648,0.2747475802898407,0.03602064773440361
1768416549925541600,6.175541748046875,-0.019749367609620094,0.3042104244232178,0.05136951059103012
1768416549935543600,6.18554345703125,-0.021490849554538727,0.34075984358787537,0.057597849518060684
1768416549945545700,6.195545654296875,-0.02289167232811451,0.3723808825016022,0.047319911420345306
1768416549955546600,6.205546630859375,-0.024422431364655495,0.39485254883766174,0.02875284105539322
1768416549965548500,6.215548583984375,-0.028519704937934875,0.41452130675315857,0.022776175290346146
1768416549975549700,6.2255498046875,-0.03196851164102554,0.42904141545295715,0.03343050181865692
1768416549985551600,6.235551513671875,-0.03134746104478836,0.4445117115974426,0.04253105819225311
1768416549995552500,6.245552490234375,-0.030083386227488518,0.46144863963127136,0.04619133099913597
1768416550005554700,6.2555546875,-0.028398405760526657,0.475932776927948,0.04346931353211403
1768416550015555600,6.2655556640625,-0.026715032756328583,0.4878280758857727,0.03570069372653961
1768416550025557500,6.2755576171875,-0.025750434026122093,0.4936814308166504,0.028239581733942032
1768416550035558400,6.285558349609375,-0.02067769132554531,0.4949432909488678,0.019126389175653458
1768416550045560600,6.295560546875,-0.017160452902317047,0.4870392978191376,0.012182729318737984
1768416550055562500,6.3055625,-0.012752922251820564,0.48384028673171997,0.015620337799191475
1768416550065563600,6.315563720703125,-0.008448188193142414,0.4781917333602905,0.02113361284136772
1768416550075565600,6.325565673828125,-0.006599127314984798,0.4640868902206421,0.0292145237326622
1768416550085566500,6.33556640625,-0.0005532184150069952,0.44778168201446533,0.032480623573064804
1768416550095568600,6.345568603515625,0.0009908918291330338,0.42306339740753174,0.03548445180058479
1768416550105569500,6.355569580078125,0.0017805190291255713,0.3968733251094818,0.040791865438222885
1768416550115571500,6.365571533203125,-0.0012695826590061188,0.36547285318374634,0.04582168534398079
1768416550125572600,6.375572509765625,-0.004957261495292187,0.33509284257888794,0.05083375424146652
1768416550135574500,6.385574462890625,-0.005973831284791231,0.3097405731678009,0.055844493210315704
1768416550145575400,6.395575439453125,-0.004349302966147661,0.29006436467170715,0.061870694160461426
1768416550155577600,6.40557763671875,-0.006214270368218422,0.27575594186782837,0.07206033915281296
1768416550165578500,6.41557861328125,-0.00659456942230463,0.25170546770095825,0.07952678203582764
1768416550175580400,6.425580322265625,-0.008744361810386181,0.21905651688575745,0.0858914852142334
1768416550185582600,6.43558251953125,-0.010884744115173817,0.18796572089195251,0.09277282655239105
1768416550195583500,6.44558349609375,-0.01460957806557417,0.15031176805496216,0.10239320993423462
1768416550205585400,6.45558544921875,-0.00950163509696722,0.12053655833005905,0.10906602442264557
1768416550215586600,6.465586669921875,-0.009795929305255413,0.08507880568504333,0.1111815944314003
1768416550225588500,6.47558837890625,-0.0038272528909146786,0.05332167446613312,0.11164364963769913
1768416550235589600,6.485589599609375,-0.002060023369267583,0.02781076543033123,0.10511932522058487
1768416550245591600,6.495591552734375,0.006918824277818203,0.0044420622289180756,0.08882264047861099
1768416550255592700,6.5055927734375,0.012721053324639797,-0.01676761917769909,0.07286231964826584
1768416550265594400,6.515594482421875,0.016289688646793365,-0.041898004710674286,0.06271034479141235
1768416550275595000,6.525594970703125,0.016402339562773705,-0.06558629125356674,0.055796511471271515
1768416550285597200,6.53559716796875,0.01692431978881359,-0.0895499438047409,0.052966903895139694
1768416550295599000,6.54559912109375,0.018130887299776077,-0.11354092508554459,0.04456882178783417
1768416550305600000,6.55560009765625,0.01935088075697422,-0.1338701695203781,0.034077033400535583
1768416550315602200,6.565602294921875,0.02249210514128208,-0.15582910180091858,0.024228081107139587
1768416550325603000,6.57560302734375,0.022741110995411873,-0.16981948912143707,0.016508111730217934
1768416550335605000,6.58560498046875,0.026470279321074486,-0.18157009780406952,0.011963924393057823
1768416550345606100,6.595606201171875,0.03059072233736515,-0.19379453361034393,0.003183482214808464
1768416550355608000,6.605608154296875,0.033038605004549026,-0.20115871727466583,0.000677949283272028
1768416550365609000,6.61560888671875,0.03577553480863571,-0.20251986384391785,0.0024817083030939102
1768416550375611100,6.625611083984375,0.03895867243409157,-0.20079034566879272,0.005506639368832111
1768416550385612000,6.635612060546875,0.03970275819301605,-0.19919990003108978,0.004774004220962524
1768416550395614000,6.645614013671875,0.03957293555140495,-0.19718411564826965,0.0017979454714804888
1768416550405615000,6.655614990234375,0.04119453579187393,-0.188960000872612,-0.006246132776141167
1768416550415617000,6.665616943359375,0.04440823942422867,-0.17490586638450623,-0.012762544676661491
1768416550425619000,6.675618896484375,0.04513528198003769,-0.16013464331626892,-0.01739031821489334
1768416550435620000,6.6856201171875,0.0427713543176651,-0.14308346807956696,-0.021987412124872208
1768416550445622000,6.6956220703125,0.04362915828824043,-0.1208905503153801,-0.025880951434373856
1768416550455623000,6.705622802734375,0.03954319283366203,-0.10037420690059662,-0.028926560655236244
1768416550465625000,6.715625,0.03998687490820885,-0.08076721429824829,-0.02655448205769062
1768416550475626000,6.7256259765625,0.036919966340065,-0.06161019951105118,-0.025649581104516983
1768416550485628000,6.7356279296875,0.03357316553592682,-0.050282709300518036,-0.02423810586333275
1768416550495629000,6.745629150390625,0.030575387179851532,-0.035244420170784,-0.022730868309736252
1768416550505631000,6.755630859375,0.024453846737742424,-0.02221091277897358,-0.016572043299674988
1768416550515631900,6.7656318359375,0.018072830513119698,-0.013678508810698986,-0.013208725489675999
1768416550525634000,6.775634033203125,0.010916117578744888,-0.004064230713993311,-0.011184722185134888
1768416550535635000,6.785635009765625,0.0062164077535271645,0.005684212781488895,-0.009996501728892326
1768416550545636900,6.795636962890625,0.000351594528183341,0.014578104950487614,-0.008895550854504108
1768416550555639000,6.80563916015625,-0.0025484615471214056,0.027179701253771782,-0.009070409461855888
1768416550565640000,6.815639892578125,-0.004833187907934189,0.03820359334349632,-0.01166352815926075
1768416550575642000,6.82564208984375,-0.005782856605947018,0.048308055847883224,-0.013844083994626999
1768416550585643000,6.83564306640625,-0.004129299893975258,0.05712258443236351,-0.01277003064751625
1768416550595645000,6.84564501953125,-0.004203180782496929,0.06287964433431625,-0.008338868618011475
1768416550605645800,6.855645751953125,-0.005633830092847347,0.06377899646759033,-0.009172437712550163
1768416550615648000,6.86564794921875,-0.008356534875929356,0.06247606873512268,-0.017298469319939613
1768416550625649000,6.87564892578125,-0.008075038902461529,0.061005204916000366,-0.023156091570854187
1768416550635651000,6.885651123046875,-0.007360538933426142,0.05967560410499573,-0.02474914863705635
1768416550645652000,6.89565185546875,-0.005648925434798002,0.06022341549396515,-0.017127182334661484
1768416550655654000,6.90565380859375,-0.005372688639909029,0.05974318087100983,-0.01127973198890686
1768416550665654800,6.91565478515625,-0.005238997749984264,0.05706563964486122,-0.010743370279669762
1768416550675657000,6.925656982421875,-0.001952083082869649,0.05290982499718666,-0.015850253403186798
1768416550685659000,6.935658935546875,-0.0018479533027857542,0.0454455204308033,-0.01766040548682213
1768416550695660000,6.945659912109375,-0.001469222828745842,0.03638629987835884,-0.019368207082152367
1768416550705662000,6.955661865234375,0.0012533266562968493,0.025288110598921776,-0.01819295436143875
1768416550715662800,6.965662841796875,0.0041365474462509155,0.01461506076157093,-0.010541705414652824
1768416550725665000,6.9756650390625,0.0038654375821352005,0.00274082412943244,0.0017296087462455034
1768416550735666000,6.985666015625,0.0018909699283540249,-0.013535085134208202,0.014852602034807205
1768416550745667800,6.995667724609375,0.002789254067465663,-0.026390962302684784,0.016894180327653885
1768416550755669000,7.0056689453125,0.002723687095567584,-0.039020780473947525,0.013260658830404282
1768416550765671000,7.0156708984375,0.0048393020406365395,-0.05034933611750603,0.006908486597239971
1768416550775672000,7.025672119140625,0.0048037683591246605,-0.056143902242183685,0.000038128811866045
1768416550785674000,7.035674072265625,0.008127126842737198,-0.0613008476793766,-0.0038061439990997314
1768416550795675100,7.045675048828125,0.009731275029480457,-0.06545558571815491,-0.006928854621946812
1768416550805677000,7.055677001953125,0.008948571979999542,-0.06761807948350906,-0.008750456385314465
1768416550815679000,7.065678955078125,0.010571826249361038,-0.07148460298776627,-0.013554632663726807
1768416550825680100,7.07568017578125,0.013537522405385971,-0.07237835973501205,-0.015634829178452492
1768416550835681800,7.085681884765625,0.012501101940870285,-0.07289011776447296,-0.016210883855819702
1768416550845683200,7.09568310546875,0.012621210888028145,-0.07060646265745163,-0.012510952539741993
1768416550855685000,7.10568505859375,0.012433094903826714,-0.07109488546848297,-0.011321348138153553
1768416550865686000,7.11568603515625,0.01376600656658411,-0.06978461146354675,-0.0036716843023896217
1768416550875688200,7.125688232421875,0.014148533344268799,-0.07270263135433197,0.00023626768961548805
1768416550885689000,7.135689208984375,0.012334920465946198,-0.07125014811754227,0.006447025574743748
1768416550895691000,7.14569091796875,0.011155758053064346,-0.06633155047893524,0.009777693077921867
1768416550905692200,7.155692138671875,0.011858832091093063,-0.06373497098684311,0.012703974731266499
1768416550915694000,7.165694091796875,0.01148306019604206,-0.05658278614282608,0.011285575106739998
1768416550925695000,7.175695068359375,0.014087632298469543,-0.05362561345100403,0.010346544906497002
1768416550935697200,7.185697265625,0.013070378452539444,-0.048997823148965836,0.004932011477649212
1768416550945698000,7.195697998046875,0.011228003539144993,-0.04504569247364998,0.002712799236178398
1768416550955700000,7.205699951171875,0.012844553217291832,-0.040118854492902756,0.0016770083457231522
1768416550965702100,7.2157021484375,0.012895419262349606,-0.03390916436910629,0.0005094786174595356
1768416550975703000,7.225703125,0.013700772076845169,-0.0289708711206913,0.001724856672808528
1768416550985705000,7.235705078125,0.010622956790030003,-0.02505948580801487,0.00341409957036376
1768416550995706000,7.2457060546875,0.010508650913834572,-0.021288564428687096,0.0014644984621554613
1768416551005708000,7.2557080078125,0.007793557830154896,-0.018581725656986237,-0.003055418375879526
1768416551015709000,7.265708984375,0.00804089568555355,-0.0146604273468256,-0.006186441984027624
1768416551025711000,7.275711181640625,0.00617481954395771,-0.011268625035881996,-0.007642924319952726
1768416551035712000,7.2857119140625,0.007841791026294231,-0.009035666473209858,-0.008621742948889732
1768416551045714000,7.2957138671875,0.007629537023603916,-0.007807416841387749,-0.006706929765641689
1768416551055715000,7.305715087890625,0.00768378097563982,-0.007125916890799999,-0.005863626021891832
1768416551065717000,7.315717041015625,0.006020370405167341,-0.005044922698289156,-0.001399635337293148
1768416551075718000,7.3257177734375,0.006214612163603306,-0.005571167916059494,0.000016130972653627396
1768416551085720000,7.335719970703125,0.005244688596576452,-0.0039008334279060364,-0.0010685743764042854
1768416551095721000,7.345720947265625,0.004578982945531607,-0.002572180237621069,-0.00302827637642622
1768416551105723000,7.355722900390625,0.007010715082287788,-0.00158175069373101,-0.005852292757481337
1768416551115724000,7.36572412109375,0.004685342311859131,-0.003264704020693898,-0.005389275029301643
1768416551125726000,7.375725830078125,0.0035212745424360037,-0.005931593477725983,-0.004538395442068577
1768416551135727900,7.385727783203125,0.00546308234333992,-0.008554013445973396,-0.006604446098208427
1768416551145729000,7.39572900390625,0.005083049181848764,-0.0076032644137740135,-0.006511235609650612
1768416551155731000,7.40573095703125,0.00605626730248332,-0.007149297744035721,-0.006755287293344736
1768416551165731800,7.41573193359375,0.006215524394065142,-0.004693330265581608,-0.007139049004763365
1768416551175734000,7.425734130859375,0.007010800298303366,-0.0036206641234457493,-0.009027460590004921
1768416551185735000,7.43573486328125,0.004292511381208897,-0.004673677962273359,-0.008206408470869064
1768416551195736800,7.44573681640625,0.003303048200905323,-0.007021685130894184,-0.0065631321631371975
1768416551205738000,7.455738037109375,0.0026532369665801525,-0.013046021573245525,-0.0025076703168451786
1768416551215740000,7.465739990234375,0.0034309232141822577,-0.01253207866102457,0.0018943934701383114
1768416551225740800,7.47574072265625,0.004045314155519009,-0.015906836837530136,0.0031982772052288055
1768416551235743000,7.485742919921875,0.0028917016461491585,-0.014795028604567051,0.0035428362898528576
1768416551245743900,7.495743896484375,0.00318731227889657,-0.014446686953306198,0.007201220840215683
1768416551255745800,7.505745849609375,0.003915224224328995,-0.0130540132522583,0.011744117364287376
1768416551265747000,7.515746826171875,0.0038071000017225742,-0.013193562626838684,0.008651655167341232
1768416551275748900,7.525748779296875,0.0017278576269745827,-0.01735054887831211,0.0003027087077498436
1768416551285750800,7.535750732421875,0.0039683748036623,-0.01729249209165573,-0.01000505592674017
1768416551295752000,7.545751953125,0.004543758928775787,-0.015408722683787346,-0.011876439675688744
1768416551305753900,7.55575390625,0.005076391622424126,-0.014614569023251534,-0.006018283776938915
1768416551315755000,7.565755126953125,0.004242639988660812,-0.00953645072877407,0.0013156470376998186
1768416551325756700,7.575756591796875,0.00241491268388927,-0.009340442717075348,-0.00012645451352000237
1768416551335758000,7.585758056640625,0.0000010364456102252007,-0.011374038644134998,-0.004693333059549332
1768416551345759700,7.595759765625,0.0015999983297660947,-0.015908336266875267,-0.006859548389911652
1768416551355761000,7.605760986328125,0.0014320804039016366,-0.020211784169077873,-0.011651929467916489
1768416551365763000,7.61576318359375,0.005125352181494236,-0.025233173742890358,-0.013559285551309586
1768416551375764000,7.625763916015625,0.009164834395051003,-0.021785179153084755,-0.010430604219436646
1768416551385766000,7.635765869140625,0.006456133909523487,-0.02054494619369507,-0.008889964781701565
1768416551395767000,7.64576708984375,0.008254116401076317,-0.01807955652475357,-0.010495064780116081
1768416551405769000,7.65576904296875,0.0072767361998558044,-0.016887793317437172,-0.016828861087560654
1768416551415769900,7.665769775390625,0.009965647011995316,-0.014446040615439415,-0.027233285829424858
1768416551425772000,7.67577197265625,0.008318215608596802,-0.01110190898180008,-0.03822015970945358
1768416551435773000,7.68577294921875,0.012331177480518818,-0.007871239446103573,-0.041862890124320984
1768416551445774800,7.69577490234375,0.013925611972808838,-0.0023880568332970142,-0.04437797889113426
1768416551455777000,7.705777099609375,0.01573636569082737,0.002087225904688239,-0.037874460220336914
1768416551465778000,7.71577783203125,0.017376340925693512,0.004291257821023464,-0.032527901232242584
1768416551475779800,7.72577978515625,0.014611180871725082,0.0021031061187386513,-0.026232320815324783
1768416551485781000,7.735781005859375,0.008112801238894463,-0.001328110694885254,-0.021778184920549393
1768416551495783000,7.745782958984375,0.005776691250503063,-0.0011228853836655617,-0.014876294881105423
1768416551505783800,7.75578369140625,0.0018288212595507503,-0.002516251290217042,-0.010977961122989655
1768416551515786000,7.765785888671875,0.001338027766905725,-0.002070816233754158,-0.009064260870218277
1768416551525787000,7.775786865234375,-0.0006622725632041693,-0.0020780067425221205,-0.00883709266781807
1768416551535788800,7.785788818359375,0.0007634150679223239,-0.0012987693771719933,-0.007964879274368286
1768416551545790000,7.7957900390625,0.0011021691607311368,0.0021814496722072363,-0.008086318150162697
1768416551555792000,7.8057919921875,0.0016108198324218392,0.003468561451882124,-0.003907196223735809
1768416551565792800,7.815792724609375,0.0042718504555523396,0.004857932683080435,0.00018688105046749115
1768416551575795000,7.825794921875,0.001777182100340724,0.0071350326761603355,0.004273782949894667
1768416551585795800,7.8357958984375,0.003229403868317604,0.009214961901307106,0.0056695458479225636
1768416551595797800,7.8457978515625,0.0017220689915120602,0.010035642422735691,0.004886351991444826
1768416551605799000,7.855798828125,0.001620336202904582,0.010405556298792362,0.0036919242702424526
1768416551615800800,7.86580078125,0.0018788455054163933,0.009362559765577316,0.005053079687058926
1768416551625802800,7.875802734375,0.0016261115670204163,0.008900501765310764,0.006499442271888256
1768416551635804000,7.885803955078125,0.00019543292000889778,0.008197370916604996,0.00820857472717762
1768416551645805800,7.895805908203125,0.001362163806334138,0.0055541833862662315,0.010604888200759888
1768416551655806700,7.905806640625,0.0020443680696189404,0.0057691046968102455,0.009636534377932549
1768416551665809000,7.915808837890625,0.0013380976160988212,0.0033669332042336464,0.0066210366785526276
1768416551675809800,7.925809814453125,0.002427570056170225,0.006211301311850548,0.005156611558049917
1768416551685811700,7.935811767578125,0.0015364763094112277,0.007914392277598381,0.004750213120132685
1768416551695812900,7.945812744140625,0.0008139177225530148,0.007767966017127037,0.0037924160715192556
1768416551705814800,7.955814697265625,0.0006946080829948187,0.003805715125054121,0.00329973129555583
1768416551715815700,7.965815673828125,0.004158792085945606,0.0015836278907954693,0.0008530498016625643
1768416551725817900,7.97581787109375,0.004192613996565342,-0.0006891137454658747,0.0025721201673150063
1768416551735818800,7.98581884765625,0.004517098888754845,-0.0005837613716721535,0.0032827218528836966
1768416551745820700,7.995820556640625,0.0016456785378977656,-0.003768369322642684,0.004948795307427645
1768416551755821800,8.00582177734375,0.0009632507571950555,-0.004515705164521933,0.007128480821847916
1768416551765823700,8.01582373046875,-0.0014786017127335072,-0.009034557268023491,0.0061103543266654015
1768416551775825000,8.025824951171876,-0.0010980083607137203,-0.009065293706953526,0.006522829644382
1768416551785826800,8.035826904296876,-0.0011374230962246656,-0.010975578799843788,0.004706820007413626
1768416551795828000,8.045827880859376,-0.0014869978185743093,-0.011783950962126255,0.002673656912520528
1768416551805830000,8.055829833984374,-0.0005764630623161793,-0.011639075353741646,0.00034259213134646416
1768416551815831800,8.065831787109374,-0.0015195866581052542,-0.009488469921052456,-0.0010693096555769444
1768416551825833000,8.0758330078125,-0.00040558644104748964,-0.006924910936504602,-0.002047488931566477
1768416551835835000,8.0858349609375,0.0014885097043588758,-0.0024987913202494383,-0.0009108167141675949
1768416551845836000,8.0958359375,0.00235243933275342,-0.00029502552933990955,-0.001453302800655365
1768416551855837700,8.105837646484375,0.0014266264624893665,-0.002188529819250107,0.0010532361920922995
1768416551865838800,8.1158388671875,0.002062589395791292,-0.003147267736494541,0.0012351300101727247
1768416551875841000,8.125841064453125,0.002344141248613596,-0.0037084503564983606,0.004216574132442474
1768416551885842000,8.135842041015625,0.002972647314891219,-0.004295144695788622,0.00542405154556036
1768416551895844000,8.145843994140625,0.0028858985751867294,-0.003122714115306735,0.007236409932374954
1768416551905845000,8.155844970703125,0.0012326082214713097,-0.0039304508827626705,0.008941099047660828
1768416551915847000,8.165846923828125,0.0007119459914974868,-0.0022903711069375277,0.012137383222579956
1768416551925847800,8.175847900390625,0.0017886620480567217,0.0025453967973589897,0.01817476935684681
1768416551935850000,8.18585009765625,-0.0012928396463394165,0.0012136008590459824,0.01941659487783909
1768416551945851000,8.195850830078125,0.00014633266255259514,0.0021971063688397408,0.014535551890730858
1768416551955853000,8.20585302734375,-0.0005360243376344442,0.004405620973557234,0.008280150592327118
1768416551965854000,8.21585400390625,-0.0007091299630701542,0.003960606176406145,0.006049486808478832
1768416551975855900,8.22585595703125,0.0013038265751674771,0.007870173081755638,0.0075446078553795815
1768416551985856800,8.235856689453126,0.00013842724729329348,0.011990616098046303,0.008419189602136612
1768416551995859000,8.24585888671875,-0.0029748359229415655,0.013199903070926666,0.002641643863171339
1768416552005859800,8.25585986328125,-0.00231064367108047,0.010080009698867798,-0.0018239445053040981
1768416552015862000,8.265862060546874,-0.0028900771867483854,0.005132927559316158,-0.005046426318585873
1768416552025864000,8.275864013671875,-0.002049050759524107,0.0011387183330953121,-0.005435247905552387
1768416552035864800,8.28586474609375,0.0006451989756897092,-0.00000947713851928711,-0.0021753492765128613
1768416552045867000,8.295866943359375,0.0008318866020999849,0.000353511655703187,0.004060175735503435
1768416552055868000,8.305867919921875,0.0014668820658698678,0.0006746856961399317,0.011688563041388988
1768416552065869800,8.315869873046875,0.001770748756825924,0.0022981485817581415,0.016097160056233406
1768416552075871000,8.32587109375,0.0015303496038541198,0.0030371774919331074,0.014305771328508854
1768416552085873000,8.335872802734375,0.0007548371213488281,0.0022230492904782295,0.003793475218117237
1768416552095873800,8.345873779296875,-0.0007049390114843845,0.001711992546916008,-0.008095970377326012
1768416552105876000,8.3558759765625,-0.000049268826842308044,-0.0017296107253059745,-0.017634615302085876
1768416552115876900,8.365876953125,0.002147992607206106,0.0021566820796579123,-0.016509363427758217
1768416552125878800,8.375878662109375,0.002067032502964139,0.0020597430411726236,-0.01490640826523304
1768416552135879700,8.385879638671875,0.0012709995498880744,0.0018673015292733908,-0.016909413039684296
1768416552145881900,8.3958818359375,-0.0019660727120935917,-0.0011268903035670519,-0.021376067772507668
1768416552155882800,8.4058828125,-0.00010260287672281265,0.0005079698748886585,-0.023984331637620926
1768416552165885000,8.415885009765624,-0.0012259241193532944,0.0008355388417840004,-0.023275133222341537
1768416552175885800,8.4258857421875,-0.001258989330381155,0.0020269860979169607,-0.019073722884058952
1768416552185887700,8.4358876953125,0.0005423726979643106,0.0006197716575115919,-0.013288537040352821
1768416552195888600,8.445888671875,0.0001828041858971119,-0.0022322579752653837,-0.008522538468241692
1768416552205890800,8.455890869140624,-0.0014097662642598152,-0.0016879078466445208,-0.006095599383115768
1768416552215891700,8.4658916015625,-0.0007924737874418497,-0.003240853315219283,-0.0027416981756687164
1768416552225894000,8.475893798828125,-0.0009013970848172903,-0.0013587973080575466,0.0018666356336325407
1768416552235895800,8.485895751953125,-0.0014126957394182682,-0.000005056383088231087,0.008901725523173809
1768416552245896700,8.495896728515625,-0.0019056468736380339,-0.001501486636698246,0.011049298569560051
1768416552255899000,8.50589892578125,-0.002019966719672084,0.0004165156278759241,0.014322115108370781
1768416552265899800,8.515899658203125,-0.0033912283834069967,0.003605384612455964,0.015191370621323586
1768416552275902500,8.52590234375,-0.001604331424459815,0.005463370122015476,0.013236356899142265
1768416552285903400,8.5359033203125,-0.002317792270332575,0.007495361380279064,0.012518368661403656
1768416552295905300,8.5459052734375,-0.00018353492487221956,0.008364351466298103,0.008674362674355507
1768416552305906400,8.555906494140626,-0.001978505402803421,0.011481847614049911,0.009862132370471954
1768416552315908400,8.565908447265626,-0.0010963121894747019,0.01192057877779007,0.013834965415298939
1768416552325909500,8.575909423828126,-0.0006196063477545977,0.011919247917830944,0.013486091047525406
1768416552335911400,8.585911376953124,-0.0012470611836761236,0.012407610192894936,0.011712517589330673
1768416552345912600,8.59591259765625,-0.0012627739924937487,0.016200484707951546,0.010935407131910324
1768416552355914200,8.605914306640624,-0.0022238099481910467,0.014259901829063892,0.014603139832615852
1768416552365915600,8.61591552734375,-0.001772137824445963,0.01237864512950182,0.01640503481030464
1768416552375917300,8.625917236328124,-0.0030896742828190327,0.012065449729561806,0.02387898787856102
1768416552385918500,8.63591845703125,-0.004624986555427313,0.014648983255028725,0.03141307085752487
1768416552395920600,8.645920654296875,-0.004881182685494423,0.018636267632246017,0.03339206427335739
1768416552405921500,8.655921630859375,-0.003209516406059265,0.02616955153644085,0.03634604066610336
1768416552415923500,8.66592333984375,-0.0018001578282564878,0.033165838569402695,0.03299795836210251
1768416552425924600,8.675924560546875,-0.0004264992894604802,0.03769001364707947,0.03018033318221569
1768416552435926500,8.685926513671875,0.0019358376739546657,0.04432527348399162,0.026265157386660576
1768416552445927400,8.695927490234375,0.0018314417684450746,0.045599594712257385,0.025659820064902306
1768416552455929600,8.7059296875,-0.00016350462101399899,0.044296566396951675,0.02679894119501114
1768416552465930500,8.715930419921875,-0.0030048310291022062,0.042713314294815063,0.029117222875356674
1768416552475932400,8.725932373046875,-0.003998273983597755,0.039164185523986816,0.029869444668293
1768416552485934600,8.7359345703125,-0.0035322208423167467,0.03851757198572159,0.028034260496497154
1768416552495935500,8.745935546875,-0.004397286567837,0.034868232905864716,0.02352851629257202
1768416552505937400,8.7559375,-0.004566929768770933,0.03409218788146973,0.02243448793888092
1768416552515938600,8.7659384765625,-0.004385512322187424,0.03349106013774872,0.02384679764509201
1768416552525940500,8.7759404296875,-0.004852631129324436,0.034794144332408905,0.027198385447263718
1768416552535941400,8.78594140625,-0.004828984849154949,0.03581339120864868,0.028366146609187126
1768416552545943600,8.795943603515624,-0.004859345033764839,0.03387008234858513,0.02965538389980793
1768416552555944400,8.8059443359375,-0.005140168592333794,0.03380478173494339,0.026694104075431824
1768416552565946400,8.8159462890625,-0.0059391167014837265,0.0332641564309597,0.027415286749601364
1768416552575947500,8.825947509765625,-0.0041215792298316956,0.030669601634144783,0.025125689804553986
1768416552585949400,8.835949462890625,-0.0040842946618795395,0.029279431328177452,0.02123560942709446
1768416552595950300,8.845950439453125,-0.0023860810324549675,0.026208970695734024,0.020700061693787575
1768416552605952500,8.855952392578125,-0.0025376148987561464,0.025549039244651794,0.022093428298830986
1768416552615953400,8.865953369140625,-0.0033171074464917183,0.024850856512784958,0.017778882756829262
1768416552625955300,8.875955322265625,-0.0041285729967057705,0.0195746012032032,0.007790430448949337
1768416552635956500,8.88595654296875,-0.0021457101684063673,0.01587078720331192,-0.0009953160770237446
1768416552645958400,8.89595849609375,-0.0026112308260053396,0.011378567665815353,-0.003264861647039652
1768416552655959300,8.905959228515625,-0.0005294234724715352,0.011202693916857243,-0.0011806301772594452
1768416552665961500,8.91596142578125,0.00010094675235450268,0.009286017157137394,-0.0036421893164515495
1768416552675962400,8.92596240234375,-0.001141291344538331,0.004570778459310532,-0.006983679253607988
1768416552685964300,8.93596435546875,-0.00028854701668024063,-0.0029686305206269026,-0.009905965998768806
1768416552695965400,8.94596533203125,-0.0020892927423119545,-0.01098873931914568,-0.01197219267487526
1768416552705967400,8.95596728515625,-0.0005356045439839363,-0.022313298657536507,-0.015366392210125923
1768416552715968300,8.96596826171875,0.002546625677496195,-0.02909572795033455,-0.015197884291410446
1768416552725970400,8.975970458984374,0.0055988747626543045,-0.03184890374541283,-0.007807612419128418
1768416552735971300,8.985971435546874,0.007085604593157768,-0.03194839879870415,0.00009737908840179443
1768416552745973200,8.99597314453125,0.009187105111777782,-0.028940360993146896,0.001562916673719883
1768416552755974700,9.005974609375,0.009724054485559464,-0.02583969384431839,0.0006992882117629051
1768416552765976300,9.015976318359375,0.011672157794237137,-0.02181858941912651,-0.007979687303304672
1768416552775978500,9.025978515625,0.00991517212241888,-0.021898644044995308,-0.01480153575539589
1768416552785979400,9.0359794921875,0.009777487255632877,-0.024227578192949295,-0.01722048409283161
1768416552795981300,9.045981201171875,0.009629976935684681,-0.022201819345355034,-0.01793346367776394
1768416552805982500,9.055982421875,0.008827299810945988,-0.023241251707077026,-0.018938273191452026
1768416552815984400,9.065984375,0.007475968915969133,-0.021917711943387985,-0.019404852762818336
1768416552825985500,9.075985595703125,0.006099647376686335,-0.02441549301147461,-0.016259126365184784
1768416552835987500,9.085987548828125,0.004022451117634773,-0.024237321689724922,-0.01878758706152439
1768416552845988600,9.095988525390625,0.005102896131575108,-0.025573164224624634,-0.021452344954013824
1768416552855990500,9.105990478515626,0.002344239503145218,-0.025914955884218216,-0.028036141768097878
1768416552865991400,9.115991455078126,0.0009040019940584898,-0.026522155851125717,-0.033978987485170364
1768416552875993600,9.12599365234375,0.0005526188760995865,-0.026291152462363243,-0.03429943323135376
1768416552885994500,9.135994384765626,-0.0021017538383603096,-0.02254408411681652,-0.024477696046233177
1768416552895996700,9.14599658203125,-0.001509957481175661,-0.019898448139429092,-0.017797697335481644
1768416552905997600,9.15599755859375,-0.004963012412190437,-0.015054691582918167,-0.01019090972840786
1768416552915999500,9.16599951171875,-0.004043156281113625,-0.012060766108334064,-0.005433172453194857
1768416552926000400,9.17600048828125,-0.005583795253187418,-0.010685509070754051,-0.0028642877005040646
1768416552936002600,9.18600244140625,-0.004636647645384073,-0.007486630696803331,-0.0038613975048065186
1768416552946003500,9.19600341796875,-0.0009484358597546816,-0.005145711824297905,-0.003381229005753994
1768416552956005600,9.206005615234375,-0.0006236426997929811,-0.0014781658537685871,-0.002906190697103739
1768416552966006500,9.216006591796875,0.0007281777216121554,0.0006686083506792784,-0.0029107178561389446
1768416552976008400,9.226008544921875,0.0020792833529412746,0.0027490705251693726,-0.0032807779498398304
1768416552986009300,9.23600927734375,0.0016118984203785658,0.004973608534783125,-0.004080258775502443
1768416552996011500,9.246011474609375,0.0035248047206550837,0.007708091288805008,-0.0028690462931990623
1768416553006012400,9.256012451171875,0.0036382554098963737,0.00871290173381567,-0.0049644215032458305
1768416553016014300,9.266014404296875,0.00524691678583622,0.011111768893897533,-0.006977701094001532
1768416553026015500,9.276015380859375,0.005018151365220547,0.008514122106134892,-0.006299926433712244
1768416553036017400,9.286017333984375,0.0043244268745183945,0.008601631969213486,-0.008184429258108139
1768416553046018300,9.296018310546875,0.004883957095444202,0.005926486570388079,-0.008043015375733376
1768416553056020500,9.3060205078125,0.004863015376031399,0.004353682976216078,-0.007585455197840929
1768416553066021400,9.316021484375,0.003942093811929226,0.005128928925842047,-0.006952954921871424
1768416553076023300,9.326023193359376,0.0034427933860570192,0.004392349626868963,-0.004442133475095034
1768416553086024400,9.3360244140625,0.003945598378777504,0.0020540948025882244,-0.0036474461667239666
1768416553096026400,9.3460263671875,0.007079480215907097,0.003612523665651679,-0.0012866659089922905
1768416553106027300,9.35602734375,0.005913015455007553,0.0012375165242701769,-0.0011521759442985058
1768416553116029400,9.366029541015624,0.0023298165760934353,0.0008016605861485004,0.0004161451943218708
1768416553126030300,9.3760302734375,0.0039407629519701,0.003032856620848179,-0.00008266465738415718
1768416553136032300,9.3860322265625,0.0022527812980115414,0.002584806876257062,-0.00023933593183755875
1768416553146033400,9.396033447265625,0.0034314964432269335,0.0023419263307005167,-0.0013253730721771717
1768416553156035300,9.406035400390625,0.004927211441099644,0.002231139689683914,-0.0016104783862829208
1768416553166037500,9.41603759765625,0.002164714504033327,0.0008111423812806606,-0.002589988987892866
1768416553176038400,9.426038330078125,0.0029031813610345125,-0.0007870756089687347,-0.004675328265875578
1768416553186040300,9.436040283203125,0.0032901386730372906,0.00035062688402831554,-0.005338189657777548
1768416553196041500,9.44604150390625,0.0034162462688982487,-0.000164747703820467,-0.005325518548488617
1768416553206043400,9.45604345703125,0.004209602251648903,-0.0035416358150541782,-0.005324453115463257
1768416553216044500,9.46604443359375,0.0029587578028440475,-0.0046406700275838375,-0.0040136524476110935
1768416553226046500,9.47604638671875,0.003722552442923188,-0.0064665330573916435,-0.0008311746641993523
1768416553236047600,9.486047607421876,0.0024463231675326824,-0.008275937288999557,0.0044227163307368755
1768416553246049300,9.49604931640625,0.0018508402863517404,-0.008282595314085484,0.005754297133535147
1768416553256050400,9.506050537109376,0.0024430849589407444,-0.011359397321939468,0.00714900204911828
1768416553266052600,9.516052490234374,0.0032548164017498493,-0.011550611816346645,0.004772929474711418
1768416553276053800,9.5260537109375,0.0029309620149433613,-0.01098565012216568,0.003651696490123868
1768416553286055700,9.5360556640625,0.0007943080272525549,-0.008895334787666798,0.008379872888326645
1768416553296056800,9.546056884765624,0.0013951308792456985,-0.008076252415776253,0.007479766383767128
1768416553306058800,9.556058837890625,0.0009288113797083497,-0.010730358771979809,0.0006969617679715157
1768416553316059600,9.5660595703125,0.000333470175974071,-0.009548929519951344,-0.0053473287262022495
1768416553326061800,9.576061767578125,0.0020224470645189285,-0.010447213426232338,-0.011271530762314796
1768416553336062700,9.586062744140625,0.0032921431120485067,-0.008386990986764431,-0.010477935895323753
1768416553346065000,9.59606494140625,0.002712106565013528,-0.005450855940580368,-0.0061518969014286995
1768416553356065800,9.606065673828125,0.0014541830169036984,-0.00456551369279623,-0.0056148068979382515
1768416553366067700,9.616067626953125,0.0029098668601363897,-0.000013638753443956375,-0.007076083682477474
1768416553376068600,9.626068603515625,0.0016748749185353518,0.0014177074190229177,-0.012860987335443497
1768416553386070800,9.63607080078125,0.0031689084134995937,-0.0032414929009974003,-0.020052054896950722
1768416553396071700,9.64607177734375,0.006140533834695816,-0.0055853985249996185,-0.023098235949873924
1768416553406073900,9.656073974609376,0.008263072930276394,-0.005189386662095785,-0.018450221046805382
1768416553416074800,9.66607470703125,0.008989052847027779,-0.00215221312828362,-0.011491515673696995
1768416553426076700,9.67607666015625,0.010821840725839138,0.0005282585043460131,-0.0012950710952281952
1768416553436077600,9.68607763671875,0.010510627180337906,0.0003341685514897108,0.001518763368949294
1768416553446079700,9.696079833984374,0.009342564269900322,0.0015874519012868404,-0.0014360137283802032
1768416553456080600,9.70608056640625,0.008088678121566772,0.002949551912024617,-0.007946720346808434
1768416553466082800,9.716082763671874,0.009786443784832954,0.003821204649284482,-0.011169412173330784
1768416553476083700,9.726083740234374,0.020672466605901718,0.012730012647807598,-0.014421544969081879
1768416553486085600,9.736085693359374,0.018111303448677063,0.012422950007021427,-0.015174420550465584
1768416553496086500,9.74608642578125,0.014854803681373596,0.009512540884315968,-0.01619010791182518
1768416553506088700,9.756088623046875,0.012617215514183044,0.007795867510139942,-0.01605881378054619
1768416553516089600,9.766089599609375,0.007990127429366112,0.005153690464794636,-0.016305360943078995
1768416553526091800,9.776091796875,0.00561991473659873,0.001961891772225499,-0.012709295377135277
1768416553536092700,9.7860927734375,0.00302114593796432,-0.00001225573942065239,-0.01136603020131588
1768416553546094600,9.796094482421875,0.003490661270916462,-0.0008202588651329279,-0.008746812120079994
1768416553556095500,9.806095458984375,0.001065726624801755,-0.0010346963535994291,-0.004299977328628302
1768416553566097700,9.81609765625,0.002010882366448641,-0.0022285913582891226,-0.0038174125365912914
1768416553576098600,9.8260986328125,0.001646155840717256,-0.00581794697791338,-0.0005882182158529758
1768416553586100700,9.836100830078125,0.0019327119225636125,-0.0058320616371929646,-0.0022164746187627316
1768416553596102000,9.846101806640625,-0.0008247676305472851,-0.0055013494566082954,0.0013913174625486135
1768416553606103600,9.856103515625,0.001374470884911716,-0.004855532664805651,0.0034462125040590763
1768416553616104700,9.866104736328126,-0.00021645904053002596,-0.004019514191895723,0.007959729991853237
1768416553626106600,9.876106689453126,0.0004069869755767286,-0.004229105077683926,0.00903324969112873
1768416553636107800,9.886107666015626,-0.00006977515295147896,-0.0015384596772491932,0.00921431090682745
1768416553646109700,9.896109619140624,0.000914795498829335,-0.00390308047644794,0.0050115762278437614
1768416553656110800,9.90611083984375,0.0014045370044186711,-0.006162133999168873,0.0018935054540634155
1768416553666112800,9.91611279296875,0.002172326436266303,-0.005640686955302954,-0.0023547690361738205
1768416553676113700,9.92611376953125,0.0037060820031911135,-0.006631434895098209,-0.0006241202354431152
1768416553686115800,9.93611572265625,0.004111947491765022,-0.007122521288692951,0.00046724313870072365
1768416553696117800,9.94611767578125,0.005632052663713694,-0.009013686329126358,0.003118601394817233
1768416553706119000,9.956118896484375,0.004503671079874039,-0.009965766221284866,0.003056017216295004
1768416553716119800,9.966119873046875,0.004114246927201748,-0.010535256937146187,0.005572094582021236
1768416553726121700,9.976121826171875,0.003285204991698265,-0.00970967672765255,0.0037986955139786005
1768416553736124000,9.9861240234375,0.0035771166440099478,-0.008624013513326645,0.0027062168810516596
1768416553746124800,9.996124755859375,0.004092171788215637,-0.01040300540626049,0.004507578909397125
1768416553756126700,10.006126708984375,0.001641727751120925,-0.008956748992204666,0.005558917764574289
1768416553766127600,10.016127685546875,0.0031871600076556206,-0.008948760107159615,0.006219381466507912
1768416553776129800,10.0261298828125,0.0019387833308428526,-0.008447659201920033,0.003474530763924122
1768416553786130700,10.036130615234375,0.00004021578934043646,-0.008117694407701492,-0.00009330594912171364
1768416553796132900,10.0461328125,0.0003738399827852845,-0.004868743475526571,-0.003065737895667553
1768416553806133800,10.0561337890625,0.0016497604083269835,-0.005671686492860317,-0.004194651730358601
1768416553816135700,10.0661357421875,-0.0016555339097976685,-0.003693382488563657,-0.007093625608831644
1768416553826136600,10.076136474609376,-0.0010688395705074072,-0.0016331610968336463,-0.005217695143073797
1768416553836138800,10.086138671875,-0.0005156156839802861,-0.000699085183441639,-0.004816105123609304
1768416553846139600,10.0961396484375,-0.0006375883240252733,-0.0019811310339719057,-0.002822462935000658
1768416553856141800,10.106141845703124,-0.0001065374817699194,0.0007065304089337587,-0.0016457061283290386
1768416553866142700,10.116142822265624,0.00056085066171363,0.001719597028568387,0.0006312967743724585
1768416553876144600,10.12614453125,-0.0010826161596924067,0.003391902893781662,0.000997000141069293
1768416553886145500,10.1361455078125,0.0007086259429343045,0.00864365603774786,0.0014657163992524147
1768416553896147700,10.146147705078125,0.002133360831066966,0.01012682355940342,-0.003137059975415468
1768416553906148600,10.156148681640625,0.0010569110745564103,0.00992282573133707,-0.0019064131192862988
1768416553916150800,10.16615087890625,0.0023596594110131264,0.014872202649712563,-0.0007131271995604038
1768416553926151700,10.176151611328125,0.0012456591939553618,0.01311611570417881,0.005497364327311516
1768416553936153600,10.186153564453125,-0.0007441577035933733,0.014478483237326145,0.01152053102850914
1768416553946154500,10.196154541015625,0.00014906655997037888,0.013971949927508831,0.012071538716554642
1768416553956156700,10.20615673828125,-0.0015099269803613424,0.01172338891774416,0.012511022388935089
1768416553966157600,10.216157470703125,-0.000547460513189435,0.009896726347506046,0.009771695360541344
1768416553976159700,10.22615966796875,-0.0011822048109024763,0.007895202375948429,0.00562082277610898
1768416553986160600,10.23616064453125,0.00030730117578059435,0.0045518698170781136,0.0009078264702111483
1768416553996162600,10.24616259765625,0.002004340523853898,0.0041254437528550625,0.0014236215502023697
1768416554006163700,10.256163818359376,0.0037569666747003794,0.0031525911763310432,0.005316896829754114
1768416554016165600,10.26616552734375,0.001552891219034791,0.003064120654016733,0.006644757464528084
1768416554026166800,10.276166748046874,-0.0003603236982598901,-0.0008637756109237671,0.0025107329711318016
1768416554036168700,10.286168701171874,-0.0018635112792253494,-0.00482336338609457,-0.004646805580705404
1768416554046169900,10.296169921875,-0.0021308925934135914,-0.00747134443372488,-0.007349648047238588
1768416554056171800,10.306171875,-0.0030569571536034346,-0.004737343639135361,-0.0017731082625687122
1768416554066172700,10.316172607421874,-0.0018382947891950607,-0.003006555140018463,0.0051782745867967606
1768416554076174800,10.3261748046875,-0.0010731515940278769,-0.0016624571289867163,0.004267911892384291
1768416554086175700,10.33617578125,-0.0023003362584859133,-0.0014187779743224382,-0.001118331216275692
1768416554096178000,10.346177978515625,-0.001815518131479621,-0.0028398940339684486,-0.006714182905852795
1768416554106178800,10.3561787109375,0.00017892324831336737,-0.00814784038811922,-0.013894331641495228
1768416554116180700,10.3661806640625,-0.0010885314550250769,-0.009279364719986916,-0.01865396648645401
1768416554126181600,10.376181640625,-0.00007759546861052513,-0.010817872360348701,-0.011365162208676338
1768416554136183800,10.386183837890625,-0.00045326806139200926,-0.009257793426513672,-0.0025218427181243896
1768416554146184700,10.396184814453125,-0.0013677976094186306,-0.00996912270784378,0.002889434341341257
1768416554156187000,10.406186767578125,-0.0008424823172390461,-0.010437360033392906,0.003909845370799303
1768416554166187800,10.416187744140625,0.0021762107498943806,-0.011377189308404922,0.000489281490445137
1768416554176189700,10.426189697265626,0.0027528954669833183,-0.010936383157968521,-0.0047710551880300045
1768416554186190600,10.436190673828126,0.00429886020720005,-0.01044875755906105,-0.010855846107006073
1768416554196192800,10.44619287109375,0.005046875681728125,-0.013023236766457558,-0.013391388580203056
1768416554206193700,10.456193603515626,0.00497257336974144,-0.010527588427066803,-0.014264637604355812
1768416554216195800,10.46619580078125,0.0036544185131788254,-0.009228711947798729,-0.014492133632302284
1768416554226196700,10.47619677734375,0.003849894506856799,-0.00935494527220726,-0.012926727533340454
1768416554236198700,10.48619873046875,0.0048911995254457,-0.007193572819232941,-0.012845775112509727
1768416554246199600,10.496199462890624,0.00474445940926671,-0.005479828454554081,-0.010108046233654022
1768416554256201700,10.50620166015625,0.002807694487273693,-0.005540709942579269,-0.007272380404174328
1768416554266202600,10.51620263671875,0.0008532005595043302,-0.00479369331151247,-0.005107496865093708
1768416554276204500,10.52620458984375,0.0008576141553930938,-0.00686046713963151,-0.002033479046076536
1768416554286205400,10.536205322265625,0.0006099402089603245,-0.006345411762595177,0.0003617678303271532
1768416554296207600,10.54620751953125,-0.0008791075088083744,-0.005509926471859217,0.004264424555003643
1768416554306208500,10.55620849609375,-0.0002221056492999196,-0.0038899255450814962,0.003199160099029541
1768416554316210400,10.56621044921875,0.000434347428381443,-0.00016682571731507778,0.004147605039179325
1768416554326211600,10.576211669921875,0.0007840205216780305,0.004092101473361254,0.0042970082722604275
1768416554336213500,10.586213623046875,0.001465722918510437,0.006643941625952721,0.005934372544288635
1768416554346214700,10.596214599609375,0.0009368191240355372,0.008133447729051113,0.005125836934894323
1768416554356216600,10.606216552734375,0.001996081555262208,0.008142982609570026,0.0014269540552049875
1768416554366217700,10.6162177734375,0.0018488088389858603,0.0072638727724552155,-0.002061520703136921
1768416554376219400,10.626219482421876,0.0020554433576762676,0.006101348903030157,-0.0028112856671214104
1768416554386220800,10.636220703125,-0.0018157276790589094,0.00584888132289052,0.00020687468349933624
1768416554396222500,10.646222412109376,0.0003296314971521497,0.005547411739826202,0.00400548754259944
1768416554406223600,10.6562236328125,0.0007754446705803275,0.005606533959507942,0.0077080801129341125
1768416554416225800,10.666225830078124,0.00013796729035675526,0.006131709087640047,0.006866374984383583
1768416554426226700,10.676226806640624,0.00220511294901371,0.004626224283128977,0.004494830034673214
1768416554436228600,10.686228515625,0.002435397356748581,0.0031946171075105667,0.0012934538535773754
1768416554446229800,10.696229736328124,0.0008963566506281495,0.0029405513778328896,-0.0004322747699916363
1768416554456231700,10.706231689453125,0.0003025371115654707,0.0009767347946763039,-0.0015050475485622883
1768416554466232600,10.716232666015625,0.0005368952988646924,0.0015578367747366428,-0.0003364528529345989
1768416554476234800,10.72623486328125,-0.0013512687291949987,0.001256367890164256,-0.0008968766778707504
1768416554486235600,10.736235595703125,-0.0009054555557668209,-0.0013194414786994457,-0.0007639848627150059
1768416554496237600,10.746237548828125,-0.0020887982100248337,-0.0007479279302060604,-0.0001613367348909378
1768416554506238700,10.75623876953125,-0.0017881272360682487,-0.0005721594206988811,0.00006955908611416817
1768416554516240600,10.76624072265625,-0.0032205982133746147,-0.0008418839424848557,-0.0005251332186162472
1768416554526241500,10.776241455078125,-0.00214734417386353,0.00008622766472399235,0.0008152357768267393
1768416554536243700,10.78624365234375,-0.003083641640841961,-0.0013738768175244331,0.002094163093715906
1768416554546244600,10.79624462890625,-0.0019914794247597456,-0.0017754815053194761,-0.000508810393512249
1768416554556246500,10.80624658203125,-0.0007369078230112791,-0.0007478217594325542,-0.0014132121577858925
1768416554566247700,10.81624755859375,-0.0012224020902067423,-0.0009022851008921862,-0.0026981872506439686
1768416554576249600,10.82624951171875,0.00021584914065897465,0.002509279642254114,-0.0018254518508911133
1768416554586250500,10.83625048828125,-0.0013972276356071234,-0.00034190062433481216,-0.003027336671948433
1768416554596252700,10.846252685546874,-0.00048414338380098343,0.0003407730255275965,-0.004779765382409096
1768416554606253600,10.856253662109374,-0.003231460228562355,0.0016545101534575224,-0.0037011848762631416
1768416554616255500,10.86625537109375,-0.0020157841499894857,0.0016055610030889511,-0.0030167866498231888
1768416554626256600,10.876256591796874,-0.002155866241082549,-0.00010578613728284836,-0.005339595954865217
1768416554636258600,10.886258544921875,-0.0017635563854128122,-0.002719093579798937,-0.007121165283024311
1768416554646259500,10.896259521484374,-0.001045568147674203,-0.005209947936236858,-0.007409052923321724
1768416554656261600,10.90626171875,-0.00018079625442624092,-0.00621337303891778,-0.005383460316807032
1768416554666262500,10.916262451171875,0.0007395921857096255,-0.010882426984608173,-0.0016819331794977188
1768416554676264400,10.926264404296875,0.0012465013423934579,-0.011408614926040173,-0.0006340397521853447
1768416554686265600,10.936265625,0.00014608318451792002,-0.014085890725255013,-0.0018678824417293072
1768416554696267500,10.946267578125,0.00035498826764523983,-0.01560053788125515,-0.00046885525807738304
1768416554706268700,10.9562685546875,-0.00014781649224460125,-0.015533958561718464,-0.002055566292256117
1768416554716269800,10.966269775390625,0.0018512785900384188,-0.01625349000096321,-0.0023603863082826138
1768416554726271700,10.976271728515625,0.0023974929936230183,-0.01841491274535656,-0.0021486650221049786
1768416554736272600,10.986272705078125,0.001953980652615428,-0.017165249213576317,0.0025508517865091562
1768416554746274800,10.99627490234375,0.0008098866092041135,-0.014934586361050606,0.004526118282228708
1768416554756275700,11.006275634765625,0.0003667365526780486,-0.014935385435819626,0.003779101651161909
1768416554766277600,11.016277587890626,-0.0006687005516141653,-0.01399608887732029,-0.0025240681134164333
1768416554776278800,11.02627880859375,-0.0014990868512541056,-0.013073461130261421,-0.007697566878050566
1768416554786280700,11.03628076171875,-0.0005597899435088038,-0.008182300254702568,-0.00450523616746068
1768416554796281600,11.046281494140626,-0.0002297022147104144,-0.0029503090772777796,0.003337223082780838
1768416554806283800,11.05628369140625,-0.0016968376003205776,0.0020388567354530096,0.005208093672990799
1768416554816284700,11.06628466796875,-0.0027524970937520266,0.004918800666928291,-0.0020890613086521626
1768416554826286600,11.07628662109375,-0.0035490484442561865,0.006819765083491802,-0.005455030594021082
1768416554836287700,11.086287841796874,-0.0024754146579653025,0.0035064208786934614,-0.009252630174160004
1768416554846289700,11.09628955078125,-0.001771274721249938,0.000697318697348237,-0.01299463864415884
1768416554856290600,11.10629052734375,0.0015288573922589421,0.000708023551851511,-0.012224219739437103
1768416554866292700,11.116292724609375,0.0012401706771925092,0.000701898243278265,-0.005818783771246672
1768416554876293600,11.126293701171875,0.0019858514424413443,0.0013161818496882915,0.001345255644991994
1768416554886295600,11.136295654296875,0.0030931937508285046,0.0024040830321609974,0.003321853931993246
1768416554896296700,11.146296630859375,0.004114882554858923,0.004001181107014418,-0.00037272321060299873
1768416554906298600,11.156298583984375,0.0029167262837290764,0.0037468490190804005,-0.004732051398605108
1768416554916299500,11.166299560546875,0.002340671606361866,0.0036132654640823603,-0.008195003494620323
1768416554926301700,11.1763017578125,0.002858123742043972,0.004030582495033741,-0.01054923702031374
1768416554936302600,11.186302490234375,0.004534609615802765,0.006488732527941465,-0.011469806544482708
1768416554946304500,11.196304443359375,0.004508511163294315,0.0068402704782783985,-0.013056517578661442
1768416554956305400,11.206305419921875,0.004364730790257454,0.006656141020357609,-0.014351930469274521
1768416554966307600,11.2163076171875,0.003994817845523357,0.008246313780546188,-0.01392768882215023
1768416554976308500,11.22630859375,0.0010790885426104069,0.006674515083432198,-0.011735666543245316
1768416554986310700,11.236310546875,0.000534738355781883,0.005473162978887558,-0.009070109575986862
1768416554996311600,11.2463115234375,0.0012423970038071275,0.004702125210314989,-0.005217279773205519
1768416555006313500,11.2563134765625,-0.0013991924934089184,0.0029790597036480904,-0.0012662135995924473
1768416555016314600,11.266314697265624,-0.0015706869307905436,-0.0012823711149394512,-0.00019478145986795425
1768416555026316500,11.276316650390624,-0.003118515945971012,-0.0023292596451938152,0.0027477452531456947
1768416555036317700,11.286317626953124,-0.0029457726050168276,0.0004559815861284733,0.0024346611462533474
1768416555046319600,11.296319580078125,-0.0027710695285350084,0.0005750246345996857,0.0027590342797338963
1768416555056320800,11.30632080078125,-0.0011344044469296932,0.005167486146092415,0.005021852906793356
1768416555066322700,11.31632275390625,-0.00023798434995114803,0.008772340603172779,0.010191048495471478
1768416555076323600,11.326323486328125,0.0020178656559437513,0.008640149608254433,0.013054624199867249
1768416555086325800,11.33632568359375,0.0021046847105026245,0.008795944973826408,0.011962728574872017
1768416555096326700,11.34632666015625,0.002328770235180855,0.005301709286868572,0.005426653195172548
1768416555106328800,11.356328857421875,0.001556187286041677,-0.0007236928213387728,0.0034111731220036745
1768416555116329700,11.366329833984375,0.0013975894544273615,-0.002587319817394018,0.005360452923923731
1768416555126331600,11.37633154296875,0.0009144920622929931,-0.002970814937725663,0.011209553107619286
1768416555136332500,11.38633251953125,0.0037694191560149193,-0.001685304450802505,0.01889028027653694
1768416555146334700,11.396334716796876,0.004442400299012661,-0.0023798570036888123,0.02164771780371666
1768416555156335600,11.406335693359376,0.005194921046495438,-0.0036801211535930634,0.022270116955041885
1768416555166337800,11.416337890625,0.0036952949594706297,-0.004288120660930872,0.020762234926223755
1768416555176338700,11.426338623046876,0.006000540219247341,-0.00525042787194252,0.0165020190179348
1768416555186340600,11.436340576171874,0.005910259671509266,-0.004795559681952,0.01705116219818592
1768416555196341500,11.446341552734374,0.003895311616361141,-0.004402477294206619,0.01963735930621624
1768416555206343700,11.45634375,0.002784773474559188,-0.0038392185233533382,0.019800877198576927
1768416555216344600,11.466344482421874,0.002955950330942869,-0.004000603221356869,0.023280080407857895
1768416555226346800,11.4763466796875,0.0013300904538482428,-0.0033214972354471684,0.02324705757200718
1768416555236347600,11.48634765625,0.003634112188592553,-0.0027274019084870815,0.02513255923986435
1768416555246349600,11.496349609375,0.0011746828677132726,-0.00024054222740232944,0.02489021234214306
1768416555256350500,11.5063505859375,0.0034343362785875797,0.0013739215210080147,0.026344168931245804
1768416555266351600,11.5163515625,0.0018486902117729187,0.0030032433569431305,0.02715829759836197
1768416555276352800,11.526352783203125,-0.000005127862095832825,0.004580152221024036,0.026095077395439148
1768416555286353700,11.536353759765625,-0.0022757388651371002,0.0046627102419734,0.02610785886645317
1768416555296355800,11.54635595703125,-0.00296840351074934,0.0060066524893045425,0.027316968888044357
1768416555306356700,11.556356689453125,-0.0037252740003168583,0.006460987962782383,0.02967200241982937
1768416555316359000,11.56635888671875,-0.004553269594907761,0.0063512613996863365,0.028456630185246468
1768416555326359800,11.57635986328125,-0.004628105089068413,0.010202192701399326,0.029509911313652992
1768416555336361700,11.58636181640625,-0.004984859377145767,0.013796446844935417,0.0304238460958004
1768416555346362600,11.596362548828125,-0.004133180715143681,0.01712220162153244,0.03296956419944763
1768416555356364800,11.60636474609375,-0.004734744783490896,0.02140195481479168,0.035196758806705475
1768416555366365700,11.61636572265625,-0.004490532912313938,0.02085947059094906,0.03594696894288063
1768416555376367900,11.626367919921876,-0.002617766847833991,0.021850327029824257,0.036864377558231354
1768416555386368800,11.63636865234375,-0.00291204615496099,0.021716104820370674,0.03522466868162155
1768416555396370700,11.64637060546875,-0.0031001793686300516,0.023623300716280937,0.03558092936873436
1768416555406371600,11.65637158203125,-0.004616583697497845,0.0203955490142107,0.03487465903162956
1768416555416373800,11.666373779296874,-0.004606056958436966,0.02121255360543728,0.032025232911109924
1768416555426374700,11.676374755859374,-0.005398880690336227,0.019517185166478157,0.03385668992996216
1768416555436376800,11.686376953125,-0.004873748868703842,0.017139993607997894,0.03296666592359543
1768416555446377700,11.696377685546874,-0.0055645727552473545,0.014625702053308487,0.03297785297036171
1768416555456379600,11.706379638671875,-0.005854983814060688,0.014387030154466629,0.03468402847647667
1768416555466380500,11.716380615234375,-0.004826204851269722,0.012455172836780548,0.035140495747327805
1768416555476382700,11.7263828125,-0.005286774598062038,0.010986654087901115,0.03598584234714508
1768416555486383600,11.736383544921875,-0.004436160437762737,0.012020492926239967,0.03393254429101944
1768416555496385800,11.7463857421875,-0.003465228946879506,0.012262627482414246,0.03391866385936737
1768416555506386700,11.75638671875,-0.003460434963926673,0.011299895122647285,0.036717645823955536
1768416555516388600,11.766388671875,-0.003842681646347046,0.010892964899539948,0.039668306708335876
1768416555526389500,11.776389404296875,-0.002440527081489563,0.007980532012879848,0.03794310986995697
1768416555536391700,11.7863916015625,-0.0027592559345066547,0.006923361215740442,0.031432654708623886
1768416555546392600,11.796392578125,-0.00290999049320817,0.005062077660113573,0.027975335717201233
1768416555556394800,11.806394775390626,-0.0032609819900244474,0.005326422862708569,0.028116794303059578
1768416555566395600,11.816395751953126,-0.0027137023862451315,0.004109092056751251,0.032800495624542236
1768416555576397600,11.8263974609375,-0.004617735743522644,0.006350195035338402,0.029994435608386993
1768416555586398700,11.836398681640626,-0.0036558022256940603,0.006862054578959942,0.024606062099337578
1768416555596400600,11.846400634765626,-0.0050728702917695045,0.0058244867250323296,0.024278759956359863
1768416555606401800,11.85640185546875,-0.0040741851553320885,0.0007413115818053484,0.021198546513915062
1768416555616403700,11.86640380859375,-0.004897673614323139,-0.004635822493582964,0.01630406081676483
1768416555626404900,11.87640478515625,-0.0012536700814962387,-0.00791124440729618,0.018317677080631256
1768416555636406800,11.88640673828125,-0.0013050166890025139,-0.007332433946430683,0.0237610824406147
1768416555646407700,11.89640771484375,0.00008914805948734283,-0.006994212046265602,0.026937969028949738
1768416555656409900,11.906409912109375,-0.0022091164719313383,-0.011539109982550144,0.015896227210760117
1768416555666410800,11.91641064453125,-0.0038597439415752888,-0.017968246713280678,-0.008067162707448006
1768416555676413000,11.926412841796875,-0.005926064215600491,-0.021268382668495178,-0.035047292709350586
1768416555686413800,11.936413818359375,-0.006327669136226177,-0.01989366114139557,-0.05125822126865387
1768416555696415700,11.946415771484375,-0.0031055102590471506,-0.010718004778027534,-0.054054539650678635
1768416555706416600,11.956416748046875,-0.00001224852167069912,0.0010726088657975197,-0.049534622579813004
1768416555716418800,11.966418701171875,-0.00015371886547654867,0.008115657605230808,-0.041996847838163376
1768416555726419700,11.976419677734375,-0.0008836914785206318,0.010845397599041462,-0.03282598778605461
1768416555736422000,11.986421875,-0.003602329408749938,0.01284782774746418,-0.02608538046479225
1768416555746422800,11.9964228515625,-0.002793793799355626,0.009804900735616684,-0.021841900423169136
