time,seconds_elapsed,z,y,x
1768416543823329800,0.073329833984375,0.01261033397167921,0.0619342066347599,-0.021328458562493324
1768416543833331700,0.083331787109375,0.01378372311592102,0.06234646588563919,-0.020617660135030746
1768416543843333400,0.09333349609375,0.012568788602948189,0.06173500418663025,-0.020119914785027504
1768416543853334800,0.103334716796875,0.011245730333030224,0.057565025985240936,-0.01697632111608982
1768416543863336400,0.11333642578125,0.008491222746670246,0.05253484845161438,-0.015454590320587158
1768416543873337600,0.123337646484375,0.004800880327820778,0.049798183143138885,-0.015142734162509441
1768416543883339500,0.133339599609375,0.0015307849971577525,0.04513285681605339,-0.0160005372017622
1768416543893341400,0.143341552734375,-0.003166232258081436,0.03906884044408798,-0.014311028644442558
1768416543903342600,0.153342529296875,-0.004614192992448807,0.031038610264658928,-0.013746172189712524
1768416543913344500,0.163344482421875,-0.007674963679164648,0.019780095666646957,-0.01563621684908867
1768416543923345700,0.173345703125,-0.010252371430397034,0.01155918464064598,-0.01798619143664837
1768416543933347600,0.18334765625,-0.011301123537123203,0.004588626325130463,-0.021105019375681877
1768416543943349500,0.193349609375,-0.01242018397897482,-0.0038932752795517445,-0.020138824358582497
1768416543953350700,0.2033505859375,-0.011293401010334492,-0.009336243383586407,-0.022401979193091393
1768416543963352600,0.2133525390625,-0.012559467926621437,-0.01703251339495182,-0.022888004779815674
1768416543973353700,0.223353759765625,-0.012499812990427017,-0.02183738723397255,-0.020545488223433495
1768416543983355600,0.233355712890625,-0.009071791544556618,-0.02365046739578247,-0.016451943665742874
1768416543993357600,0.243357666015625,-0.00987260416150093,-0.0223897285759449,-0.016927318647503853
1768416544003358700,0.253358642578125,-0.006493052933365107,-0.022131135687232018,-0.019155051559209824
1768416544013360400,0.2633603515625,-0.007982026785612106,-0.020157465711236,-0.022878151386976242
1768416544023361800,0.27336181640625,-0.006991064175963402,-0.017702564597129822,-0.02142033725976944
1768416544033363500,0.283363525390625,-0.0054392400197684765,-0.016174443066120148,-0.015054583549499512
1768416544043365400,0.293365478515625,-0.004746019374579191,-0.012002866715192795,-0.010717359371483326
1768416544053366800,0.30336669921875,-0.0052136704325675964,-0.007481351960450411,-0.010103500448167324
1768416544063368400,0.313368408203125,-0.0062456452287733555,-0.006754841655492783,-0.011683554388582706
1768416544073369600,0.32336962890625,-0.0075724320486187935,-0.007234210614115,-0.015075089409947395
1768416544083371500,0.33337158203125,-0.007635282818228006,-0.0069503178820014,-0.025178857147693634
1768416544093373400,0.34337353515625,-0.007706655655056238,-0.0067569720558822155,-0.03355929255485535
1768416544103374600,0.35337451171875,-0.006701844744384289,-0.008591357618570328,-0.03387434408068657
1768416544113376500,0.36337646484375,-0.005715143866837025,-0.008021707646548748,-0.03279070183634758
1768416544123377700,0.373377685546875,-0.007021424360573292,-0.009977532550692558,-0.03121810592710972
1768416544133379600,0.383379638671875,-0.007917843759059906,-0.01016981340944767,-0.035659726709127426
1768416544143381500,0.393381591796875,-0.007171626668423414,-0.013612215407192707,-0.03394757956266403
1768416544153382700,0.403382568359375,-0.006865363102406263,-0.013337111100554466,-0.03569488227367401
1768416544163384600,0.413384521484375,-0.008474178612232208,-0.012648417614400387,-0.03430204838514328
1768416544173385700,0.4233857421875,-0.009268333204090595,-0.010701113380491734,-0.03489593043923378
1768416544183387400,0.433387451171875,-0.008890696801245213,-0.009488044306635857,-0.03146524727344513
1768416544193389600,0.4433896484375,-0.010403105989098549,-0.009192433208227158,-0.030418358743190765
1768416544203390700,0.453390625,-0.01107209175825119,-0.007001983001828194,-0.028017785400152206
1768416544213392400,0.463392333984375,-0.0126968864351511,-0.008787366561591625,-0.025780996307730675
1768416544223393800,0.473393798828125,-0.012866795994341373,-0.009273393079638481,-0.024812405928969383
1768416544233395500,0.4833955078125,-0.012395949102938175,-0.009574863128364086,-0.02161155268549919
1768416544243397400,0.4933974609375,-0.013403689488768578,-0.008712264709174633,-0.021646972745656967
1768416544253398800,0.503398681640625,-0.0129924975335598,-0.006643787957727909,-0.020744426175951958
1768416544263400400,0.513400390625,-0.01134160440415144,-0.0067540425807237625,-0.021104486659169197
1768416544273401900,0.52340185546875,-0.009886186569929123,-0.005188636481761932,-0.020846959203481674
1768416544283403500,0.533403564453125,-0.011393003165721893,-0.005789978429675102,-0.019942017272114754
1768416544293405700,0.54340576171875,-0.009469668380916119,-0.004863731097429991,-0.01841549202799797
1768416544303406600,0.553406494140625,-0.011019893921911716,-0.003230147995054722,-0.016644224524497986
1768416544313408500,0.563408447265625,-0.008462460711598396,-0.002546514617279172,-0.015966448932886124
1768416544323410000,0.573409912109375,-0.008295746520161629,-0.0032945964485406876,-0.01642824150621891
1768416544333411600,0.58341162109375,-0.00675271125510335,-0.0038754320703446865,-0.01720588468015194
1768416544343413500,0.59341357421875,-0.004734301473945379,-0.0041366880759596825,-0.01708204858005047
1768416544353414700,0.60341455078125,-0.004004062619060278,-0.002225870033726096,-0.016338227316737175
1768416544363416600,0.61341650390625,-0.0021667478140443563,-0.003765443339943886,-0.018749719485640526
1768416544373417700,0.623417724609375,-0.0057047572918236256,-0.004618720151484013,-0.018898855894804
1768416544383419600,0.633419677734375,-0.005556153133511543,-0.005795837379992008,-0.018736669793725014
1768416544393421600,0.643421630859375,-0.0038804919458925724,-0.0036639769095927477,-0.01925012655556202
1768416544403422700,0.653422607421875,-0.0011925635626539588,-0.0051657333970069885,-0.022420620545744896
1768416544413424600,0.663424560546875,-0.00195156445261091,-0.00088949577184394,-0.020547352731227875
1768416544423425800,0.67342578125,-0.0009587379754520953,0.0023105584550648928,-0.016161659732460976
1768416544433427700,0.683427734375,0.00046818371629342437,0.003198190126568079,-0.015193600207567215
1768416544443429600,0.6934296875,0.0010351707460358739,0.003864246653392911,-0.015007978305220604
1768416544453430500,0.703430419921875,0.0027233485598117113,0.007241934072226286,-0.01350355800241232
1768416544463432700,0.7134326171875,0.001555552356876433,0.007250456139445305,-0.01007979828864336
1768416544473433900,0.723433837890625,0.0019947076216340065,0.007770837750285864,-0.011481153778731823
1768416544483435500,0.733435546875,0.0027180220931768417,0.005877862684428692,-0.010270747356116772
1768416544493437700,0.743437744140625,0.0032565132714807987,0.006204898934811354,-0.012019378133118153
1768416544503438600,0.7534384765625,0.0025869945529848337,0.003602990647777915,-0.013282782398164272
1768416544513440500,0.7634404296875,0.001841842196881771,0.0024311996530741453,-0.013406619429588318
1768416544523441700,0.773441650390625,-0.0013851100811734796,0.000630902883131057,-0.01642957329750061
1768416544533443600,0.783443603515625,-0.001502555445767939,-0.00008122641156660393,-0.016339026391506195
1768416544543445500,0.793445556640625,-0.00009800432599149644,-0.002566488226875663,-0.01672145538032055
1768416544553446700,0.80344677734375,-0.00018855179951060563,-0.005757221486419439,-0.015504390932619572
1768416544563448600,0.813448486328125,0.0006969492533244193,-0.006867227144539356,-0.013341105543076992
1768416544573449700,0.82344970703125,0.0007017429452389479,-0.007595335599035025,-0.01167716272175312
1768416544583451600,0.83345166015625,0.0024868599139153957,-0.008495483547449112,-0.010515491478145123
1768416544593453600,0.84345361328125,0.0003842941368930042,-0.009829195216298103,-0.012839365750551224
1768416544603454500,0.853454345703125,-0.0007254450465552509,-0.009119728580117226,-0.013513412326574326
1768416544613456600,0.86345654296875,-0.002395513467490673,-0.009740511886775494,-0.012139220722019672
1768416544623457800,0.873457763671875,-0.0027166905347257853,-0.009986587800085545,-0.013422864489257336
1768416544633459700,0.883459716796875,-0.0035981968976557255,-0.010667557828128338,-0.013397564180195332
1768416544643461600,0.893461669921875,-0.001023452845402062,-0.006707970052957535,-0.01477308664470911
1768416544653462500,0.903462646484375,-0.00020213393145240843,-0.004496214911341667,-0.015899604186415672
1768416544663464700,0.913464599609375,-0.0020397149492055178,-0.005081044975668192,-0.0179318618029356
1768416544673465900,0.9234658203125,-0.0032226911280304193,-0.006052566226571798,-0.019398998469114304
1768416544683467500,0.933467529296875,-0.005539374891668558,-0.009207879193127155,-0.01793665625154972
1768416544693469700,0.9434697265625,-0.00446851784363389,-0.01161697506904602,-0.011372496373951435
1768416544703470600,0.953470703125,-0.007357514929026365,-0.012857741676270962,-0.009767675772309303
1768416544713472500,0.963472412109375,-0.006131928414106369,-0.008183094672858715,-0.009812416508793831
1768416544723473700,0.9734736328125,-0.004875715356320143,-0.007150321267545223,-0.01184946857392788
1768416544733475600,0.9834755859375,-0.005666940473020077,-0.008972988463938236,-0.013973073102533817
1768416544743477800,0.993477783203125,-0.006653109099715948,-0.01053386740386486,-0.012891030870378017
1768416544753478700,1.003478759765625,-0.0062733422964811325,-0.00923424493521452,-0.00689039658755064
1768416544763480600,1.01348046875,-0.005980394314974546,-0.006232329644262791,-0.0032567796297371387
1768416544773481700,1.023481689453125,-0.006615558639168739,-0.006110623013228178,-0.0019534286111593246
1768416544783483600,1.033483642578125,-0.00740358792245388,-0.00490234699100256,-0.0052208611741662025
1768416544793485600,1.043485595703125,-0.008249673992395401,-0.004087153356522322,-0.006162820849567652
1768416544803486700,1.05348681640625,-0.009092031978070736,-0.007998005487024784,-0.013436180539429188
1768416544813488600,1.063488525390625,-0.009255017153918743,-0.00845633540302515,-0.015719041228294373
1768416544823489800,1.07348974609375,-0.006435262504965067,-0.008537028916180134,-0.012139220722019672
1768416544833491700,1.08349169921875,-0.004089816473424435,-0.0073599121533334255,-0.009472863748669624
1768416544843492900,1.093492919921875,-0.002936667762696743,-0.006535663735121489,-0.010016415268182755
1768416544853494500,1.10349462890625,-0.002432531211525202,-0.005334577988833189,-0.013422864489257336
1768416544863496700,1.11349658203125,-0.004306064918637276,-0.0031342741567641497,-0.014511564746499062
1768416544873497600,1.12349755859375,-0.003465305082499981,-0.0020807278342545033,-0.011953332461416721
1768416544883499500,1.13349951171875,-0.0035140409599989653,0.0001613875647308305,-0.01095517911016941
1768416544893501000,1.1435009765625,-0.0015281217638403177,-0.0001512675517005846,-0.010514426045119762
1768416544903502600,1.153502685546875,-0.0019534286111593246,0.0007693872321397066,-0.010704043321311474
1768416544913504500,1.16350439453125,-0.003216299694031477,0.002775546396151185,-0.013144297525286674
1768416544923505700,1.173505615234375,-0.004193679895251989,0.004352670628577471,-0.016098542138934135
1768416544933507600,1.183507568359375,-0.0035718316212296486,0.0032802154310047626,-0.015911055728793144
1768416544943508700,1.1935087890625,-0.004898618441075087,0.003163036424666643,-0.01769377663731575
1768416544953510700,1.2035107421875,-0.004217115696519613,0.0025182850658893585,-0.0179411843419075
1768416544963512600,1.2135126953125,-0.0015909724170342088,0.002758502261713147,-0.01709855906665325
1768416544973513700,1.223513671875,-0.0010657970560714602,0.006630738265812397,-0.019518574699759483
1768416544983515600,1.233515625,-0.000937166390940547,0.006957774516195059,-0.01937449723482132
1768416544993516800,1.243516845703125,-0.00207726564258337,0.006954845041036606,-0.01696087419986725
1768416545003518700,1.253518798828125,-0.0017768610268831253,0.007151386234909296,-0.014667891897261143
1768416545013520600,1.263520751953125,-0.0008370315190404654,0.007447263691574335,-0.012708071619272232
1768416545023521500,1.273521484375,0.0005946838646195829,0.0067697553895413876,-0.011560249142348766
1768416545033523700,1.283523681640625,-0.00017097493400797248,0.01056262943893671,-0.010685667395591736
1768416545043524900,1.29352490234375,0.0010905644157901406,0.010155165567994118,-0.01227237842977047
1768416545053526500,1.303526611328125,0.0007281082216650248,0.008230498991906643,-0.013766412623226643
1768416545063528700,1.31352880859375,0.0009944243356585503,0.007778028026223183,-0.01209554448723793
1768416545073529600,1.323529541015625,0.0011020160745829344,0.007632886059582233,-0.014022075571119785
1768416545083531500,1.333531494140625,0.0003294330381322652,0.005856025032699108,-0.01137063279747963
1768416545093533000,1.343532958984375,-0.0015281217638403177,0.0059785302728414536,-0.009676329791545868
1768416545103534600,1.35353466796875,-0.0011608719360083342,0.006715160794556141,-0.008596151135861874
1768416545113536500,1.36353662109375,-0.0011861718958243728,0.008953280746936798,-0.00766005041077733
1768416545123537700,1.37353759765625,0.0003480751474853605,0.006629673298448324,-0.007949535734951496
1768416545133539600,1.38353955078125,-0.00014434332842938602,0.00504109775647521,-0.005784119479358196
1768416545143540700,1.393540771484375,-0.00011611382069531828,0.0033878071699291468,-0.005827262531965971
1768416545153542700,1.403542724609375,-0.0033811493776738644,0.00011052118497900665,-0.0062491074204444885
1768416545163544600,1.413544677734375,-0.004667988512665033,-0.002113218419253826,-0.00788482092320919
1768416545173545500,1.42354541015625,-0.005542837083339691,-0.004443484358489513,-0.009090700186789036
1768416545183547600,1.433547607421875,-0.006843791343271732,-0.005038434639573097,-0.009711749851703644
1768416545193548800,1.443548828125,-0.006631270982325077,-0.006940464023500681,-0.007694405037909746
1768416545203550700,1.45355078125,-0.005979595705866814,-0.005840045865625143,-0.008045676164329052
1768416545213552600,1.463552734375,-0.005812615156173706,-0.0038812910206615925,-0.006003297865390778
1768416545223553500,1.473553466796875,-0.005559881217777729,-0.0046179210767149925,-0.0041555967181921005
1768416545233555700,1.4835556640625,-0.006416886579245329,-0.002243446884676814,-0.00392896169796586
1768416545243556900,1.493556884765625,-0.0046730488538742065,0.00047697214176878333,-0.005496231839060783
1768416545253558500,1.50355859375,-0.002700445242226124,0.0009547432418912649,-0.0062214103527367115
1768416545263560700,1.513560791015625,-0.00261895265430212,-0.0008218514849431813,-0.005065598525106907
1768416545273561600,1.5235615234375,-0.002280997345224023,-0.003037867834791541,-0.004724713973701
1768416545283563300,1.533563232421875,-0.004399542231112719,-0.0022216090001165867,-0.004829642828553915
1768416545293564700,1.543564697265625,-0.0029435919132083654,0.000589091214351356,-0.0049398974515497684
1768416545303566300,1.55356640625,-0.0012900352012366056,0.002291117561981082,-0.004734301473945379
1768416545313567500,1.5635673828125,-0.0025800704024732113,0.003948136232793331,-0.008264321833848953
1768416545323569700,1.573569580078125,0.0003579288604669273,0.004565190523862839,-0.009220129810273647
1768416545333571300,1.5835712890625,-0.0013667342718690634,0.006028331350535154,-0.009911220520734787
1768416545343572500,1.593572509765625,-0.002977414056658745,0.00538491178303957,-0.009459015913307667
1768416545353574400,1.603574462890625,-0.00105354655534029,0.006205964367836714,-0.008695486932992935
1768416545363575600,1.613575439453125,0.0012274509062990546,0.00714765815064311,-0.007446464616805315
1768416545373577500,1.623577392578125,-0.0008010788587853312,0.00652660895138979,-0.006411293987184763
1768416545383579400,1.633579345703125,-0.00026045716367661953,0.005078115500509739,-0.005323659162968397
1768416545393580500,1.64358056640625,-0.0011883024126291275,0.005005144979804754,-0.005476790945976973
1768416545403582500,1.65358251953125,-0.00010652644414221868,0.005554022267460823,-0.005192098673433065
1768416545413583600,1.66358349609375,0.00044048685231246054,0.004579305648803711,-0.006641657557338476
1768416545423585500,1.67358544921875,0.00333241350017488,0.003826962551102042,-0.0075753615237772465
1768416545433587500,1.68358740234375,0.00202293717302382,0.004879177547991276,-0.007668572477996349
1768416545443588600,1.693588623046875,0.003686613868921995,0.005077849142253399,-0.006928213406354189
1768416545453590300,1.70359033203125,0.0027321369852870703,0.0035752938129007816,-0.008983374573290348
1768416545463591400,1.71359130859375,0.0031012510880827904,0.0037326866295188665,-0.007890147157013416
1768416545473593600,1.723593505859375,0.0020101540721952915,0.004838963504880667,-0.0044261738657951355
1768416545483595300,1.73359521484375,0.0007241134881041944,0.006089317612349987,-0.0025806031189858913
1768416545493596700,1.7435966796875,0.0038666436448693275,0.007762582041323185,-0.003178216516971588
1768416545503598300,1.753598388671875,0.0046823699958622456,0.009243565611541271,-0.005200088489800692
1768416545513599500,1.763599609375,0.003100185887888074,0.008452873677015305,-0.00878923013806343
1768416545523601400,1.773601318359375,0.004789695143699646,0.009500294923782349,-0.005498095881193876
1768416545533603300,1.783603271484375,0.003418433479964733,0.011854794807732105,0.0006761765689589083
1768416545543604500,1.7936044921875,0.0036250948905944824,0.01619175262749195,0.003751062322407961
1768416545553606400,1.8036064453125,0.00187992537394166,0.017725467681884766,0.005855225957930088
1768416545563607600,1.813607666015625,0.001781921018846333,0.016098275780677795,0.005035771057009697
1768416545573609500,1.823609375,0.0016713999211788177,0.014404505491256714,0.001603755634278059
1768416545583611400,1.833611328125,0.00056219327962026,0.010812434367835522,-0.0034354778472334146
1768416545593612500,1.843612548828125,0.001350488979369402,0.006657369900494814,-0.006795854307711124
1768416545603614500,1.853614501953125,0.0017917747609317303,0.004999552387744188,-0.0004511394945438951
1768416545613615600,1.86361572265625,0.004691424313932657,0.004110322799533606,0.006213687360286713
1768416545623617500,1.873617431640625,0.0043931505642831326,0.0030282805673778057,0.005030711181461811
1768416545633619500,1.883619384765625,0.0019022959750145674,0.0013451626291498542,0.0028903286438435316
1768416545643620600,1.89362060546875,-0.0007179882377386093,-0.0013286510948091745,0.002971288748085499
1768416545653622300,1.903622314453125,0.0006527407676912844,0.0006945523782633245,0.002335858531296253
1768416545663623700,1.913623779296875,0.0008705873624421656,0.0009547432418912649,0.006431533955037594
1768416545673625300,1.923625244140625,0.003522563260048628,0.002058889716863632,0.00515747768804431
1768416545683626500,1.93362646484375,0.003573695896193385,0.00011904330312972888,0.006135923322290182
1768416545693628700,1.943628662109375,0.0032629049383103848,0.0011827098205685616,0.008017712272703648
1768416545703630300,1.95363037109375,0.003787281457334757,-0.0007781756576150656,0.008795089088380337
1768416545713631500,1.963631591796875,0.0017749968683347106,-0.00070493872044608,0.007275489624589682
1768416545723633400,1.97363330078125,0.0029587720055133104,-0.0006687197601422668,0.009665942750871181
1768416545733634600,1.983634521484375,0.0023007048293948174,0.0024799355305731297,0.010602843016386032
1768416545743636500,1.993636474609375,0.0013169331941753626,0.004728708881884813,0.010074738413095474
1768416545753638400,2.003638427734375,0.002980876248329878,0.0062365904450416565,0.009152219630777836
1768416545763639600,2.0136396484375,0.003132410114631057,0.00893943291157484,0.004457865376025438
1768416545773641500,2.023641357421875,0.006797452457249165,0.010921357199549675,0.004578240215778351
1768416545783642600,2.033642578125,0.006164685357362032,0.008665393106639385,0.0024921861477196217
1768416545793644500,2.04364453125,0.004610464442521334,0.007412376347929239,0.003373426152393222
1768416545803646500,2.053646484375,0.005548163317143917,0.011685417965054512,0.0038336203433573246
1768416545813647600,2.063647705078125,0.0041188448667526245,0.011491806246340275,0.004004328977316618
1768416545823649300,2.073649169921875,0.0024346618447452784,0.010447581298649311,0.0023097596131265163
1768416545833650400,2.083650390625,0.002624545246362686,0.010539193637669086,0.003430151380598545
1768416545843652600,2.093652587890625,0.0013603427214547992,0.008713596500456333,0.004071706905961037
1768416545853654300,2.103654296875,0.00101173494476825,0.006875216495245695,0.009255549870431423
1768416545863655700,2.11365576171875,0.0033388049341738224,0.004965996369719505,0.013712882995605469
1768416545873657300,2.1236572265625,0.0012713931500911713,0.0028549085836857557,0.01531743723899126
1768416545883658500,2.133658447265625,0.002112419344484806,0.0008088020258583128,0.019024822860956192
1768416545893660700,2.14366064453125,0.0015393070643767715,-0.0005667206714861095,0.019109245389699936
1768416545903661600,2.15366162109375,0.0020841897930949926,-0.000015712650565546937,0.019645607098937035
1768416545913663500,2.16366357421875,0.004150536376982927,0.00032330775866284966,0.019297264516353607
1768416545923665400,2.17366552734375,0.004999552387744188,-0.0012785836588591337,0.01684635877609253
1768416545933666600,2.18366650390625,0.004550543148070574,-0.0026501116808503866,0.013556022197008133
1768416545943668500,2.19366845703125,0.004795287735760212,-0.0029907298739999533,0.012952283956110477
1768416545953669600,2.203669677734375,0.0035872780717909336,-0.004095675423741341,0.01366414688527584
1768416545963671600,2.213671630859375,0.003489806316792965,-0.004464789759367704,0.01715741492807865
1768416545973673200,2.223673095703125,0.0037768951151520014,-0.005938316695392132,0.020371850579977036
1768416545983674600,2.233674560546875,0.0028458540327847004,-0.0031467911321669817,0.022774821147322655
1768416545993676500,2.243676513671875,0.004911401774734259,-0.0024644893128424883,0.026318956166505814
1768416546003677400,2.253677490234375,0.002177666872739792,-0.002567020943388343,0.027244403958320618
1768416546013679600,2.2636796875,0.0032373385038226843,-0.0010713896481320262,0.028896363452076912
1768416546023681300,2.273681396484375,0.0038336203433573246,0.00307595101185143,0.02749740518629551
1768416546033682400,2.283682373046875,0.006099970545619726,0.007900799624621868,0.024337830021977425
1768416546043684600,2.2936845703125,0.0075750951655209064,0.008480836637318134,0.021384917199611664
1768416546053685500,2.303685546875,0.00971254799515009,0.009861951693892479,0.018512431532144547
1768416546063687700,2.313687744140625,0.011004714295268059,0.008449943736195564,0.014780011028051376
1768416546073688600,2.3236884765625,0.01116450410336256,0.0046480149030685425,0.013248694129288197
1768416546083690500,2.3336904296875,0.008800681680440903,0.0010871023405343294,0.014725150540471077
1768416546093692400,2.3436923828125,0.010873420163989067,0.0023968450259417295,0.021208083257079124
1768416546103693600,2.353693603515625,0.013651629909873009,0.000362988852430135,0.028232436627149582
1768416546113695500,2.363695556640625,0.017078585922718048,-0.002481799805536866,0.039338618516922
1768416546123696600,2.373696533203125,0.017783524468541145,-0.001389637473039329,0.046671632677316666
1768416546133698600,2.383698486328125,0.018458370119333267,-0.007739146240055561,0.055383097380399704
1768416546143700500,2.393700439453125,0.018381137400865555,-0.008432100526988506,0.06511402130126953
1768416546153701600,2.40370166015625,0.020007796585559845,-0.0070587084628641605,0.0755687952041626
1768416546163703600,2.41370361328125,0.02556820958852768,-0.013772005215287209,0.08792612701654434
1768416546173704400,2.423704345703125,0.03388392925262451,-0.0246622022241354,0.10543934255838394
1768416546183706600,2.43370654296875,0.03905472531914711,-0.0378941185772419,0.12080764770507812
1768416546193707500,2.44370751953125,0.03323438763618469,-0.05145413428544998,0.12955692410469055
1768416546203709400,2.45370947265625,0.02455780655145645,-0.06539631634950638,0.144896999001503
1768416546213711600,2.463711669921875,0.022045381367206573,-0.07576560229063034,0.1596173644065857
1768416546223712500,2.47371240234375,0.03026922233402729,-0.08699429035186768,0.1590290665626526
1768416546233714400,2.48371435546875,0.04062172770500183,-0.10567715764045715,0.14307646453380585
1768416546243715600,2.493715576171875,0.05371995270252228,-0.13013963401317596,0.11974983662366867
1768416546253717500,2.503717529296875,0.07619570195674896,-0.1358686238527298,0.09161167591810226
1768416546263719700,2.5137197265625,0.1079200729727745,-0.1117054894566536,0.05541851744055748
1768416546273720000,2.523719970703125,0.14657185971736908,-0.06910955905914307,-0.001532116555608809
1768416546283722200,2.53372216796875,0.18254344165325165,-0.02594451606273651,-0.0604281909763813
1768416546293723100,2.54372314453125,0.20505434274673462,0.004008057527244091,-0.10020250082015991
1768416546303725000,2.55372509765625,0.21308830380439758,0.03304636850953102,-0.12649163603782654
1768416546313727200,2.563727294921875,0.2098163515329361,0.06649486720561981,-0.14156699180603027
1768416546323728100,2.57372802734375,0.20645570755004883,0.10274981707334518,-0.160678893327713
1768416546333730000,2.58372998046875,0.1999671757221222,0.1423712521791458,-0.18089042603969574
1768416546343731200,2.593731201171875,0.1918029934167862,0.17627356946468353,-0.20103271305561066
1768416546353733000,2.603733154296875,0.18174822628498077,0.2109207659959793,-0.21049465239048004
1768416546363734000,2.613734130859375,0.17013870179653168,0.24802924692630768,-0.21734990179538727
1768416546373736200,2.623736083984375,0.15763969719409943,0.28618595004081726,-0.21781061589717865
1768416546383738000,2.633738037109375,0.14532257616519928,0.3090212345123291,-0.22078989446163177
1768416546393739000,2.643739013671875,0.1334664523601532,0.3147584795951843,-0.22451646625995636
1768416546403741200,2.6537412109375,0.11915621906518936,0.31566768884658813,-0.22944463789463043
1768416546413742000,2.6637421875,0.10254474729299545,0.3179124593734741,-0.2219771444797516
1768416546423744000,2.673743896484375,0.09120074659585953,0.32464972138404846,-0.1989099085330963
1768416546433746200,2.68374609375,0.08083013445138931,0.3233809769153595,-0.1699719876050949
1768416546443747000,2.6937470703125,0.08058618754148483,0.32305848598480225,-0.13962873816490173
1768416546453749200,2.703749267578125,0.08141762763261795,0.3137885630130768,-0.12440451234579086
1768416546463750100,2.713750244140625,0.0796988233923912,0.29766204953193665,-0.1125238835811615
1768416546473752000,2.723751953125,0.07525108009576797,0.2808460593223572,-0.10323956608772278
1768416546483753000,2.7337529296875,0.07452776283025742,0.2531600892543793,-0.08952801674604416
1768416546493755100,2.743755126953125,0.07927271723747253,0.23255841434001923,-0.07723087072372437
1768416546503757000,2.753757080078125,0.08650054037570953,0.21392880380153656,-0.06744988262653351
1768416546513758200,2.76375830078125,0.0959976390004158,0.2069031149148941,-0.06691271811723709
1768416546523760000,2.773760009765625,0.0992879718542099,0.19315160810947418,-0.07625429332256317
1768416546533761000,2.783760986328125,0.09821418672800064,0.18667374551296234,-0.0900353491306305
1768416546543763200,2.79376318359375,0.09048862010240555,0.17923766374588013,-0.10718104988336563
1768416546553764000,2.80376416015625,0.07848575711250305,0.1775476187467575,-0.11895381659269333
1768416546563766000,2.81376611328125,0.06966829299926758,0.18238206207752228,-0.12178076058626175
1768416546573768200,2.823768310546875,0.05344191938638687,0.185615673661232,-0.12855423986911774
1768416546583769000,2.83376904296875,0.030351513996720314,0.18579703569412231,-0.13073644042015076
1768416546593771000,2.84377099609375,0.008102401159703732,0.18226008117198944,-0.1324552446603775
1768416546603772200,2.853772216796875,-0.008816927671432495,0.18307767808437347,-0.13080115616321564
1768416546613774000,2.863774169921875,-0.016414126381278038,0.18798615038394928,-0.12480451911687851
1768416546623776300,2.8737763671875,-0.0188439954072237,0.18516133725643158,-0.10544626414775848
1768416546633777200,2.883777099609375,-0.019874637946486473,0.1905803382396698,-0.07491898536682129
1768416546643779000,2.893779052734375,-0.02088530734181404,0.2033451348543167,-0.06127667427062988
1768416546653780000,2.903780029296875,-0.012062255293130875,0.21345289051532745,-0.061225540935993195
1768416546663782100,2.9137822265625,-0.004221376497298479,0.2147407978773117,-0.05687553435564041
1768416546673783000,2.923782958984375,0.007342068944126368,0.20900674164295197,-0.04892493039369583
1768416546683785000,2.933784912109375,0.02008635923266411,0.21448034048080444,-0.03730316460132599
1768416546693787100,2.943787109375,0.03855831176042557,0.2108195573091507,-0.02713627927005291
1768416546703788000,2.9537880859375,0.05549494922161102,0.20357176661491394,-0.03164421394467354
1768416546713790200,2.963790283203125,0.07034766674041748,0.19395482540130615,-0.04596349596977234
1768416546723791000,2.973791015625,0.08570771664381027,0.1892751157283783,-0.05830937996506691
1768416546733793000,2.98379296875,0.1004837304353714,0.18733687698841095,-0.06298668682575226
1768416546743794000,2.9937939453125,0.12237677723169327,0.18656376004219055,-0.061292119324207306
1768416546753796000,3.003796142578125,0.14877615869045258,0.191166490316391,-0.05023893713951111
1768416546763798000,3.013798095703125,0.17544665932655334,0.18808521330356598,-0.02340465784072876
1768416546773799200,3.023799072265625,0.19693969190120697,0.1787353903055191,0.010927216149866581
1768416546783801000,3.033801025390625,0.21358977258205414,0.17199786007404327,0.04321884363889694
1768416546793802000,3.043802001953125,0.21758905053138733,0.15979419648647308,0.05957544595003128
1768416546803804200,3.05380419921875,0.2134406417608261,0.14606612920761108,0.06427299231290817
1768416546813806000,3.06380615234375,0.2016471028327942,0.12863600254058838,0.07177778333425522
1768416546823807000,3.073806884765625,0.18066830933094025,0.11021704971790314,0.07340843975543976
1768416546833809200,3.08380908203125,0.1649375557899475,0.10183209180831909,0.07006457448005676
1768416546843810000,3.09381005859375,0.1503112018108368,0.09003614634275436,0.07055672258138657
1768416546853812000,3.10381201171875,0.14583976566791534,0.08430982381105423,0.0873226523399353
1768416546863813000,3.113813232421875,0.14285914599895477,0.07708413153886795,0.10279562324285507
1768416546873815000,3.12381494140625,0.1324315369129181,0.07311415672302246,0.11139816045761108
1768416546883817200,3.133817138671875,0.12013120204210281,0.06908612698316574,0.11354467272758484
1768416546893818000,3.143818115234375,0.10238070040941238,0.07247419655323029,0.11651782691478729
1768416546903820000,3.153820068359375,0.07604043930768967,0.07594163715839386,0.12214162200689316
1768416546913821000,3.163821044921875,0.052128713577985764,0.07721728831529617,0.12421329319477081
1768416546923823000,3.173822998046875,0.028145883232355118,0.08611491322517395,0.12273390591144562
1768416546933824000,3.183823974609375,0.0017132115317508578,0.09825253486633301,0.11905661225318909
1768416546943826200,3.193826171875,-0.02298201434314251,0.10199987143278122,0.12034718692302704
1768416546953828000,3.203828125,-0.050093527883291245,0.10509179532527924,0.12643437087535858
1768416546963829000,3.2138291015625,-0.06703096628189087,0.10628942400217056,0.13142220675945282
1768416546973831200,3.2238310546875,-0.08663395792245865,0.09527352452278137,0.1327953338623047
1768416546983832000,3.23383203125,-0.1099318265914917,0.08018910884857178,0.12983043491840363
1768416546993834000,3.243833984375,-0.13686996698379517,0.05943962559103966,0.1297697126865387
1768416547003835000,3.2538349609375,-0.15606310963630676,0.03723764792084694,0.12613582611083984
1768416547013837000,3.263837158203125,-0.17086201906204224,0.010398578830063343,0.11846326291561127
1768416547023839000,3.2738388671875,-0.18523962795734406,-0.01515871286392212,0.10281692445278168
1768416547033840000,3.283840087890625,-0.2059345245361328,-0.03273770585656166,0.08054943382740021
1768416547043842000,3.293842041015625,-0.23139460384845734,-0.052629124373197556,0.06178347393870354
1768416547053843000,3.303843017578125,-0.2659371495246887,-0.07992172986268997,0.053636595606803894
1768416547063845000,3.31384521484375,-0.2995739281177521,-0.1320967823266983,0.044135503470897675
1768416547073846000,3.323845947265625,-0.3331899344921112,-0.20198771357536316,0.029882265254855156
1768416547083848000,3.333847900390625,-0.3602878749370575,-0.2764856517314911,0.00926300697028637
1768416547093850000,3.34385009765625,-0.37835291028022766,-0.34821709990501404,-0.01125079020857811
1768416547103851000,3.35385107421875,-0.3865716755390167,-0.4130869209766388,-0.02707183174788952
1768416547113853000,3.36385302734375,-0.38780099153518677,-0.4881667494773865,-0.03290095925331116
1768416547123854000,3.37385400390625,-0.3997463285923004,-0.5650274157524109,-0.03732500225305557
1768416547133856000,3.38385595703125,-0.4089859127998352,-0.6435582041740417,-0.03280002251267433
1768416547143857000,3.39385693359375,-0.4168643355369568,-0.7214159965515137,-0.0076209018006920815
1768416547153859000,3.403859130859375,-0.4193415939807892,-0.7751598954200745,0.030966171994805336
1768416547163861000,3.413861083984375,-0.41891762614250183,-0.8110156655311584,0.06615398824214935
1768416547173862000,3.42386181640625,-0.41292524337768555,-0.839599072933197,0.0920843854546547
1768416547183864000,3.433864013671875,-0.39811861515045166,-0.866279661655426,0.10507076233625412
1768416547193865000,3.443864990234375,-0.3974011540412903,-0.9089576601982117,0.1144847646355629
1768416547203867100,3.4538671875,-0.3666384518146515,-0.8898649215698242,0.15326811373233795
1768416547213869000,3.463869140625,-0.26413124799728394,-0.8452292680740356,0.26008376479148865
1768416547223870000,3.473869873046875,-0.12929567694664001,-0.8339166641235352,0.475274920463562
1768416547233872100,3.4838720703125,-0.004829110112041235,-0.6869914531707764,0.5315997004508972
1768416547243873000,3.493873046875,0.27420732378959656,-0.42371079325675964,0.5012050271034241
1768416547253875000,3.503875,0.5667915344238281,-0.2335919886827469,0.3345750570297241
1768416547263875800,3.513875732421875,0.5285541415214539,-0.03903261944651604,0.013700632378458977
1768416547273878300,3.523878173828125,0.3706749975681305,0.1974206566810608,-0.1589193493127823
1768416547283880200,3.533880126953125,0.2843550145626068,0.35082194209098816,-0.24513545632362366
1768416547293881300,3.54388134765625,0.20438510179519653,0.3842557966709137,-0.2777216136455536
1768416547303883300,3.55388330078125,0.1046968474984169,0.20766770839691162,-0.21401961147785187
1768416547313884200,3.56388427734375,-0.03391881659626961,-0.028715800493955612,-0.07147205621004105
1768416547323886300,3.57388623046875,-0.13918371498584747,-0.26521676778793335,0.19258196651935577
1768416547333887200,3.58388720703125,-0.23681333661079407,-0.39925816655158997,0.5031592845916748
1768416547343889200,3.59388916015625,-0.28401148319244385,-0.5110424757003784,0.7634465098381042
1768416547353891300,3.603891357421875,-0.3070582151412964,-0.5858941078186035,0.8510072827339172
1768416547363892200,3.613892333984375,-0.28726693987846375,-0.5654010772705078,0.7718791365623474
1768416547373894100,3.62389404296875,-0.1828198879957199,-0.4821149706840515,0.6850379705429077
1768416547383895300,3.633895263671875,-0.09275763481855392,-0.3907046318054199,0.6124069094657898
1768416547393897200,3.643897216796875,-0.043771982192993164,-0.35401055216789246,0.5058197975158691
1768416547403898000,3.653898193359375,-0.055090948939323425,-0.3849615156650543,0.3707389235496521
1768416547413900300,3.663900390625,-0.11651463061571121,-0.5122449398040771,0.22026845812797546
1768416547423902200,3.673902099609375,-0.19169433414936066,-0.6256287097930908,0.13981488347053528
1768416547433903000,3.683903076171875,-0.24719221889972687,-0.6949833035469055,0.14713779091835022
1768416547443905300,3.6939052734375,-0.2850642204284668,-0.7186665534973145,0.18286356329917908
1768416547453906200,3.70390625,-0.2823147773742676,-0.6672843098640442,0.19176757335662842
1768416547463908400,3.713908447265625,-0.24290905892848969,-0.5423532724380493,0.17313902080059052
1768416547473909500,3.723909423828125,-0.18678505718708038,-0.37314534187316895,0.12988902628421783
1768416547483911200,3.7339111328125,-0.16469255089759827,-0.21648569405078888,0.08153028041124344
1768416547493912300,3.743912353515625,-0.17497846484184265,-0.08648908883333206,0.03982650861144066
1768416547503914200,3.753914306640625,-0.20007263123989105,0.01739976368844509,0.018312428146600723
1768416547513916200,3.763916259765625,-0.23889672756195068,0.07950147986412048,0.023989489302039146
1768416547523917300,3.773917236328125,-0.28960996866226196,0.06359388679265976,0.05247945338487625
1768416547533919200,3.783919189453125,-0.3333643972873688,-0.006237922236323357,0.0770588293671608
1768416547543920400,3.79392041015625,-0.35574692487716675,-0.07348886132240295,0.11553804576396942
1768416547553922300,3.80392236328125,-0.3324245512485504,-0.0938069224357605,0.17886002361774445
1768416547563923500,3.81392333984375,-0.24070341885089874,-0.0803329199552536,0.23024465143680573
1768416547573925400,3.82392529296875,-0.13070048391819,-0.021046163514256477,0.25090011954307556
1768416547583927300,3.83392724609375,-0.030547522008419037,0.07952918112277985,0.2520727217197418
1768416547593928400,3.843928466796875,0.020492758601903915,0.22994691133499146,0.26214399933815
1768416547603930000,3.85393017578125,0.044501688331365585,0.402764230966568,0.2910289168357849
1768416547613931500,3.863931640625,0.05302673205733299,0.5347353219985962,0.3199223577976227
1768416547623933400,3.873933349609375,0.07515733689069748,0.6627609133720398,0.33325493335723877
1768416547633934300,3.883934326171875,0.026131203398108482,0.7723076343536377,0.3113134205341339
1768416547643936500,3.8939365234375,-0.03684296831488609,0.8675393462181091,0.28358352184295654
1768416547653938200,3.903938232421875,-0.042636677622795105,1.0092581510543823,0.24778689444065094
1768416547663939300,3.913939208984375,-0.008312257938086987,1.16251802444458,0.20279759168624878
1768416547673941200,3.923941162109375,0.02436286397278309,1.2816773653030396,0.128252774477005
1768416547683942400,3.9339423828125,0.03696254640817642,1.3537694215774536,0.03382241353392601
1768416547693944300,3.9439443359375,0.01950073055922985,1.3523337841033936,-0.038715969771146774
1768416547703945500,3.953945556640625,-0.015543273650109768,1.2833278179168701,-0.06586956232786179
1768416547713947400,3.963947509765625,0.010602310299873352,1.1799651384353638,-0.03458700701594353
1768416547723949300,3.97394921875,0.07099907845258713,0.9920821189880371,-0.004570250865072012
1768416547733950500,3.983950439453125,0.12009924650192261,0.8244307637214661,0.005309544038027525
1768416547743952400,3.993952392578125,0.1732649952173233,0.7606738805770874,-0.044728588312864304
1768416547753953300,4.003953369140625,0.217033252120018,0.7260594367980957,-0.2969144880771637
1768416547763955500,4.01395556640625,0.18588091433048248,0.6770373582839966,-0.7647314667701721
1768416547773956400,4.023956298828125,0.03395770117640495,0.7022180557250977,-1.1130657196044922
1768416547783958500,4.03395849609375,-0.21833473443984985,0.7375475168228149,-1.1518381834030151
1768416547793960400,4.04396044921875,-0.5252256989479065,0.7996817827224731,-0.8797616958618164
1768416547803961300,4.05396142578125,-0.7846924066543579,0.894730269908905,-0.5111958980560303
1768416547813963500,4.063963623046875,-0.9014909267425537,1.1059516668319702,-0.23753026127815247
1768416547823964400,4.07396435546875,-0.8992102146148682,1.3367438316345215,-0.12873534858226776
1768416547833966300,4.08396630859375,-0.8411258459091187,1.4597302675247192,-0.19950059056282043
1768416547843967500,4.093967529296875,-0.7259731888771057,1.4212361574172974,-0.37289369106292725
1768416547853969400,4.103969482421875,-0.5823603272438049,1.3755338191986084,-0.5059758424758911
1768416547863971300,4.113971435546875,-0.43409258127212524,1.2741782665252686,-0.5965275764465332
1768416547873972500,4.123972412109375,-0.32425904273986816,1.0625184774398804,-0.6124178767204285
1768416547883974400,4.133974365234375,-0.2769511640071869,0.714817225933075,-0.4938235580921173
1768416547893975300,4.143975341796875,-0.29357996582984924,0.2773386538028717,-0.17679181694984436
1768416547903977500,4.1539775390625,-0.3190975487232208,-0.10664895176887512,0.2553614675998688
1768416547913978400,4.163978271484375,-0.2978258430957794,-0.2952510714530945,0.5610728859901428
1768416547923980300,4.173980224609375,-0.22788909077644348,-0.3141648471355438,0.6938932538032532
1768416547933981400,4.1839814453125,-0.13985536992549896,-0.3833870589733124,0.6902926564216614
1768416547943983400,4.1939833984375,-0.04475389048457146,-0.33108577132225037,0.608716607093811
1768416547953985300,4.2039853515625,0.09946693480014801,-0.07089760899543762,0.48943573236465454
1768416547963986400,4.213986328125,0.24137000739574432,0.11535375565290451,0.3737528324127197
1768416547973988400,4.22398828125,0.3052946627140045,0.3315747380256653,0.2956883907318115
1768416547983989200,4.2339892578125,0.2454736828804016,0.45751723647117615,0.28340160846710205
1768416547993991400,4.243991455078125,0.13030581176280975,0.4993043541908264,0.37387052178382874
1768416548003992300,4.253992431640625,0.08268129825592041,0.40484869480133057,0.4984617233276367
1768416548013994200,4.263994140625,0.06494677811861038,0.34116131067276,0.4643823206424713
1768416548023996400,4.273996337890625,0.12682665884494781,0.3958759605884552,0.35817891359329224
1768416548033997300,4.283997314453125,0.266964316368103,0.5830061435699463,0.26238128542900085
1768416548043999500,4.29399951171875,0.3934492766857147,0.6589358448982239,0.21713098883628845
1768416548054000400,4.30400048828125,0.39514440298080444,0.6248281598091125,0.23238956928253174
1768416548064002300,4.314002197265625,0.27460944652557373,0.5162622928619385,0.35503506660461426
1768416548074003200,4.324003173828125,0.16116970777511597,0.39754629135131836,0.5816892385482788
1768416548084005400,4.33400537109375,0.11208073049783707,0.3398795425891876,0.7299346327781677
1768416548094007300,4.34400732421875,0.11584670841693878,0.3486591875553131,0.7083308100700378
1768416548104008400,4.354008544921875,0.1575922966003418,0.37481728196144104,0.6389397382736206
1768416548114010400,4.36401025390625,0.30545473098754883,0.5175946950912476,0.6945920586585999
1768416548124011300,4.37401123046875,0.5630324482917786,0.5594097375869751,0.7627221345901489
1768416548134013400,4.384013427734375,0.796712338924408,0.4820915460586548,0.8613661527633667
1768416548144014300,4.394014404296875,0.9447275996208191,0.2352532595396042,1.0195800065994263
1768416548154016300,4.404016357421875,0.9788592457771301,-0.021503960713744164,1.2546570301055908
1768416548164017400,4.414017333984375,0.985005259513855,-0.2329602837562561,1.451011061668396
1768416548174019300,4.424019287109375,1.061975121498108,-0.3133062422275543,1.684436559677124
1768416548184021200,4.434021240234375,1.1785145998001099,-0.3050781488418579,1.9070461988449097
1768416548194022400,4.4440224609375,1.2851043939590454,-0.20229025185108185,2.0235466957092285
1768416548204024300,4.4540244140625,1.372470736503601,-0.038786012679338455,2.1422297954559326
1768416548214025200,4.464025146484375,1.4537913799285889,0.5575152039527893,2.4028472900390625
1768416548224027400,4.47402734375,1.4634778499603271,2.485215187072754,2.507913589477539
1768416548234028300,4.4840283203125,1.475532054901123,2.4922497272491455,2.9288907051086426
1768416548244030200,4.4940302734375,1.729201078414917,-1.3697001934051514,5.453448295593262
1768416548254032400,4.504032470703125,1.4499359130859375,-4.301784992218018,7.537664413452148
1768416548264033300,4.514033203125,1.091027021408081,-3.9666643142700195,6.972285747528076
1768416548274035200,4.52403515625,1.066359519958496,-1.8289580345153809,3.990844488143921
1768416548284036000,4.5340361328125,0.91476970911026,1.0940576791763306,0.6357431411743164
1768416548294038300,4.544038330078125,0.3854787051677704,2.967186450958252,0.2193717658519745
1768416548304039200,4.5540390625,0.3407956659793854,4.103603839874268,1.4119126796722412
1768416548314041000,4.564041015625,0.5922670364379883,4.431102275848389,3.0269250869750977
1768416548324042200,4.574042236328125,0.7986431121826172,3.8282556533813477,4.709294319152832
1768416548334044200,4.584044189453125,0.6975226402282715,2.746229648590088,5.831428050994873
1768416548344046000,4.594046142578125,0.6049535274505615,2.0103342533111572,5.851845741271973
1768416548354047200,4.604047119140625,0.5068666338920593,1.6793571710586548,5.1996893882751465
1768416548364049200,4.614049072265625,0.5719439387321472,2.013491153717041,4.611697673797607
1768416548374050000,4.624050048828125,0.8339939117431641,2.3480048179626465,4.212981224060059
1768416548384052200,4.63405224609375,1.389014482498169,2.1798319816589355,4.273283958435059
1768416548394053000,4.64405322265625,2.05083966255188,1.8284566402435303,4.7238850593566895
1768416548404055000,4.654054931640625,2.6111199855804443,1.6681740283966064,4.972070693969727
1768416548414056200,4.66405615234375,2.7756831645965576,1.889211893081665,4.591371059417725
1768416548424058000,4.67405810546875,2.4965860843658447,2.3522493839263916,3.6266489028930664
1768416548434060000,4.68406005859375,1.9863865375518799,2.61602783203125,2.859480857849121
1768416548444061200,4.694061279296875,1.7978662252426147,2.837921619415283,2.534433603286743
1768416548454063000,4.70406298828125,1.7936387062072754,3.2252540588378906,2.180121898651123
1768416548464064000,4.71406396484375,1.8289740085601807,4.093936443328857,1.8695950508117676
1768416548474066200,4.724066162109375,1.8312395811080933,5.432239055633545,1.6075249910354614
1768416548484067300,4.7340673828125,1.7830995321273804,6.907437801361084,1.5474169254302979
1768416548494069000,4.744069091796875,1.7462027072906494,8.043171882629395,1.8633365631103516
1768416548504070400,4.7540703125,1.8760558366775513,7.977962017059326,2.285073757171631
1768416548514072000,4.764072021484375,2.2053864002227783,7.110772132873535,2.2573413848876953
1768416548524074200,4.77407421875,2.1948952674865723,7.04380464553833,1.8528109788894653
1768416548534075100,4.7840751953125,1.9318228960037231,7.4753098487854,1.1791383028030396
1768416548544077000,4.7940771484375,1.7492024898529053,7.031744003295898,0.23858647048473358
1768416548554078200,4.804078125,1.6125186681747437,5.594948768615723,-0.6848273277282715
1768416548564080000,4.814080078125,1.432187795639038,4.07557487487793,-1.3866033554077148
1768416548574081300,4.824081298828125,0.9151716232299805,2.8106272220611572,-1.636014461517334
1768416548584083200,4.834083251953125,0.5219276547431946,1.4486587047576904,-0.8417724967002869
1768416548594084400,4.84408447265625,-0.2533254623413086,0.14639103412628174,1.9518065452575684
1768416548604086300,4.854086181640625,-2.1282970905303955,0.3461478352546692,3.690423011779785
1768416548614088200,4.864088134765625,-2.523240566253662,0.11056911945343018,3.1505813598632812
1768416548624089300,4.87408935546875,-1.1066735982894897,0.9516180157661438,1.2237374782562256
1768416548634091300,4.88409130859375,0.3035351037979126,3.637676954269409,0.0976186990737915
1768416548644092400,4.894092529296875,1.2067962884902954,5.057861804962158,0.08846861124038696
1768416548654094300,4.90409423828125,1.8039547204971313,5.0158281326293945,0.7718954086303711
1768416548664095200,4.91409521484375,1.9413381814956665,3.2963573932647705,1.6352506875991821
1768416548674097400,4.924097412109375,1.4657244682312012,1.0110467672348022,2.04929518699646
1768416548684098300,4.934098388671875,1.0848604440689087,0.5396578907966614,1.5477937459945679
1768416548694100200,4.944100341796875,0.8989822268486023,1.2541717290878296,-0.012463593855500221
1768416548704102400,4.954102294921875,0.6577999591827393,1.4073234796524048,-0.9302061796188354
1768416548714103300,4.964103271484375,0.038600124418735504,0.8182980418205261,-0.8405234813690186
1768416548724105200,4.974105224609375,-0.5857945084571838,0.45472195744514465,-0.46100756525993347
1768416548734106400,4.9841064453125,-0.7512428760528564,0.1808997392654419,-0.40981733798980713
1768416548744108300,4.9941083984375,-0.678138792514801,0.16477377712726593,-0.3061053454875946
1768416548754109200,5.004109130859375,-0.6361005306243896,0.3890223205089569,0.07751583307981491
1768416548764111400,5.014111328125,-0.6018270254135132,0.4220641553401947,0.46028798818588257
1768416548774112300,5.0241123046875,-0.6649795770645142,0.33070576190948486,0.5563452839851379
1768416548784114200,5.0341142578125,-0.6694287061691284,0.20318268239498138,0.42781391739845276
1768416548794116400,5.044116455078125,-0.6308645009994507,0.20086918771266937,0.2135210633277893
1768416548804117200,5.0541171875,-0.5575181245803833,0.2600126564502716,-0.08887874335050583
1768416548814119200,5.064119140625,-0.46697622537612915,0.28427380323410034,-0.36276620626449585
1768416548824120300,5.074120361328125,-0.3396318554878235,0.2521057426929474,-0.47401896119117737
1768416548834122200,5.084122314453125,-0.2455759346485138,0.22091293334960938,-0.347881019115448
1768416548844123100,5.094123046875,-0.19728536903858185,0.16387628018856049,-0.08039151132106781
1768416548854125300,5.104125244140625,-0.1704774647951126,0.15850043296813965,0.08019869774580002
1768416548864126200,5.114126220703125,-0.10592243820428848,0.09062790125608444,0.09958464652299881
1768416548874128100,5.124128173828125,-0.05159102380275726,-0.14563123881816864,0.03831303492188454
1768416548884130300,5.13413037109375,-0.04610650986433029,-0.16656394302845,-0.04421832785010338
1768416548894131200,5.144131103515625,0.0029382656794041395,-0.019933760166168213,-0.17584693431854248
1768416548904133400,5.15413330078125,0.1180398240685463,0.21989400684833527,-0.1944861263036728
1768416548914134300,5.16413427734375,0.36361363530158997,0.5600340366363525,-0.062308114022016525
1768416548924136200,5.17413623046875,0.6124618053436279,0.8498690128326416,-0.06069770082831383
1768416548934137000,5.18413720703125,0.695768415927887,0.8562542200088501,-0.2442273199558258
1768416548944139300,5.19413916015625,0.6140101552009583,0.5884073376655579,-0.34197038412094116
1768416548954140200,5.20414013671875,0.4910973012447357,0.313665509223938,-0.328529953956604
1768416548964142300,5.214142333984375,0.35359349846839905,0.13622921705245972,-0.35549843311309814
1768416548974144300,5.224144287109375,0.1812763214111328,0.013186375610530376,-0.42257070541381836
1768416548984145200,5.234145263671875,-0.015366706065833569,-0.03639635816216469,-0.3885011374950409
1768416548994147300,5.244147216796875,-0.18668386340141296,-0.05969182774424553,-0.29139962792396545
1768416549004148200,5.254148193359375,-0.31883975863456726,-0.057317350059747696,-0.248844176530838
1768416549014150100,5.264150146484375,-0.35198068618774414,-0.056839846074581146,-0.27354153990745544
1768416549024151000,5.274151123046875,-0.3326229453086853,-0.020169716328382492,-0.32010236382484436
1768416549034153200,5.2841533203125,-0.2845984399318695,-0.01318397931754589,-0.3668546974658966
1768416549044154000,5.294154052734375,-0.25876763463020325,0.06617742031812668,-0.4127715826034546
1768416549054156300,5.30415625,-0.22530874609947205,0.18440739810466766,-0.40067923069000244
1768416549064158200,5.314158203125,-0.20253393054008484,0.27884361147880554,-0.3941800594329834
1768416549074159000,5.3241591796875,-0.16117477416992188,0.3289576470851898,-0.4385078549385071
1768416549084161300,5.334161376953125,-0.12590813636779785,0.2677885591983795,-0.4686068892478943
1768416549094162200,5.344162109375,-0.09375631809234619,0.17107240855693817,-0.41709762811660767
1768416549104164000,5.3541640625,-0.0896153673529625,0.11638066917657852,-0.31645146012306213
1768416549114165200,5.364165283203125,-0.12383326143026352,0.10698690265417099,-0.23803333938121796
1768416549124167200,5.374167236328125,-0.1769697219133377,0.11448530107736588,-0.18530620634555817
1768416549134168000,5.38416796875,-0.2226027101278305,0.1408924013376236,-0.14561951160430908
1768416549144170200,5.394170166015625,-0.2562839686870575,0.16748246550559998,-0.1265755146741867
1768416549154171100,5.404171142578125,-0.2693617045879364,0.17932634055614471,-0.12750709056854248
1768416549164173000,5.414173095703125,-0.2613588869571686,0.18269364535808563,-0.10736799985170364
1768416549174175200,5.42417529296875,-0.22518305480480194,0.19585153460502625,-0.03979481756687164
1768416549184176000,5.434176025390625,-0.1803969442844391,0.22685818374156952,0.034090060740709305
1768416549194178000,5.444177978515625,-0.13316631317138672,0.23800750076770782,0.0724979043006897
1768416549204179200,5.45417919921875,-0.09481306374073029,0.2052530199289322,0.0692448541522026
1768416549214181000,5.46418115234375,-0.07090320438146591,0.14620967209339142,0.03837508708238602
1768416549224182000,5.47418212890625,-0.05001123622059822,0.07250881940126419,-0.01594061776995659
1768416549234184200,5.48418408203125,-0.0393090546131134,0.007772701792418957,-0.06509272009134293
1768416549244185000,5.49418505859375,-0.023369237780570984,-0.05447496101260185,-0.08878979086875916
1768416549254187000,5.50418701171875,-0.012348544783890247,-0.10429338365793228,-0.09652600437402725
1768416549264189200,5.514189208984375,0.0037468012887984514,-0.16150633990764618,-0.09241835027933121
1768416549274190000,5.524190185546875,0.024444622918963432,-0.20842936635017395,-0.058583952486515045
1768416549284192500,5.534192626953125,0.04987994208931923,-0.2551819682121277,0.0008860336965881288
1768416549294193400,5.544193359375,0.07001104205846786,-0.29549211263656616,0.059121642261743546
1768416549304195600,5.554195556640625,0.08980205655097961,-0.3269277811050415,0.11167646199464798
1768416549314196500,5.564196533203125,0.0986754447221756,-0.3513346016407013,0.16574662923812866
1768416549324198400,5.574198486328125,0.10586144775152206,-0.37547722458839417,0.20425699651241302
1768416549334199600,5.584199462890625,0.109974704682827,-0.3833777606487274,0.2153562605381012
1768416549344201500,5.594201416015625,0.11290337890386581,-0.38897863030433655,0.19499851763248444
1768416549354202600,5.60420263671875,0.11441472917795181,-0.41029831767082214,0.13838690519332886
1768416549364204500,5.61420458984375,0.10623029619455338,-0.4388956129550934,0.07782182842493057
1768416549374206500,5.62420654296875,0.09706076979637146,-0.46496501564979553,0.0485512912273407
1768416549384207400,5.634207275390625,0.08960258960723877,-0.4837477505207062,0.043899014592170715
1768416549394209500,5.64420947265625,0.08946490287780762,-0.4967748820781708,0.07468914985656738
1768416549404210700,5.654210693359375,0.08561690151691437,-0.5396555066108704,0.12535525858402252
1768416549414212400,5.66421240234375,0.07839014381170273,-0.6030989289283752,0.180460587143898
1768416549424213800,5.6742138671875,0.07243158668279648,-0.6774485111236572,0.22008976340293884
1768416549434215400,5.68421533203125,0.06371533125638962,-0.764439582824707,0.22795327007770538
1768416549444216600,5.694216552734375,0.05474979802966118,-0.8587210774421692,0.2105010449886322
1768416549454218800,5.70421875,0.04610331356525421,-0.9564082622528076,0.19326986372470856
1768416549464220400,5.714220458984375,0.04627641662955284,-1.0077478885650635,0.17372891306877136
1768416549474221600,5.7242216796875,0.057490456849336624,-1.0070232152938843,0.13529710471630096
1768416549484223500,5.734223388671875,0.08978021889925003,-0.9881091713905334,0.08557082712650299
1768416549494224600,5.744224609375,0.12200073897838593,-0.9670243859291077,0.04749374836683273
1768416549504226600,5.7542265625,0.1461886316537857,-0.9447313547134399,0.02732935920357704
1768416549514227700,5.764227783203125,0.15934652090072632,-0.9328398108482361,0.010272078216075897
1768416549524229600,5.774229736328125,0.1661980301141739,-0.9311417937278748,-0.023787887766957283
1768416549534230500,5.78423046875,0.17002925276756287,-0.9381091594696045,-0.07745244354009628
1768416549544232700,5.794232666015625,0.1696004867553711,-0.9314946532249451,-0.12276346981525421
1768416549554233600,5.804233642578125,0.16588138043880463,-0.9159827828407288,-0.14304929971694946
1768416549564235800,5.81423583984375,0.16126957535743713,-0.8947281241416931,-0.1477292776107788
1768416549574237700,5.82423779296875,0.15427106618881226,-0.8832908868789673,-0.14621925354003906
1768416549584238600,5.834238525390625,0.13828809559345245,-0.8715660572052002,-0.13813017308712006
1768416549594240800,5.84424072265625,0.12885811924934387,-0.8556962609291077,-0.11550289392471313
1768416549604241700,5.85424169921875,0.1290341466665268,-0.8427799344062805,-0.07935447990894318
1768416549614243600,5.86424365234375,0.1198694109916687,-0.8379186391830444,-0.04291630908846855
1768416549624244700,5.87424462890625,0.11541873961687088,-0.8343145847320557,-0.030410636216402054
1768416549634246700,5.88424658203125,0.1017998680472374,-0.8371649384498596,-0.024475781247019768
1768416549644247600,5.89424755859375,0.07908416539430618,-0.8337600827217102,-0.018969962373375893
1768416549654249700,5.904249755859375,0.05938742682337761,-0.8172213435173035,-0.009689378552138805
1768416549664250600,5.914250732421875,0.04963093623518944,-0.7776765823364258,0.0010783139150589705
1768416549674252500,5.92425244140625,0.04368383064866066,-0.7323399782180786,0.019275426864624023
1768416549684254700,5.934254638671875,0.04090455546975136,-0.6899096965789795,0.05284537002444267
1768416549694255600,5.944255615234375,0.02432025410234928,-0.6577792167663574,0.09224444627761841
1768416549704257500,5.954257568359375,0.01672838069498539,-0.6438082456588745,0.11562246829271317
1768416549714258700,5.9642587890625,0.0014583469601348042,-0.6270554065704346,0.11826805025339127
1768416549724260600,5.974260498046875,-0.02021791972219944,-0.6077956557273865,0.1020592600107193
1768416549734261500,5.984261474609375,-0.02840421162545681,-0.5689798593521118,0.07343560457229614
1768416549744263700,5.994263671875,-0.029198898002505302,-0.508152186870575,0.054657917469739914
1768416549754264600,6.0042646484375,-0.02490321919322014,-0.43569260835647583,0.05607898160815239
1768416549764266500,6.0142666015625,-0.02130528911948204,-0.3609563410282135,0.07568730413913727
1768416549774267600,6.024267578125,-0.014327007345855236,-0.2955608069896698,0.08895410597324371
1768416549784269600,6.03426953125,-0.01188222598284483,-0.23576858639717102,0.09406391531229019
1768416549794271500,6.044271484375,-0.016217585653066635,-0.19301792979240417,0.09186680614948273
1768416549804272600,6.054272705078125,-0.020134828984737396,-0.1529807597398758,0.08869151771068573
1768416549814274600,6.064274658203125,-0.025772741064429283,-0.11273826658725739,0.08347571641206741
1768416549824275500,6.074275390625,-0.026557840406894684,-0.07509421557188034,0.07498742640018463
1768416549834277600,6.084277587890625,-0.0254017636179924,-0.03045005165040493,0.06748982518911362
1768416549844278500,6.094278564453125,-0.019306853413581848,0.025195367634296417,0.05596712976694107
1768416549854280400,6.104280517578125,-0.008775915019214153,0.08619240671396255,0.050518300384283066
1768416549864281600,6.114281494140625,-0.0023821976501494646,0.14028094708919525,0.04825035482645035
1768416549874283500,6.124283447265625,0.00010120012302650139,0.17676039040088654,0.04303108900785446
1768416549884285700,6.13428564453125,-0.0016221314435824752,0.20651429891586304,0.037642981857061386
1768416549894286600,6.14428662109375,-0.006157494615763426,0.22814396023750305,0.030783744528889656
1768416549904288500,6.15428857421875,-0.010151970200240612,0.25054752826690674,0.026925623416900635
1768416549914289400,6.164289306640625,-0.015806926414370537,0.2735433876514435,0.030189061537384987
1768416549924291600,6.17429150390625,-0.021015269681811333,0.30321019887924194,0.044924329966306686
1768416549934292500,6.18429248046875,-0.023503195494413376,0.3406103253364563,0.053586263209581375
1768416549944294700,6.194294677734375,-0.025053687393665314,0.37279728055000305,0.04514910280704498
1768416549954295600,6.204295654296875,-0.025975940749049187,0.39598700404167175,0.02702203020453453
1768416549964297500,6.21429736328125,-0.02942606620490551,0.41637006402015686,0.019115371629595757
1768416549974298400,6.22429833984375,-0.0323166623711586,0.43041104078292847,0.02731844037771225
1768416549984300500,6.234300537109375,-0.0329667367041111,0.44558945298194885,0.038241129368543625
1768416549994301400,6.244301513671875,-0.03193316608667374,0.4626379609107971,0.042031340301036835
1768416550004303600,6.2543037109375,-0.02959544211626053,0.4782198369503021,0.040291231125593185
1768416550014305500,6.264305419921875,-0.028372518718242645,0.4908711910247803,0.032049812376499176
1768416550024306400,6.274306396484375,-0.028194619342684746,0.49667900800704956,0.025063540786504745
1768416550034308600,6.28430859375,-0.021436316892504692,0.4984356164932251,0.015750201418995857
1768416550044309500,6.2943095703125,-0.01871350035071373,0.49117904901504517,0.009043828584253788
1768416550054311400,6.3043115234375,-0.013287043198943138,0.4879366457462311,0.00986488163471222
1768416550064312600,6.3143125,-0.01019830908626318,0.48223188519477844,0.016400011256337166
1768416550074314500,6.324314453125,-0.008563394658267498,0.4696628451347351,0.023936491459608078
1768416550084315600,6.334315673828125,-0.0026517093647271395,0.45298850536346436,0.028487300500273705
1768416550094317600,6.344317626953125,-0.0003057308786083013,0.429142564535141,0.030792534351348877
1768416550104318700,6.354318603515625,0.0010338390711694956,0.40431472659111023,0.03635534271597862
1768416550114320600,6.364320556640625,-0.0021518340799957514,0.37187501788139343,0.04123185947537422
1768416550124322600,6.374322509765625,-0.004938299767673016,0.342647910118103,0.046359509229660034
1768416550134323700,6.38432373046875,-0.006899984087795019,0.31614330410957336,0.051842689514160156
1768416550144325400,6.394325439453125,-0.0057191383093595505,0.294907808303833,0.057260360568761826
1768416550154326800,6.404326904296875,-0.006654973141849041,0.28178295493125916,0.06682509928941727
1768416550164328400,6.414328369140625,-0.007006244268268347,0.2588733732700348,0.07333413511514664
1768416550174329600,6.42432958984375,-0.010781807824969292,0.22662141919136047,0.08114678412675858
1768416550184331800,6.434331787109375,-0.012483567930758,0.1957830786705017,0.08751147240400314
1768416550194332700,6.444332763671875,-0.015442606061697006,0.15815235674381256,0.09643838554620743
1768416550204334600,6.45433447265625,-0.011729626916348934,0.12787939608097076,0.10362333059310913
1768416550214335700,6.464335693359375,-0.011415107175707817,0.09243565797805786,0.1069440245628357
1768416550224337700,6.474337646484375,-0.005862682592123747,0.05976319685578346,0.10778585076332092
1768416550234339600,6.484339599609375,-0.003743072971701622,0.034394193440675735,0.10181078314781189
1768416550244340700,6.4943408203125,0.004647482186555862,0.010923754423856735,0.08672796934843063
1768416550254342700,6.5043427734375,0.010721620172262192,-0.010948521085083485,0.06949891895055771
1768416550264343600,6.514343505859375,0.014591725543141365,-0.035844817757606506,0.059781309217214584
1768416550274345700,6.524345703125,0.01477814745157957,-0.05935200676321983,0.05288878083229065
1768416550284346000,6.53434619140625,0.01506789866834879,-0.08290180563926697,0.04881734028458595
1768416550294348000,6.54434814453125,0.01672944612801075,-0.10654694586992264,0.041323471814394
1768416550304349000,6.554348876953125,0.01745249330997467,-0.12730176746845245,0.030955253168940544
1768416550314351000,6.56435107421875,0.021212344989180565,-0.1497655212879181,0.02172127366065979
1768416550324352000,6.57435205078125,0.02161315083503723,-0.16435325145721436,0.01369184348732233
1768416550334354000,6.58435400390625,0.024756744503974915,-0.1759990006685257,0.009050752967596054
1768416550344355000,6.59435498046875,0.02912619337439537,-0.1888229101896286,-0.00026525085559114814
1768416550354357000,6.60435693359375,0.03111344389617443,-0.1956872045993805,-0.002710299100726843
1768416550364359000,6.61435888671875,0.03404238820075989,-0.1995980590581894,-0.0013259878614917397
1768416550374360000,6.624360107421875,0.03736388310790062,-0.19700920581817627,0.0016077503096312284
1768416550384362000,6.634362060546875,0.037583060562610626,-0.19634021818637848,0.000592287047766149
1768416550394363000,6.64436279296875,0.038485605269670486,-0.1943574994802475,-0.002156361471861601
1768416550404365000,6.654364990234375,0.03993995860219002,-0.1861155480146408,-0.009134642779827118
1768416550414366000,6.664365966796875,0.04249180108308792,-0.17376060783863068,-0.015549398958683014
1768416550424367900,6.674367919921875,0.044265732169151306,-0.15816646814346313,-0.02076466754078865
1768416550434369000,6.684369140625,0.04181269556283951,-0.1423531472682953,-0.026163693517446518
1768416550444371000,6.694370849609375,0.04146675020456314,-0.12058127671480179,-0.029856698587536812
1768416550454371800,6.704371826171875,0.03827574849128723,-0.0997319221496582,-0.03345036879181862
1768416550464374000,6.7143740234375,0.038490135222673416,-0.07921892404556274,-0.031313713639974594
1768416550474375000,6.724375,0.035598475486040115,-0.06077440083026886,-0.029740851372480392
1768416550484376800,6.734376953125,0.03287326171994209,-0.04736804962158203,-0.027895547449588776
1768416550494379000,6.74437890625,0.029355226084589958,-0.03345596045255661,-0.02754853665828705
1768416550504380000,6.7543798828125,0.023485884070396423,-0.020729780197143555,-0.02076227031648159
1768416550514381800,6.7643818359375,0.017676731571555138,-0.01164467167109251,-0.017671670764684677
1768416550524383000,6.774383056640625,0.009995908476412296,-0.0024857944808900356,-0.01587856560945511
1768416550534385000,6.784385009765625,0.005464806687086821,0.00708693778142333,-0.014260961674153805
1768416550544385800,6.7943857421875,0.0006442186422646046,0.016623983159661293,-0.012944826856255531
1768416550554388000,6.804387939453125,-0.0037001960445195436,0.029568545520305634,-0.01377946138381958
1768416550564388900,6.814388916015625,-0.006060821935534477,0.03971465677022934,-0.01582104153931141
1768416550574390800,6.824390869140625,-0.006358297076076269,0.05042029544711113,-0.018150242045521736
1768416550584392200,6.83439208984375,-0.006081328261643648,0.05957784131169319,-0.01787673495709896
1768416550594393900,6.844393798828125,-0.005662146955728531,0.06555184721946716,-0.013669739477336407
1768416550604395000,6.85439501953125,-0.006598780397325754,0.06757505238056183,-0.012679309584200382
1768416550614397000,6.86439697265625,-0.00939083844423294,0.06596063822507858,-0.020648552104830742
1768416550624398800,6.87439892578125,-0.008250473067164421,0.06512973457574844,-0.02700764872133732
1768416550634400000,6.88439990234375,-0.008416121825575829,0.06318349391222,-0.02889183536171913
1768416550644402000,6.89440185546875,-0.007381483446806669,0.06443491578102112,-0.022058164700865746
1768416550654403000,6.904403076171875,-0.007430485915392637,0.06323303282260895,-0.01546550914645195
1768416550664405000,6.914405029296875,-0.006728476379066706,0.06119624525308609,-0.014532869681715965
1768416550674406100,6.92440625,-0.0035361452028155327,0.05722254142165184,-0.018854381516575813
1768416550684408000,6.934407958984375,-0.002951315138489008,0.049921222031116486,-0.021220333874225616
1768416550694409000,6.944408935546875,-0.002831739140674472,0.04150989279150963,-0.02365233190357685
1768416550704411100,6.9544111328125,-0.000045806369598722085,0.029740318655967712,-0.02237987332046032
1768416550714412000,6.964412109375,0.001995772821828723,0.01908314786851406,-0.016700949519872665
1768416550724414200,6.974414306640625,0.003175020683556795,0.006483998149633408,-0.003979561384767294
1768416550734415000,6.9844150390625,0.0003685815026983619,-0.008628109470009804,0.009299226105213165
1768416550744417000,6.9944169921875,0.001973402453586459,-0.021201690658926964,0.012894493527710438
1768416550754419200,7.004419189453125,0.001258876291103661,-0.03394119068980217,0.010025469586253166
1768416550764420000,7.014420166015625,0.0024642229545861483,-0.04529397934675217,0.004059722647070885
1768416550774422000,7.024422119140625,0.003906324505805969,-0.051359329372644424,-0.0034708979073911905
1768416550784423200,7.034423095703125,0.007194529753178358,-0.057494450360536575,-0.007515707053244114
1768416550794425000,7.044425048828125,0.008725847117602825,-0.06117653846740723,-0.011520301923155785
1768416550804426000,7.054426025390625,0.0067846691235899925,-0.06427912414073944,-0.013086507096886635
1768416550814428200,7.06442822265625,0.008438225835561752,-0.0675944909453392,-0.017355287447571754
1768416550824429000,7.074428955078125,0.011848137713968754,-0.06890396773815155,-0.019752399995923042
1768416550834431000,7.084430908203125,0.01128168310970068,-0.07028268277645111,-0.020145747810602188
1768416550844432100,7.09443212890625,0.011256915517151356,-0.06795907765626907,-0.0166732519865036
1768416550854434000,7.10443408203125,0.011171428486704826,-0.06668129563331604,-0.015417572110891342
1768416550864435000,7.11443505859375,0.011357583105564117,-0.06640218943357468,-0.008517853915691376
1768416550874437000,7.12443701171875,0.012263590469956398,-0.06858251988887787,-0.0047849016264081
1768416550884438000,7.13443798828125,0.010428406298160553,-0.06783470511436462,0.0013635384384542704
1768416550894440000,7.14443994140625,0.010642523877322674,-0.06312384456396103,0.00526666734367609
1768416550904442000,7.154442138671875,0.01047607697546482,-0.061163220554590225,0.008343683555722237
1768416550914443000,7.164443115234375,0.011081946082413197,-0.05420305207371712,0.007364439312368631
1768416550924445000,7.17444482421875,0.012194614857435226,-0.050396326929330826,0.006724481470882893
1768416550934446000,7.184446044921875,0.012062255293130875,-0.04626816138625145,0.001107076066546142
1768416550944448000,7.194447998046875,0.010381801053881645,-0.04234319552779198,-0.0015624766238033772
1768416550954449000,7.204448974609375,0.01053519919514656,-0.03719157725572586,-0.0026969832833856344
1768416550964451000,7.214451171875,0.011946408078074455,-0.03127856180071831,-0.003683950752019882
1768416550974452000,7.224451904296875,0.01197809912264347,-0.02647395245730877,-0.003287405939772725
1768416550984454000,7.234453857421875,0.009946640580892563,-0.022156966850161552,-0.0009084042394533753
1768416550994455000,7.244455078125,0.010268616490066051,-0.01817554235458374,-0.0019409117521718144
1768416551004457000,7.25445703125,0.0075756278820335865,-0.015096395276486874,-0.0065345983020961285
1768416551014457900,7.264457763671875,0.006885869428515434,-0.01215599849820137,-0.010244647972285748
1768416551024460000,7.2744599609375,0.005007808096706867,-0.007917577400803566,-0.01197836548089981
1768416551034461000,7.2844609375,0.006172408349812031,-0.006048304960131645,-0.013614878058433533
1768416551044462800,7.294462890625,0.006417685654014349,-0.004506601020693779,-0.011546934023499489
1768416551054465000,7.304465087890625,0.0071039823815226555,-0.0032413334120064974,-0.010462228208780289
1768416551064466000,7.3144658203125,0.0038578552193939686,-0.002263420494273305,-0.005612611770629883
1768416551074467800,7.3244677734375,0.004838963504880667,-0.002132392954081297,-0.00472657848149538
1768416551084469000,7.334468994140625,0.004656536970287561,-0.0002884203568100929,-0.0051902346312999725
1768416551094471000,7.344470947265625,0.003004844533279538,0.0002740392810665071,-0.007160174660384655
1768416551104471800,7.354471923828125,0.0051598744466900826,0.002139583695679903,-0.009899236261844635
1768416551114474000,7.364473876953125,0.0028905950020998716,-0.00037497308221645653,-0.009526393376290798
1768416551124475000,7.374474853515625,0.0026461167726665735,-0.002347576431930065,-0.008536762557923794
1768416551134476800,7.384476806640625,0.004614459350705147,-0.004494350403547287,-0.010554373264312744
1768416551144478200,7.394478271484375,0.0037907434161752462,-0.003733485471457243,-0.009735185652971268
1768416551154479900,7.40447998046875,0.004718055948615074,-0.004083424806594849,-0.010232397355139256
1768416551164481000,7.41448095703125,0.004860268905758858,-0.001139033935032785,-0.011241469532251358
1768416551174483000,7.42448291015625,0.005555620416998863,-0.000045540054998127744,-0.013648434542119503
1768416551184484000,7.434484130859375,0.0038663772866129875,-0.000934236915782094,-0.01299276389181614
1768416551194486000,7.444486083984375,0.0027286747936159372,-0.0033899378031492233,-0.011128018610179424
1768416551204487200,7.454487060546875,0.0006649913266301155,-0.009383381344377995,-0.007541273254901171
1768416551214489000,7.464489013671875,0.0017038905061781406,-0.009219597093760967,-0.0026437200140208006
1768416551224491000,7.474490966796875,0.002240517409518361,-0.012091816402971745,-0.001264468883164227
1768416551234492200,7.4844921875,0.0018109495285898447,-0.01173575222492218,-0.0006173207075335085
1768416551244494000,7.494494140625,0.0016128103015944362,-0.010606039315462112,0.0027292075101286173
1768416551254495000,7.504494873046875,0.0027087011840194464,-0.009870740585029125,0.007398793939501047
1768416551264497200,7.5144970703125,0.0024564997293055058,-0.009878196753561497,0.005449626594781876
1768416551274498000,7.524498046875,0.0008058725506998599,-0.013640977442264557,-0.002403502818197012
1768416551284500000,7.5345,0.003210440743714571,-0.014305968768894672,-0.012662798166275024
1768416551294500900,7.5445009765625,0.0032661007717251778,-0.012658803723752499,-0.015849269926548004
1768416551304503000,7.5545029296875,0.0037345506716519594,-0.01218476053327322,-0.011551993899047375
1768416551314504000,7.56450390625,0.002685797866433859,-0.006305566523224115,-0.0035308189690113068
1768416551324505900,7.574505859375,0.0008681904873810709,-0.006341519299894571,-0.003281813347712159
1768416551334507000,7.584507080078125,0.00007004113285802305,-0.006758836563676596,-0.00848749466240406
1768416551344509000,7.594509033203125,0.00042530681821517646,-0.011905661784112453,-0.011786884628236294
1768416551354509800,7.604509765625,-0.00016431703988928348,-0.016273511573672295,-0.01495205145329237
1768416551364512000,7.614511962890625,0.0034381409641355276,-0.02244911715388298,-0.017548101022839546
1768416551374514000,7.624513916015625,0.007020891644060612,-0.01913987286388874,-0.01465617399662733
1768416551384514800,7.634514892578125,0.005549228750169277,-0.01728072017431259,-0.013001818209886551
1768416551394517000,7.64451708984375,0.006852579768747091,-0.01546604186296463,-0.014237791299819946
1768416551404518000,7.654517822265625,0.005799033213406801,-0.013701165094971657,-0.020504210144281387
1768416551414519800,7.664519775390625,0.008567122742533684,-0.010686200112104416,-0.02959943749010563
1768416551424521000,7.67452099609375,0.006363889668136835,-0.008488559164106846,-0.04141268879175186
1768416551434523000,7.68452294921875,0.009848902001976967,-0.004563592839986086,-0.046186402440071106
1768416551444523800,7.694523681640625,0.011358914896845818,-0.00019893812714144588,-0.048893772065639496
1768416551454526000,7.70452587890625,0.013905162923038006,0.0034887411165982485,-0.04300898686051369
1768416551464526800,7.71452685546875,0.0161262396723032,0.007442736066877842,-0.037585459649562836
1768416551474528800,7.72452880859375,0.014631140977144241,0.00634897593408823,-0.03116484358906746
1768416551484530000,7.734530029296875,0.006682936567813158,0.002222141483798623,-0.026457706466317177
1768416551494531800,7.74453173828125,0.004775314126163721,0.0026399914640933275,-0.01960832253098488
1768416551504532700,7.75453271484375,0.0009701895760372281,0.0005331648280844092,-0.015796273946762085
1768416551514535000,7.764534912109375,0.0003539340978022665,0.0002061286650132388,-0.013736052438616753
1768416551524535800,7.774535888671875,-0.0017164073651656508,0.001437308033928275,-0.013037238270044327
1768416551534537700,7.784537841796875,-0.0005946838646195829,0.002292981604114175,-0.012118981219828129
1768416551544540000,7.794539794921875,-0.0013140037190169096,0.005095692351460457,-0.012501676566898823
1768416551554540800,7.804540771484375,0.00011930961773032323,0.006779342889785767,-0.008628109470009804
1768416551564542700,7.814542724609375,0.0015877765836194158,0.008041947148740292,-0.004307929426431656
1768416551574544000,7.8245439453125,0.00004261057620169595,0.010064885020256042,-0.00023302659974433482
1768416551584545800,7.8345458984375,0.0014889733865857124,0.012565060518682003,0.000945954816415906
1768416551594546700,7.844546630859375,0.0005038700764998794,0.013557620346546173,0.0007126618875190616
1768416551604548900,7.854548828125,-0.0000476705827168189,0.01317998394370079,-0.00013395700079854578
1768416551614549800,7.8645498046875,0.00037151097785681486,0.013496367260813713,0.0006804376607760787
1768416551624551700,7.8745517578125,0.0010207896120846272,0.011394334957003593,0.0022117553744465113
1768416551634552800,7.884552734375,-0.001532382913865149,0.012056929059326649,0.0036213663406670094
1768416551644554800,7.8945546875,-0.0002822950773406774,0.009526393376290798,0.006322077941149473
1768416551654556000,7.904555908203125,0.0006154565489850938,0.008986837230622768,0.006456833798438311
1768416551664557800,7.914557861328125,0.00014274542627390474,0.006822485942393541,0.0036709012929350138
1768416551674559000,7.92455908203125,0.0010197244118899107,0.00999218039214611,0.0014410364674404263
1768416551684561000,7.934560791015625,-0.00012223910016473383,0.0112196309491992,0.0008378304773941636
1768416551694562000,7.94456201171875,-0.0008234494016505778,0.010580206289887428,-0.00026498452643863857
1768416551704564000,7.95456396484375,-0.0009198558400385082,0.007870705798268318,-0.0015752597246319056
1768416551714565600,7.964565673828125,0.0030605047941207886,0.0054999603889882565,-0.0029025792609900236
1768416551724567000,7.974567138671875,0.003091131104156375,0.0029846045654267073,-0.0011970909545198083
1768416551734569000,7.98456884765625,0.0033217607997357845,0.0024141555186361074,-0.0006625944515690207
1768416551744569900,7.99456982421875,0.0007651261985301971,0.00003222424857085571,0.0005025385180488229
1768416551754572000,8.004572021484375,-0.0006514092092402279,-0.0004348942020442337,0.001728924224153161
1768416551764573000,8.014572998046875,-0.0026053704787045717,-0.004884503781795502,0.003456783015280962
1768416551774574800,8.024574951171875,-0.0025031049735844135,-0.004862932022660971,0.002816825406625867
1768416551784576000,8.034575927734375,-0.002228533150628209,-0.007787881884723902,0.0010626012226566672
1768416551794578000,8.044577880859375,-0.0023214775137603283,-0.008315720595419407,-0.0015507587231695652
1768416551804578800,8.054578857421875,-0.0017363809747621417,-0.0075942701660096645,-0.0037550569977611303
1768416551814581000,8.0645810546875,-0.002921487670391798,-0.006065881811082363,-0.004816859494894743
1768416551824582000,8.074581787109375,-0.0019118833588436246,-0.004959338344633579,-0.006353769451379776
1768416551834583800,8.084583740234375,-0.00003861583536490798,0.0003304982965346426,-0.0043899547308683395
1768416551844585000,8.0945849609375,0.000014913702216290403,0.002923884429037571,-0.0057494984939694405
1768416551854587000,8.1045869140625,0.0005648564547300339,0.0011313108261674643,-0.0033076461404561996
1768416551864587800,8.114587890625,0.0007198524544946849,-0.00022130868455860764,-0.003151052165776491
1768416551874590000,8.12458984375,0.0017323862994089723,0.00035712990211322904,-0.0008431567694060504
1768416551884590800,8.1345908203125,0.0014317154418677092,-0.0009720537927933037,0.0015670040156692266
1768416551894592800,8.1445927734375,0.0020506340079009533,0.0002825613773893565,0.004156661685556173
1768416551904595000,8.154594970703124,0.00023169501218944788,-0.001207743538543582,0.004742290824651718
1768416551914595800,8.164595947265624,-0.00010386328358436003,0.00005912217602599412,0.00629065278917551
1768416551924598000,8.174597900390625,-0.00045619948650710285,0.005474926438182592,0.012986904941499233
1768416551934599000,8.184598876953125,-0.002490854589268565,0.004251470323652029,0.015520104207098484
1768416551944600800,8.194600830078125,-0.001651692553423345,0.005677592940628529,0.01125158928334713
1768416551954601700,8.204601806640625,-0.002299639629200101,0.0073535204865038395,0.004357197787612677
1768416551964604000,8.21460400390625,-0.0018490327056497335,0.007439806591719389,0.0019038938917219639
1768416551974604800,8.224604736328125,-0.000024767397917457856,0.011035873554646969,0.00344506511464715
1768416551984607000,8.23460693359375,-0.001059405505657196,0.015569638460874557,0.004209392238408327
1768416551994607900,8.24460791015625,-0.003996073268353939,0.01654968224465847,0.00013129384024068713
1768416552004609800,8.25460986328125,-0.003698598127812147,0.013679592870175838,-0.005692773032933474
1768416552014610700,8.264610595703125,-0.004288222175091505,0.010420682840049267,-0.009020392782986164
1768416552024612900,8.27461279296875,-0.004090082831680775,0.004588892683386803,-0.009067264385521412
1768416552034613800,8.28461376953125,-0.001118793967179954,0.003984888084232807,-0.006659500766545534
1768416552044616000,8.294615966796876,-0.0001805623178370297,0.004512459971010685,-0.0010921623324975371
1768416552054616800,8.304616943359376,-0.00027057717670686543,0.004230963997542858,0.006976150441914797
1768416552064618800,8.31461865234375,0.0008072041091509163,0.005166266113519669,0.011927499435842037
1768416552074619600,8.32461962890625,0.00007376955909421667,0.007136738859117031,0.010611631907522678
1768416552084621800,8.334621826171874,-0.0006836334359832108,0.005006476305425167,0.001341966912150383
1768416552094623000,8.344623046875,-0.00199284334667027,0.005328719038516283,-0.010785003192722797
1768416552104625000,8.354625,-0.0013608753215521574,0.002728142309933901,-0.020005133002996445
1768416552114626800,8.364626708984375,0.0006213154993019998,0.0052229915745556355,-0.02105894684791565
1768416552124627700,8.374627685546875,0.00045140579459257424,0.005994243081659079,-0.019459452480077744
1768416552134630000,8.3846298828125,0.00004820321555598639,0.005799299571663141,-0.020601946860551834
1768416552144630800,8.394630859375,-0.0028490496333688498,0.002139317337423563,-0.024093884974718094
1768416552154632700,8.4046328125,-0.0009185242815874517,0.0031353395897895098,-0.02804228663444519
1768416552164634000,8.414634033203125,-0.0026261431630700827,0.004543619230389595,-0.027532026171684265
1768416552174635800,8.4246357421875,-0.0035217641852796078,0.00538384635001421,-0.0240187831223011
1768416552184637000,8.434636962890625,-0.001514806062914431,0.004554271697998047,-0.018614429980516434
1768416552194638800,8.444638916015625,-0.0018306568963453174,0.0025355955585837364,-0.013112606480717659
1768416552204640000,8.454639892578125,-0.0038874163292348385,0.0022690133191645145,-0.010627077892422676
1768416552214642000,8.464641845703126,-0.0029230855870991945,0.0006769755273126066,-0.007979363203048706
1768416552224642800,8.474642822265626,-0.001975000137463212,0.0014857775531709194,-0.002359027974307537
1768416552234645000,8.48464501953125,-0.002275671111419797,0.003498594742268324,0.004640558268874884
1768416552244646000,8.49464599609375,-0.0034013893455266953,0.0014572817599400878,0.006631803698837757
1768416552254648000,8.50464794921875,-0.002407231368124485,0.0040456079877913,0.010448645800352097
1768416552264649000,8.51464892578125,-0.005176119972020388,0.007169495802372694,0.010840130969882011
1768416552274651000,8.52465087890625,-0.003299390198662877,0.00881799217313528,0.008492820896208286
1768416552284652500,8.534652587890625,-0.003441869281232357,0.00999164767563343,0.008738097734749317
1768416552294654500,8.544654541015625,-0.0010351707460358739,0.011560249142348766,0.0041550640016794205
1768416552304655600,8.554655517578125,-0.003564907470718026,0.014407701790332794,0.006224073935300112
1768416552314657500,8.564657470703125,-0.0023869911674410105,0.015208779834210873,0.010084059089422226
1768416552324658400,8.574658447265625,-0.0017307883827015758,0.015430888161063194,0.010369284078478813
1768416552334660600,8.58466064453125,-0.0025569009594619274,0.015799470245838165,0.008024103939533234
1768416552344661500,8.59466162109375,-0.00192200334277004,0.019965719431638718,0.007766310125589371
1768416552354663400,8.604663330078125,-0.0036658411845564842,0.017406953498721123,0.00965449120849371
1768416552364665600,8.61466552734375,-0.0036301547661423683,0.016223976388573647,0.011716577224433422
1768416552374666500,8.62466650390625,-0.004220311529934406,0.01552516408264637,0.018935075029730797
1768416552384668400,8.63466845703125,-0.005661081522703171,0.01798139698803425,0.02671763114631176
1768416552394669600,8.644669677734376,-0.005416603293269873,0.022052571177482605,0.029266275465488434
1768416552404671500,8.65467138671875,-0.005402488633990288,0.028674522414803505,0.030855916440486908
1768416552414672400,8.66467236328125,-0.004191282670944929,0.03653484210371971,0.029516613110899925
1768416552424674600,8.674674560546874,-0.0020841897930949926,0.04096074774861336,0.02628939412534237
1768416552434675500,8.684675537109374,0.0010197244118899107,0.047150999307632446,0.023064838722348213
1768416552444677400,8.694677490234374,0.001050084363669157,0.048658084124326706,0.021527662873268127
1768416552454678500,8.704678466796874,-0.0018383801216259599,0.047620248049497604,0.022876553237438202
1768416552464680400,8.714680419921875,-0.004625378176569939,0.046719301491975784,0.024119451642036438
1768416552474681300,8.724681396484375,-0.004811266902834177,0.043244410306215286,0.025468608364462852
1768416552484683500,8.73468359375,-0.005153216887265444,0.04206729307770729,0.0234651118516922
1768416552494684400,8.744684326171875,-0.005839513149112463,0.03874979168176651,0.019817912951111794
1768416552504686300,8.754686279296875,-0.004685831721872091,0.037519145756959915,0.018616827204823494
1768416552514687500,8.7646875,-0.005630987696349621,0.03672312572598457,0.01955372840166092
1768416552524689400,8.774689453125,-0.0068001155741512775,0.03840837627649307,0.021769743412733078
1768416552534690300,8.784690185546875,-0.006655505858361721,0.038288265466690063,0.024928785860538483
1768416552544692500,8.7946923828125,-0.0060919807292521,0.03719503805041313,0.026673423126339912
1768416552554693400,8.804693359375,-0.006310360040515661,0.03724430873990059,0.02202434279024601
1768416552564695300,8.8146953125,-0.007808920927345753,0.037219807505607605,0.023120231926441193
1768416552574696400,8.824696533203126,-0.006141782272607088,0.033782996237277985,0.021457621827721596
1768416552584698400,8.834698486328126,-0.005303951445966959,0.032821595668792725,0.016578709706664085
1768416552594699300,8.84469921875,-0.004077565856277943,0.02936561219394207,0.017643708735704422
1768416552604701400,8.854701416015626,-0.004891428165137768,0.028783977031707764,0.01853267103433609
1768416552614702300,8.864702392578126,-0.004612861201167107,0.028331506997346878,0.01395736075937748
1768416552624704300,8.874704345703124,-0.00555215822532773,0.02322223223745823,0.005199822131544352
1768416552634706400,8.88470654296875,-0.0031902005430310965,0.019413910806179047,-0.0041398839093744755
1768416552644707300,8.894707275390624,-0.004114849958568811,0.01537869032472372,-0.006681604776531458
1768416552654709200,8.904709228515625,-0.0014977618120610714,0.015116368420422077,-0.006382265593856573
1768416552664710400,8.91471044921875,-0.0012207929976284504,0.013139237649738789,-0.008190818130970001
1768416552674712300,8.92471240234375,-0.002216282533481717,0.008220379240810871,-0.010975685901939869
1768416552684713500,8.93471337890625,-0.001508414396084845,0.0014149374328553677,-0.013294766657054424
1768416552694715400,8.94471533203125,-0.003427221905440092,-0.00549250328913331,-0.015518239699304104
1768416552704716500,8.954716552734375,-0.0019094864837825298,-0.018198711797595024,-0.019156916067004204
1768416552714718500,8.964718505859375,0.0010210559703409672,-0.025074725970625877,-0.019829098135232925
1768416552724719600,8.9747197265625,0.004800081718713045,-0.02864575944840908,-0.013369601219892502
1768416552734721500,8.984721435546875,0.004806472919881344,-0.0281557384878397,-0.005271194502711296
1768416552744722400,8.994722412109375,0.007620635442435741,-0.026064623147249222,-0.0027449200861155987
1768416552754724600,9.004724609375,0.008341020904481411,-0.02226162888109684,-0.0030298782512545586
1768416552764725500,9.0147255859375,0.010308830067515373,-0.01865863986313343,-0.010802846401929855
1768416552774727400,9.0247275390625,0.009020925499498844,-0.01900431700050831,-0.018439460545778275
1768416552784728600,9.034728515625,0.00806192122399807,-0.021256819367408752,-0.021395303308963776
1768416552794730500,9.04473046875,0.008667257614433765,-0.019710054621100426,-0.022168418392539024
1768416552804731400,9.0547314453125,0.007701595313847065,-0.019208315759897232,-0.02328295260667801
1768416552814733600,9.064733642578124,0.005932990461587906,-0.0181686170399189,-0.023670176044106483
1768416552824734500,9.074734375,0.004426706116646528,-0.021098626777529716,-0.02082352340221405
1768416552834736400,9.084736328125,0.0029324067290872335,-0.02100861258804798,-0.023082150146365166
1768416552844737500,9.094737548828125,0.0038400120101869106,-0.022042717784643173,-0.024172181263566017
1768416552854739500,9.104739501953125,0.001502555445767939,-0.022284531965851784,-0.031254060566425323
1768416552864740400,9.114740234375,-0.0003936151915695518,-0.02281343750655651,-0.03772420808672905
1768416552874742500,9.124742431640625,-0.0007155913626775146,-0.022043516859412193,-0.03883501514792442
1768416552884743400,9.134743408203125,-0.0025126924738287926,-0.01997690461575985,-0.030278276652097702
1768416552894745300,9.144745361328125,-0.0025960493367165327,-0.016698019579052925,-0.022852851077914238
1768416552904746500,9.15474658203125,-0.005169195588678122,-0.013229252770543098,-0.01495178509503603
1768416552914748400,9.16474853515625,-0.005176386330276728,-0.010041449218988419,-0.009737049229443073
1768416552924749300,9.174749267578125,-0.005825931206345558,-0.00815113727003336,-0.0068302094005048275
1768416552934751500,9.18475146484375,-0.005654956214129925,-0.00452737370505929,-0.008351407013833523
1768416552944752400,9.19475244140625,-0.0030597057193517685,-0.0018903117161244154,-0.007625162601470947
1768416552954754300,9.20475439453125,-0.0015478292480111122,0.000928111607208848,-0.006473612040281296
1768416552964756500,9.214756591796874,-0.0008442220860160887,0.004515655804425478,-0.007497331127524376
1768416552974757400,9.22475732421875,-0.00024474450037814677,0.0057039582170546055,-0.007010771427303553
1768416552984759600,9.234759521484374,-0.0003576625313144177,0.008742092177271843,-0.0076035913079977036
1768416552994760400,9.244760498046874,0.002453836612403393,0.011036405339837074,-0.007224357221275568
1768416553004762400,9.254762451171874,0.0009009473724290729,0.012226039543747902,-0.008851282298564911
1768416553014763300,9.26476318359375,0.0037942056078463793,0.014337659813463688,-0.010863566771149635
1768416553024765400,9.274765380859375,0.0041822283528745174,0.012112323194742203,-0.01041269302368164
1768416553034766300,9.284766357421875,0.0026351979468017817,0.012479572556912899,-0.012200473807752132
1768416553044768500,9.2947685546875,0.0041185785084962845,0.009750098921358585,-0.012372246943414211
1768416553054769400,9.304769287109375,0.0035598473623394966,0.008445416577160358,-0.011498730629682541
1768416553064771300,9.314771240234375,0.0032384039368480444,0.007125287316739559,-0.011127752251923084
1768416553074772500,9.3247724609375,0.002326537622138858,0.007439540233463049,-0.00896846130490303
1768416553084774400,9.3347744140625,0.0035052525345236063,0.005082643125206232,-0.008358597755432129
1768416553094775600,9.344775634765625,0.005673332139849663,0.007195328362286091,-0.0054791877046227455
1768416553104777500,9.354777587890625,0.0046573360450565815,0.004847219679504633,-0.004804342519491911
1768416553114778600,9.364778564453125,0.0004439489566721022,0.0046821036376059055,-0.003338006092235446
1768416553124780500,9.374780517578126,0.0025278725661337376,0.006153766065835953,-0.004117779433727264
1768416553134781400,9.384781494140626,0.0027776770293712616,0.006448045372962952,-0.003233077470213175
1768416553144783600,9.39478369140625,0.0018002968281507492,0.005739378277212381,-0.005276521202176809
1768416553154784500,9.404784423828126,0.002989931032061577,0.005396363325417042,-0.006167881190776825
1768416553164786400,9.414786376953124,0.0014484933344647288,0.004475708585232496,-0.00717721926048398
1768416553174787600,9.42478759765625,0.0006761765689589083,0.003054911969229579,-0.00863103847950697
1768416553184789500,9.43478955078125,0.0023398532066494226,0.0037063213530927896,-0.00890800729393959
1768416553194790400,9.444790283203124,0.0031736891251057386,0.003358512418344617,-0.009242766536772251
1768416553204792600,9.45479248046875,0.002490854589268565,0.000827177835162729,-0.009784719906747341
1768416553214793500,9.46479345703125,0.0008378304773941636,-0.0012950951931998134,-0.008298942819237709
1768416553224795400,9.47479541015625,0.0022895196452736855,-0.003020557342097163,-0.004635232035070658
1768416553234796500,9.484796630859375,0.0013281183782964945,-0.004487160127609968,-0.0008314388687722385
1768416553244798500,9.494798583984375,0.0008106662426143885,-0.00526666734367609,0.0022415826097130775
1768416553254799400,9.50479931640625,0.0009139968897216022,-0.007513043470680714,0.003908189013600349
1768416553264801500,9.514801513671875,0.0011968245962634683,-0.008249673992395401,0.0005448827287182212
1768416553274802400,9.524802490234375,0.002082591876387596,-0.0076115806587040424,-0.0009321063989773393
1768416553284804900,9.534804931640625,-0.0001603222917765379,-0.00589677132666111,0.0032887374982237816
1768416553294805800,9.5448056640625,0.0003323625132907182,-0.0041734399273991585,0.003480218816548586
1768416553304807700,9.5548076171875,-0.00013369068619795144,-0.006430202629417181,-0.0014887070283293724
1768416553314808600,9.56480859375,-0.00020160128769930452,-0.0067777447402477264,-0.008387093432247639
1768416553324810800,9.574810791015626,0.00027856664382852614,-0.006856841035187244,-0.016147544607520103
1768416553334811600,9.584811767578126,0.0019212043844163418,-0.0052046156488358974,-0.014882543124258518
1768416553344813800,9.594813720703126,0.001561944023706019,-0.0023782027419656515,-0.010548247955739498
1768416553354814700,9.604814697265626,0.00018695391190703958,-0.001924666459672153,-0.009671003557741642
1768416553364816600,9.614816650390624,0.0023646207991987467,0.0027225494850426912,-0.010264888405799866
1768416553374817500,9.624817626953124,0.0007009439868852496,0.005435245577245951,-0.01599947363138199
1768416553384819700,9.63481982421875,0.0018719359068199992,0.001318264752626419,-0.023308252915740013
1768416553394821600,9.644821533203125,0.004067446105182171,-0.0017092167399823666,-0.02712935581803322
1768416553404822500,9.654822509765625,0.006297843065112829,-0.0016793893883004785,-0.023069899529218674
1768416553414824700,9.66482470703125,0.008040882647037506,0.0007408913807012141,-0.016940901055932045
1768416553424825600,9.67482568359375,0.008652344346046448,0.004022438544780016,-0.006597449071705341
1768416553434827800,9.684827880859375,0.008826781064271927,0.0035079156514257193,-0.0029979203827679157
1768416553444828700,9.69482861328125,0.008167115971446037,0.004751878324896097,-0.004979046061635017
1768416553454830600,9.70483056640625,0.007355384528636932,0.0065409899689257145,-0.010657704435288906
1768416553464831500,9.71483154296875,0.008560997433960438,0.007321828510612249,-0.014532869681715965
1768416553474833700,9.724833740234375,0.018309498205780983,0.015607189387083054,-0.019036540761590004
1768416553484834600,9.73483447265625,0.017191769555211067,0.016761936247348785,-0.019176624715328217
1768416553494836700,9.744836669921876,0.013880928047001362,0.01344470214098692,-0.020108729600906372
1768416553504837600,9.754837646484376,0.011430553160607815,0.010995392687618732,-0.01997131109237671
1768416553514839600,9.764839599609376,0.006339921150356531,0.00923184771090746,-0.01986292004585266
1768416553524840700,9.7748408203125,0.004405933897942305,0.005431783385574818,-0.017174459993839264
1768416553534842600,9.784842529296874,0.0017297230660915375,0.003485811408609152,-0.015619972720742226
1768416553544843800,9.79484375,0.002828543307259679,0.002407231368124485,-0.012742693535983562
1768416553554845700,9.804845703125,-0.00012117382721044123,0.0027361316606402397,-0.009047823026776314
1768416553564846800,9.814846923828124,0.00026764770154841244,0.0015550197567790747,-0.007767109200358391
1768416553574848800,9.824848876953125,0.000002663161012605997,-0.0021973741240799427,-0.004584898240864277
1768416553584849700,9.834849609375,0.00079735042527318,-0.0027571707032620907,-0.006027265917509794
1768416553594851800,9.844851806640625,-0.0009563411585986614,-0.0021736719645559788,-0.0031766186002641916
1768416553604852700,9.854852783203125,-0.0002697782183531672,-0.0017124125733971596,-0.0010245180455967784
1768416553614855000,9.86485498046875,-0.0014769891276955605,-0.0011358382180333138,0.0036450685001909733
1768416553624855800,9.874855712890625,-0.0012202603975310922,-0.0009326389990746975,0.004418184049427509
1768416553634857700,9.884857666015625,-0.0011624698527157307,0.0009981527691707015,0.004971322603523731
1768416553644858600,9.894858642578125,-0.00098190747667104,-0.000401604687795043,0.0010399643797427416
1768416553654860800,9.90486083984375,0.00019627496658358723,-0.002013616031035781,-0.00159470085054636
1768416553664861700,9.91486181640625,0.000362988852430135,-0.0022972426377236843,-0.006659766659140587
1768416553674863900,9.92486376953125,0.002286856295540929,-0.0026290726382285357,-0.005428587552160025
1768416553684864800,9.93486474609375,0.0030977888964116573,-0.0038330876268446445,-0.0038983351550996304
1768416553694866700,9.94486669921875,0.0044996771030128,-0.006274141371250153,-0.0013667342718690634
1768416553704867600,9.95486767578125,0.003340402850881219,-0.00717588746920228,-0.00185036426410079
1768416553714869800,9.964869873046876,0.0024943165481090546,-0.006863498594611883,0.0007206514128483832
1768416553724870700,9.97487060546875,0.0006929545197635889,-0.007193997036665678,0.0002716424351092428
1768416553734872800,9.984872802734374,0.002892725635319948,-0.004938033409416676,-0.0012125372886657715
1768416553744873700,9.994873779296874,0.001990712946280837,-0.006698648910969496,-0.00031372037483379245
1768416553754875600,10.004875732421874,0.0013187973527237773,-0.006334861274808645,0.0017904432024806738
1768416553764876500,10.01487646484375,0.0011020160745829344,-0.0051683965139091015,0.002079662401229143
1768416553774878700,10.024878662109375,0.0011440940434113145,-0.005013667047023773,0.00012783173588104546
1768416553784879600,10.034879638671875,-0.0012476909905672073,-0.004567853640764952,-0.0036506610922515392
1768416553794881800,10.0448818359375,-0.00047590688336640596,-0.0020516992080956697,-0.006393717136234045
1768416553804882700,10.054882568359375,-0.00013795174891129136,-0.0022386531345546246,-0.00851465854793787
1768416553814884600,10.064884521484375,-0.003409378696233034,0.0006785734440200031,-0.011655590496957302
1768416553824885500,10.074885498046875,-0.0022040321491658688,0.0006274407496675849,-0.009236108511686325
1768416553834887700,10.0848876953125,-0.001475391210988164,0.003376355627551675,-0.008807073347270489
1768416553844888600,10.094888671875,-0.0012277172645553946,0.0015393070643767715,-0.0073199644684791565
1768416553854890800,10.104890869140625,-0.00101120222825557,0.004239219706505537,-0.005815278738737106
1768416553864891600,10.1148916015625,-0.0014532869681715965,0.005335909314453602,-0.003894606838002801
1768416553874893600,10.1248935546875,-0.0023529028985649347,0.005803560372442007,-0.0032386700622737408
1768416553884894700,10.134894775390626,-0.001368598430417478,0.011055846698582172,-0.0027451864443719387
1768416553894896600,10.144896728515626,0.0005382248782552779,0.012613263912498951,-0.006405701395124197
1768416553904897800,10.154897705078126,0.0003275688213761896,0.013411945663392544,-0.006178267300128937
1768416553914899700,10.164899658203124,-0.00012064119800925255,0.01780855841934681,-0.0047058057971298695
1768416553924900900,10.17490087890625,-0.00010120012302650139,0.017169665545225143,0.0005581985460594296
1768416553934902800,10.18490283203125,-0.0009068063227459788,0.018306568264961243,0.00675191218033433
1768416553944903700,10.194903564453124,-0.001288171042688191,0.016930779442191124,0.007622499484568834
1768416553954905900,10.20490576171875,-0.00407570181414485,0.015241803601384163,0.00860600546002388
1768416553964906800,10.21490673828125,-0.001148088718764484,0.01311979629099369,0.006184658966958523
1768416553974908700,10.22490869140625,-0.002796585438773036,0.011511513963341713,0.0021427792962640524
1768416553984909800,10.234909912109375,-0.0019390475936233997,0.00845553632825613,-0.0027076357509940863
1768416553994911700,10.244911865234375,0.001044758129864931,0.00732449209317565,-0.002721750643104315
1768416554004912600,10.25491259765625,0.002013616031035781,0.006075735669583082,-0.000030892668291926384
1768416554014914800,10.264914794921875,0.00007350324449362233,0.006314887665212154,0.0027481159195303917
1768416554024915700,10.274915771484375,-0.0025214808993041515,0.0031641016248613596,-0.0010282464791089296
1768416554034917600,10.284917724609375,-0.002400839701294899,-0.000892425247002393,-0.007991347461938858
1768416554044918800,10.294918701171875,-0.003910852130502462,-0.003694869577884674,-0.011832424439489841
1768416554054920700,10.304920654296875,-0.005370797123759985,-0.0012314456980675459,-0.006312224548310041
1768416554064921600,10.314921630859375,-0.0031531827989965677,-0.0007728493656031787,0.0004625910660251975
1768416554074923800,10.324923828125,-0.0031401331070810556,0.0013038836186751723,0.0007637945818714797
1768416554084924700,10.334924560546876,-0.003993942867964506,0.002386725042015314,-0.004599012900143862
1768416554094926600,10.344926513671876,-0.0026088326703757048,0.0010519486386328936,-0.009764480404555798
1768416554104927700,10.354927734375,-0.0013757890556007624,-0.004422445315867662,-0.017244234681129456
1768416554114929700,10.3649296875,-0.0029116340447217226,-0.005337507463991642,-0.022852052003145218
1768416554124930600,10.3749306640625,-0.0017555557424202561,-0.007736749015748501,-0.01666180044412613
1768416554134932700,10.3849326171875,-0.0022096247412264347,-0.00621155695989728,-0.00782596506178379
1768416554144933600,10.39493359375,-0.0021941782906651497,-0.006958839949220419,-0.0007454187725670636
1768416554154935600,10.404935546875,-0.0018943065078929067,-0.00669358903542161,0.00133850472047925
1768416554164936700,10.414936767578125,0.0007060039788484573,-0.0073298183269798756,-0.003156644757837057
1768416554174938600,10.424938720703125,-0.00031185615807771683,-0.0067633637227118015,-0.007769772317260504
1768416554184939500,10.434939453125,0.0028756812680512667,-0.006687197368592024,-0.014343253336846828
1768416554194941700,10.444941650390625,0.003564641112461686,-0.009560215286910534,-0.01685701124370098
1768416554204942600,10.454942626953125,0.002304965863004327,-0.008042479865252972,-0.018700983375310898
1768416554214944500,10.464944580078125,0.001614940818399191,-0.005979862064123154,-0.018917765468358994
1768416554224945700,10.474945556640625,0.0029941920656710863,-0.00564030883833766,-0.01732279732823372
1768416554234947600,10.484947509765625,0.0035950010642409325,-0.003148389048874378,-0.016444753855466843
1768416554244948700,10.49494873046875,0.0027332021854817867,-0.0024706146214157343,-0.01543488260358572
1768416554254950700,10.50495068359375,0.0023076289799064398,-0.0024293356109410524,-0.012379437685012817
1768416554264951800,10.514951904296876,0.000261788722127676,-0.0015520902816206217,-0.009514409117400646
1768416554274953700,10.52495361328125,0.00008016114588826895,-0.0034234935883432627,-0.007080812472850084
1768416554284954600,10.53495458984375,-0.0012253203894942999,-0.0035023230593651533,-0.004608067683875561
1768416554294956800,10.544956787109374,-0.001695900922641158,-0.002627208363264799,-0.000045273736759554595
1768416554304957700,10.554957763671876,-0.002641589380800724,-0.0012037487467750907,-0.00049108691746369
1768416554314959600,10.564959716796874,-0.0020327907986938953,0.002767557045444846,-0.00018722022650763392
1768416554324960800,10.574960693359374,-0.0001150485550169833,0.006718622520565987,0.0000881506348378025
1768416554334962700,10.584962646484374,-0.0003230414295103401,0.009757556021213531,0.0018668759148567915
1768416554344963600,10.594963623046874,-0.000030360035452758893,0.01161564327776432,0.001579787116497755
1768416554354965800,10.6049658203125,0.0005336974863894284,0.012622318230569363,-0.002572879893705249
1768416554364966700,10.614966552734375,0.000806138850748539,0.011024155654013157,-0.006053897552192211
1768416554374968600,10.624968505859375,0.00022157499915920198,0.00987233780324459,-0.006870422977954149
1768416554384969700,10.6349697265625,-0.004052266012877226,0.0095684714615345,-0.004539357963949442
1768416554394971600,10.6449716796875,-0.001657018787227571,0.008612928912043571,-0.0009270463488064706
1768416554404972500,10.65497265625,-0.0012120045721530914,0.009278719313442707,0.002600044244900346
1768416554414974700,10.664974609375,-0.0008444883860647678,0.009860886260867119,0.0018128136871382594
1768416554424975600,10.6749755859375,0.0009835053933784366,0.008315986953675747,0.0006221143994480371
1768416554434977500,10.6849775390625,0.00041571943438611925,0.007152185309678316,-0.002035187790170312
1768416554444978700,10.694978759765625,0.000041811628761934116,0.006261890754103661,-0.005132976453751326
1768416554454980600,10.704980712890626,-0.0007864314829930663,0.004185423720628023,-0.0062760054133832455
1768416554464981500,10.7149814453125,-0.0011249192757532,0.00427144393324852,-0.004801945760846138
1768416554474983700,10.724983642578126,-0.002817624481394887,0.0046639940701425076,-0.004475708585232496
1768416554484984600,10.734984619140626,-0.00195129809435457,0.002545981900766492,-0.004430701024830341
1768416554494986500,10.744986572265624,-0.003413107246160507,0.0030085730832070112,-0.004428037907928228
1768416554504987600,10.754987548828124,-0.003853327827528119,0.002825613832101226,-0.0038607846945524216
1768416554514989600,10.764989501953124,-0.0030980552546679974,0.0021225393284112215,-0.004604072775691748
1768416554524990500,10.774990478515624,-0.003184075467288494,0.003507116809487343,-0.0038514635525643826
1768416554534992600,10.78499267578125,-0.0046568033285439014,0.0017837852938100696,-0.002225070958957076
1768416554544993500,10.79499365234375,-0.0037611823063343763,0.0013102752855047584,-0.005130313336849213
1768416554554995500,10.804995361328125,-0.0026583673898130655,0.0029963224660605192,-0.00640916358679533
1768416554564996600,10.81499658203125,-0.0027686222456395626,0.002429601736366749,-0.0068208882585167885
1768416554574998500,10.82499853515625,-0.000857005245052278,0.004489024169743061,-0.0057343184016644955
1768416554584999700,10.834999755859375,-0.0025531724095344543,0.003990747034549713,-0.007279218174517155
1768416554595001600,10.845001708984375,-0.001636246219277382,0.003698598127812147,-0.00891173630952835
1768416554605002800,10.855002685546875,-0.003913248889148235,0.0057127466425299644,-0.007396397180855274
1768416554615004400,10.86500439453125,-0.0025952504947781563,0.004880775231868029,-0.007643538527190685
1768416554625005800,10.875005859375,-0.003605387406423688,0.0035294874105602503,-0.009640110656619072
1768416554635007700,10.8850078125,-0.0038184402510523796,0.0017100156983360648,-0.011227887123823166
1768416554645008600,10.895008544921875,-0.0026200178544968367,-0.0009859022684395313,-0.011363974772393703
1768416554655010800,10.9050107421875,-0.0020546286832541227,-0.0029995182994753122,-0.009762349538505077
1768416554665011700,10.91501171875,-0.0012069445801898837,-0.006426740437746048,-0.005819539539515972
1768416554675013600,10.925013671875,0.0001150485550169833,-0.008015848696231842,-0.004245078656822443
1768416554685014800,10.935014892578126,-0.003052781568840146,-0.010572749190032482,-0.005584915168583393
1768416554695016700,10.9450166015625,-0.0010245180455967784,-0.011573032476007938,-0.00418355967849493
1768416554705017600,10.955017578125,-0.001529453438706696,-0.012267318554222584,-0.00729493098333478
1768416554715019800,10.965019775390624,0.0005946838646195829,-0.01344443578273058,-0.007040865253657103
1768416554725020700,10.975020751953124,0.000993891735561192,-0.015178154222667217,-0.00577772781252861
1768416554735022600,10.985022705078125,-0.00045593318645842373,-0.013650031760334969,-0.0025417208671569824
1768416554745023700,10.995023681640625,-0.000005060006060375599,-0.011607653461396694,0.0009017463307827711
1768416554755025700,11.005025634765625,-0.0006761765689589083,-0.010664628818631172,-0.00018642126815393567
1768416554765026600,11.015026611328125,-0.0021403825376182795,-0.010541058145463467,-0.006253635045140982
1768416554775028700,11.02502880859375,-0.0024711471050977707,-0.009412409737706184,-0.011835088022053242
1768416554785029600,11.035029541015625,-0.0018785938154906034,-0.005862948950380087,-0.009073922410607338
1768416554795031600,11.045031494140625,-0.0017832526937127113,-0.00013315805699676275,-0.0012237224727869034
1768416554805032700,11.05503271484375,-0.0032178976107388735,0.00452764006331563,0.0017510283505544066
1768416554815034600,11.06503466796875,-0.004356665071099997,0.00768907880410552,-0.0046629286371171474
1768416554825035500,11.075035400390625,-0.0065282066352665424,0.010676080361008644,-0.008810003288090229
1768416554835037700,11.08503759765625,-0.0037025928031653166,0.006612362805753946,-0.013346165418624878
1768416554845038600,11.09503857421875,-0.0036519928835332394,0.004767591133713722,-0.016518522053956985
1768416554855040500,11.10504052734375,-0.000931041082367301,0.004004595335572958,-0.01733797788619995
1768416554865041700,11.115041748046876,0.00002902845517382957,0.00421258807182312,-0.011446799151599407
1768416554875043600,11.125043701171874,0.0006950850365683436,0.0054304515942931175,-0.0033848776947706938
1768416554885044500,11.13504443359375,0.0022082931827753782,0.005963882897049189,-0.0012903015594929457
1768416554895046700,11.145046630859374,0.0027885958552360535,0.00703873485326767,-0.003477289341390133
1768416554905047600,11.155047607421874,0.0013680658303201199,0.007762049324810505,-0.008719189092516899
1768416554915049500,11.165049560546874,0.00007643271965207532,0.0067841364070773125,-0.0117312241345644
1768416554925050600,11.175050537109374,0.0018879148410633206,0.007625961676239967,-0.0145887965336442
1768416554935052500,11.185052490234375,0.0033489251509308815,0.009428922086954117,-0.015222628600895405
1768416554945053700,11.1950537109375,0.003306314582005143,0.009956493973731995,-0.017171263694763184
1768416554955055600,11.2050556640625,0.0027917916886508465,0.010617224499583244,-0.018494322896003723
1768416554965056800,11.215056884765625,0.0027744811959564686,0.011686483398079872,-0.019304189831018448
1768416554975058400,11.225058349609375,0.00009241169027518481,0.011112039908766747,-0.016884174197912216
1768416554985059800,11.235059814453125,-0.0008511462947353721,0.009327455423772335,-0.014195980504155159
1768416554995061800,11.245061767578125,-0.0007978830835781991,0.008564991876482964,-0.009696036577224731
1768416555005062700,11.255062744140625,-0.0023105584550648928,0.006308762356638908,-0.006440588738769293
1768416555015064800,11.26506494140625,-0.0028011128306388855,0.0032447953708469868,-0.004993959795683622
1768416555025065700,11.275065673828125,-0.004363855812698603,0.0010346380295231938,-0.0026847326662391424
1768416555035067600,11.285067626953126,-0.004569185432046652,0.004322843160480261,-0.002151035238057375
1768416555045068800,11.29506884765625,-0.003653058083727956,0.003242664970457554,-0.0016237293602898717
1768416555055069700,11.305069580078126,-0.0020032296888530254,0.007947138510644436,0.00030120351584628224
1768416555065071600,11.315071533203126,-0.0017502295086160302,0.012137356214225292,0.0057311225682497025
1768416555075072500,11.325072509765626,-0.0003350256592966616,0.013068663887679577,0.009019860066473484
1768416555085074700,11.33507470703125,-0.00005273058923194185,0.012709669768810272,0.00797456968575716
1768416555095075600,11.34507568359375,0.0011118697002530098,0.009590309113264084,0.0018152105621993542
1768416555105077500,11.355077392578124,0.00004314320904086344,0.004048004746437073,-0.00026045716367661953
1768416555115078700,11.36507861328125,-0.00036218989407643676,0.0008676578872837126,0.0009869674686342478
1768416555125080600,11.37508056640625,-0.0008167914929799736,-0.00022024342615623027,0.0065223476849496365
1768416555135081500,11.38508154296875,0.0026698189321905375,0.0013579458463937044,0.013825002126395702
1768416555145083600,11.395083740234375,0.004165450111031532,0.0010716560063883662,0.01745382510125637
1768416555155084500,11.40508447265625,0.003299656556919217,-0.0003336940717417747,0.018308432772755623
1768416555165086500,11.41508642578125,0.0026612968649715185,-0.0017251957906410098,0.017058612778782845
1768416555175087600,11.425087646484375,0.004346012603491545,-0.0015462313313037157,0.012382633984088898
1768416555185089500,11.435089599609375,0.0029678267892450094,-0.0014141384745016694,0.011752263642847538
1768416555195090400,11.44509033203125,0.0036362800747156143,-0.00037470675306394696,0.015398397110402584
1768416555205092600,11.455092529296875,0.002582467393949628,-0.0003635214816313237,0.01581438258290291
1768416555215093500,11.465093505859375,0.0014684670604765415,-0.0004620584368240088,0.01882481947541237
1768416555225095400,11.475095458984375,0.0003680488734971732,0.00034594463068060577,0.01967223733663559
1768416555235096600,11.4850966796875,0.0015624766238033772,0.0005704491049982607,0.02093590795993805
1768416555245098500,11.495098388671876,0.0005954828229732811,0.0027957865968346596,0.021038439124822617
1768416555255099600,11.505099609375,0.001999235013499856,0.004832305945456028,0.023327426984906197
1768416555265101600,11.5151015625,-0.00023276027059182525,0.005686914082616568,0.023132482543587685
1768416555275102700,11.525102783203126,-0.000841825210954994,0.007094128523021936,0.022213958203792572
1768416555285103900,11.535103759765626,-0.003662378992885351,0.008378570899367332,0.020717263221740723
1768416555295104800,11.545104736328126,-0.004957207944244146,0.0096273273229599,0.02311304211616516
1768416555305106700,11.555106689453124,-0.005623531062155962,0.009820672683417797,0.02527233399450779
1768416555315107800,11.56510791015625,-0.005648830905556679,0.009824400767683983,0.024152208119630814
1768416555325109800,11.57510986328125,-0.006207562051713467,0.013585050590336323,0.025560753419995308
1768416555335110700,11.585110595703124,-0.006231530569493771,0.016529176384210587,0.025800172239542007
1768416555345112800,11.59511279296875,-0.004735632799565792,0.020079702138900757,0.028746159747242928
1768416555355113700,11.60511376953125,-0.005790777504444122,0.02382597140967846,0.030769098550081253
1768416555365115600,11.61511572265625,-0.0060152821242809296,0.024100009351968765,0.031267907470464706
1768416555375116500,11.625116455078125,-0.003920971881598234,0.024820128455758095,0.033118270337581635
1768416555385118700,11.63511865234375,-0.004114317707717419,0.025526665151119232,0.030238596722483635
1768416555395119600,11.64511962890625,-0.0039041941054165363,0.027453195303678513,0.031128890812397003
1768416555405121800,11.655121826171875,-0.0062823970802128315,0.024052871391177177,0.030848193913698196
1768416555415122700,11.665122802734375,-0.006238454952836037,0.024710938334465027,0.027571706101298332
1768416555425124600,11.67512451171875,-0.007132478058338165,0.022959643974900246,0.02971501834690571
1768416555435125500,11.68512548828125,-0.006313289515674114,0.021207816898822784,0.028986377641558647
1768416555445127700,11.695127685546876,-0.006485063582658768,0.017841048538684845,0.028801554813981056
1768416555455128600,11.705128662109376,-0.007271495182067156,0.017845842987298965,0.030117155984044075
1768416555465130800,11.715130859375,-0.0062429821118712425,0.01611904799938202,0.03159574419260025
1768416555475131600,11.725131591796876,-0.006209426559507847,0.015079882927238941,0.031632229685783386
1768416555485133600,11.735133544921876,-0.004592354875057936,0.014667891897261143,0.03039119578897953
1768416555495134700,11.745134765625,-0.005260808393359184,0.015909457579255104,0.029522206634283066
1768416555505136600,11.75513671875,-0.003615241264924407,0.014787734486162663,0.03273264691233635
1768416555515137800,11.7651376953125,-0.004446680191904306,0.014831410720944405,0.03453534096479416
1768416555525138700,11.775138671875,-0.004509264137595892,0.011829761788249016,0.03388606011867523
1768416555535140900,11.785140869140625,-0.004159591160714626,0.01056396123021841,0.02799115516245365
1768416555545141800,11.795141845703125,-0.004795554094016552,0.009243032895028591,0.023753533139824867
1768416555555143700,11.805143798828125,-0.004640824627131224,0.00851465854793787,0.024349547922611237
1768416555565144800,11.815144775390625,-0.005191565956920385,0.007978564128279686,0.02877012826502323
1768416555575146800,11.825146728515625,-0.005891445092856884,0.009051552042365074,0.025185247883200645
1768416555585147600,11.835147705078125,-0.005642705596983433,0.010209227912127972,0.02111620455980301
1768416555595149800,11.84514990234375,-0.006625678390264511,0.00941906776279211,0.02093297801911831
1768416555605150700,11.855150634765625,-0.005114867351949215,0.004821120295673609,0.017292171716690063
1768416555615152600,11.865152587890625,-0.0062946476973593235,-0.0006673881434835494,0.012234562076628208
1768416555625153800,11.87515380859375,-0.003081809962168336,-0.004187021870166063,0.013439908623695374
1768416555635155700,11.88515576171875,-0.002127333078533411,-0.0035268242936581373,0.01913934014737606
1768416555645156600,11.895156494140625,-0.0017936390358954668,-0.003242132253944874,0.023376429453492165
1768416555655158800,11.90515869140625,-0.003090864745900035,-0.006953780073672533,0.013823137618601322
1768416555665159700,11.91515966796875,-0.004699147772043943,-0.014087589457631111,-0.008902681060135365
1768416555675161600,11.92516162109375,-0.006607568822801113,-0.017166735604405403,-0.03681261092424393
1768416555685162800,11.935162841796876,-0.007936752401292324,-0.016953149810433388,-0.054538607597351074
1768416555695164700,11.94516455078125,-0.005501291714608669,-0.008503207005560398,-0.05818048119544983
1768416555705165600,11.95516552734375,-0.0019624833948910236,0.0035547874867916107,-0.055274173617362976
1768416555715167700,11.965167724609374,-0.0018064221367239952,0.010072074830532074,-0.0474010705947876
1768416555725168600,11.975168701171874,-0.0018788601737469435,0.013748569414019585,-0.03738439083099365
1768416555735170600,11.985170654296875,-0.0041161817498505116,0.015519038774073124,-0.030484672635793686
1768416555745171700,11.995171630859375,-0.004195543937385082,0.013822338543832302,-0.027208717539906502
