time,seconds_elapsed,z,y,x
1767708643575376600,0.063376708984375,0.0420989990234375,0.0620880126953125,0.990997314453125
1767708643585378000,0.0733779296875,0.0433197021484375,0.0545501708984375,0.987701416015625
1767708643595378000,0.0833779296875,0.0416259765625,0.045318603515625,0.985809326171875
1767708643605377800,0.093377685546875,0.0326690673828125,0.044281005859375,0.979400634765625
1767708643615379000,0.10337890625,0.03216552734375,0.0473175048828125,0.9731292724609375
1767708643625378800,0.11337890625,0.0328521728515625,0.0423736572265625,0.9750213623046875
1767708643635379700,0.123379638671875,0.0333404541015625,0.0442352294921875,0.9739227294921875
1767708643645379800,0.1333798828125,0.030670166015625,0.0438690185546875,0.9648895263671875
1767708643655381000,0.143381103515625,0.01324462890625,0.0426483154296875,0.959136962890625
1767708643665380900,0.153380859375,-0.0040435791015625,0.050506591796875,0.9570465087890625
1767708643675381000,0.163381103515625,-0.004364013671875,0.057525634765625,0.969390869140625
1767708643685382000,0.1733818359375,0.010223388671875,0.0658111572265625,1.000396728515625
1767708643695381800,0.1833818359375,0.0297088623046875,0.074005126953125,1.028533935546875
1767708643705383000,0.1933828125,0.04638671875,0.0672607421875,1.04437255859375
1767708643715382800,0.2033828125,0.054443359375,0.0546875,1.0552215576171875
1767708643725383000,0.2133828125,0.05572509765625,0.0413055419921875,1.056976318359375
1767708643735383800,0.2233837890625,0.05706787109375,0.020599365234375,1.0526275634765625
1767708643745383700,0.2333837890625,0.0505218505859375,0.005035400390625,1.0533447265625
1767708643755384800,0.243384765625,0.03521728515625,0.00140380859375,1.0477752685546875
1767708643765385000,0.253385009765625,0.0206756591796875,0.005218505859375,1.0428924560546875
1767708643775385900,0.2633857421875,0.0134735107421875,0.01068115234375,1.0315093994140625
1767708643785385700,0.2733857421875,0.011016845703125,0.017120361328125,1.0159759521484375
1767708643795385900,0.2833857421875,0.016754150390625,0.0209197998046875,1.0016021728515625
1767708643805386800,0.29338671875,0.022979736328125,0.026123046875,0.98974609375
1767708643815387000,0.303386962890625,0.019256591796875,0.0343475341796875,0.98223876953125
1767708643825388000,0.313387939453125,0.011932373046875,0.04931640625,0.9824981689453125
1767708643835388000,0.323387939453125,0.003936767578125,0.0613555908203125,0.9940643310546875
1767708643845388000,0.333387939453125,-0.0003509521484375,0.0630950927734375,0.9989013671875
1767708643855389000,0.343388916015625,-0.003326416015625,0.0618438720703125,0.9969329833984375
1767708643865388800,0.353388916015625,-0.0070037841796875,0.065216064453125,0.999847412109375
1767708643875389700,0.3633896484375,-0.0148773193359375,0.0698089599609375,1.0029144287109375
1767708643885389800,0.373389892578125,-0.019989013671875,0.0735015869140625,1.003936767578125
1767708643895390700,0.383390625,-0.024322509765625,0.07952880859375,1.004364013671875
1767708643905390800,0.393390869140625,-0.028289794921875,0.0916595458984375,1.00787353515625
1767708643915391000,0.403390869140625,-0.0259246826171875,0.1018218994140625,1.0203704833984375
1767708643925392000,0.413391845703125,-0.0350341796875,0.10333251953125,1.024749755859375
1767708643935392000,0.42339208984375,-0.0395965576171875,0.1017913818359375,1.0333251953125
1767708643945393000,0.433392822265625,-0.0353240966796875,0.094940185546875,1.03936767578125
1767708643955392800,0.443392822265625,-0.0388946533203125,0.08001708984375,1.0367584228515625
1767708643965393700,0.4533935546875,-0.03076171875,0.0669708251953125,1.0352325439453125
1767708643975393800,0.463393798828125,-0.0388336181640625,0.05438232421875,1.0258636474609375
1767708643985393700,0.4733935546875,-0.04534912109375,0.050567626953125,1.0125732421875
1767708643995395000,0.48339501953125,-0.0585479736328125,0.0543212890625,0.9917449951171875
1767708644005395000,0.49339501953125,-0.06585693359375,0.06280517578125,0.976806640625
1767708644015395800,0.503395751953125,-0.0700836181640625,0.0626068115234375,0.966827392578125
1767708644025396000,0.51339599609375,-0.0658111572265625,0.069488525390625,0.9629058837890625
1767708644035395800,0.523395751953125,-0.0694122314453125,0.0731353759765625,0.95947265625
1767708644045396700,0.533396728515625,-0.0761871337890625,0.077056884765625,0.94976806640625
1767708644055396900,0.54339697265625,-0.073486328125,0.063720703125,0.9527435302734375
1767708644065397800,0.553397705078125,-0.0695953369140625,0.0542144775390625,0.953399658203125
1767708644075398000,0.56339794921875,-0.070098876953125,0.0560302734375,0.9469757080078125
1767708644085398800,0.573398681640625,-0.0706024169921875,0.0514373779296875,0.9463348388671875
1767708644095398700,0.583398681640625,-0.062164306640625,0.036865234375,0.948028564453125
1767708644105398500,0.5933984375,-0.056488037109375,0.0276031494140625,0.94683837890625
1767708644115400000,0.60339990234375,-0.0484161376953125,0.0252532958984375,0.9456787109375
1767708644125399800,0.61339990234375,-0.033935546875,0.0203857421875,0.9416656494140625
1767708644135400700,0.623400634765625,-0.00213623046875,0.0123138427734375,0.950958251953125
1767708644145400800,0.63340087890625,0.0401458740234375,-0.003662109375,0.980377197265625
1767708644155401700,0.643401611328125,0.0750732421875,-0.01593017578125,1.015960693359375
1767708644165401600,0.653401611328125,0.1065521240234375,-0.018341064453125,1.053314208984375
1767708644175401700,0.663401611328125,0.12030029296875,-0.0112457275390625,1.0852813720703125
1767708644185403000,0.67340283203125,0.0998992919921875,-0.00469970703125,1.1085205078125
1767708644195402800,0.68340283203125,0.07720947265625,-0.008056640625,1.13006591796875
1767708644205404000,0.69340380859375,0.06146240234375,-0.01104736328125,1.124542236328125
1767708644215403800,0.70340380859375,0.0554046630859375,-0.0189666748046875,1.1054534912109375
1767708644225404700,0.71340478515625,0.0532989501953125,-0.037750244140625,1.0720977783203125
1767708644235404800,0.72340478515625,0.052520751953125,-0.049163818359375,1.0300445556640625
1767708644245404700,0.73340478515625,0.047882080078125,-0.0524139404296875,0.98004150390625
1767708644255405600,0.743405517578125,0.05291748046875,-0.054443359375,0.9396209716796875
1767708644265405700,0.75340576171875,0.0625152587890625,-0.059295654296875,0.9065704345703125
1767708644275406800,0.76340673828125,0.05181884765625,-0.0526123046875,0.8889923095703125
1767708644285406700,0.77340673828125,0.038787841796875,-0.03863525390625,0.888916015625
1767708644295406800,0.78340673828125,0.0364532470703125,-0.037811279296875,0.900421142578125
1767708644305407700,0.79340771484375,0.015228271484375,-0.0383453369140625,0.909515380859375
1767708644315408000,0.803407958984375,-0.0282135009765625,-0.029510498046875,0.9205474853515625
1767708644325408800,0.81340869140625,-0.077239990234375,-0.02069091796875,0.93853759765625
1767708644335408600,0.82340869140625,-0.1098480224609375,-0.0131072998046875,0.964111328125
1767708644345409800,0.833409912109375,-0.1116180419921875,-0.022552490234375,0.990509033203125
1767708644355410000,0.843409912109375,-0.1010894775390625,-0.039642333984375,1.023193359375
1767708644365409800,0.853409912109375,-0.0774078369140625,-0.053955078125,1.05242919921875
1767708644375410700,0.86341064453125,-0.0557403564453125,-0.0692901611328125,1.08111572265625
1767708644385410800,0.873410888671875,-0.0332794189453125,-0.08001708984375,1.112152099609375
1767708644395411700,0.88341162109375,-0.0102691650390625,-0.07769775390625,1.14251708984375
1767708644405411800,0.893411865234375,-0.020660400390625,-0.0742645263671875,1.1673431396484375
1767708644415411700,0.90341162109375,-0.049591064453125,-0.091766357421875,1.1908111572265625
1767708644425412600,0.91341259765625,-0.0865020751953125,-0.113922119140625,1.1979522705078125
1767708644435413000,0.9234130859375,-0.116851806640625,-0.1469573974609375,1.1680450439453125
1767708644445414000,0.933413818359375,-0.1275634765625,-0.1826019287109375,1.1087493896484375
1767708644455413800,0.943413818359375,-0.13250732421875,-0.2022247314453125,1.048126220703125
1767708644465414700,0.95341455078125,-0.136993408203125,-0.2084808349609375,0.9932861328125
1767708644475414800,0.963414794921875,-0.1413116455078125,-0.2021942138671875,0.935516357421875
1767708644485414700,0.97341455078125,-0.136932373046875,-0.1834259033203125,0.8820037841796875
1767708644495415800,0.983415771484375,-0.118194580078125,-0.1573638916015625,0.8513336181640625
1767708644505415700,0.993415771484375,-0.111572265625,-0.135986328125,0.8276214599609375
1767708644515416800,1.003416748046875,-0.1060791015625,-0.1190948486328125,0.811981201171875
1767708644525417000,1.0134169921875,-0.099456787109375,-0.0986480712890625,0.810516357421875
1767708644535417900,1.02341796875,-0.08544921875,-0.0854644775390625,0.829132080078125
1767708644545417700,1.033417724609375,-0.07647705078125,-0.0829620361328125,0.852020263671875
1767708644555417900,1.04341796875,-0.056732177734375,-0.0911102294921875,0.8760528564453125
1767708644565418800,1.053418701171875,-0.03179931640625,-0.1269989013671875,0.901275634765625
1767708644575418600,1.063418701171875,-0.02178955078125,-0.1490936279296875,0.922119140625
1767708644585419800,1.073419677734375,-0.02886962890625,-0.1479644775390625,0.9400787353515625
1767708644595420000,1.083419921875,-0.05438232421875,-0.1543121337890625,0.9531402587890625
1767708644605419800,1.093419677734375,-0.07061767578125,-0.1580352783203125,0.9683685302734375
1767708644615421000,1.1034208984375,-0.0788116455078125,-0.161590576171875,0.9808349609375
1767708644625420800,1.1134208984375,-0.0852203369140625,-0.1596832275390625,0.9838714599609375
1767708644635421700,1.123421630859375,-0.0833740234375,-0.1680450439453125,0.985015869140625
1767708644645421800,1.133421875,-0.0661468505859375,-0.182220458984375,0.989959716796875
1767708644655422700,1.143422607421875,-0.053863525390625,-0.194610595703125,0.9949188232421875
1767708644665422600,1.153422607421875,-0.0416259765625,-0.193145751953125,1.00897216796875
1767708644675422700,1.163422607421875,-0.058349609375,-0.171844482421875,1.009735107421875
1767708644685423900,1.173423828125,-0.073089599609375,-0.1550445556640625,0.999542236328125
1767708644695423700,1.183423828125,-0.066558837890625,-0.1377105712890625,0.9912261962890625
1767708644705425000,1.1934248046875,-0.0601348876953125,-0.1271514892578125,0.98846435546875
1767708644715424800,1.2034248046875,-0.0564422607421875,-0.127288818359375,0.9857635498046875
1767708644725424600,1.213424560546875,-0.0626373291015625,-0.12689208984375,0.9857025146484375
1767708644735425800,1.22342578125,-0.071929931640625,-0.1283721923828125,0.9875335693359375
1767708644745425700,1.23342578125,-0.0606842041015625,-0.1374053955078125,0.9941558837890625
1767708644755426800,1.2434267578125,-0.012481689453125,-0.1488037109375,1.022857666015625
1767708644765427000,1.253427001953125,0.0576019287109375,-0.15142822265625,1.05633544921875
1767708644775427800,1.263427734375,0.1195068359375,-0.1485137939453125,1.0753936767578125
1767708644785427700,1.273427734375,0.1029815673828125,-0.132720947265625,1.0711669921875
1767708644795427800,1.283427734375,0.0313568115234375,-0.1038665771484375,1.05657958984375
1767708644805428700,1.2934287109375,-0.0388031005859375,-0.087890625,1.0408477783203125
1767708644815428600,1.3034287109375,-0.0993804931640625,-0.0860443115234375,1.0055694580078125
1767708644825429800,1.3134296875,-0.1490478515625,-0.097320556640625,0.9677581787109375
1767708644835429600,1.3234296875,-0.1769866943359375,-0.1114349365234375,0.9378662109375
1767708644845430800,1.3334306640625,-0.186065673828125,-0.104156494140625,0.9106597900390625
1767708644855431000,1.343430908203125,-0.1756591796875,-0.0791015625,0.88885498046875
1767708644865430800,1.3534306640625,-0.1347503662109375,-0.046905517578125,0.8896331787109375
1767708644875431700,1.363431640625,-0.0999603271484375,-0.009979248046875,0.9197540283203125
1767708644885431800,1.373431884765625,-0.0678863525390625,0.0305938720703125,0.9539031982421875
1767708644895432700,1.3834326171875,-0.035400390625,0.0689239501953125,1.006439208984375
1767708644905432600,1.3934326171875,-0.0099029541015625,0.1019287109375,1.06317138671875
1767708644915432700,1.4034326171875,0.023040771484375,0.126068115234375,1.1068115234375
1767708644925433900,1.413433837890625,0.031707763671875,0.156280517578125,1.1341094970703125
1767708644935434000,1.42343408203125,-0.0019073486328125,0.1932220458984375,1.1581878662109375
1767708644945435000,1.433434814453125,-0.03271484375,0.2204742431640625,1.184356689453125
1767708644955434800,1.443434814453125,-0.035369873046875,0.2429351806640625,1.2039337158203125
1767708644965435600,1.453435546875,-0.022125244140625,0.256622314453125,1.2062530517578125
1767708644975435800,1.463435791015625,-0.011627197265625,0.25701904296875,1.2023468017578125
1767708644985435600,1.473435546875,-0.0265350341796875,0.232940673828125,1.18365478515625
1767708644995436500,1.4834365234375,-0.057159423828125,0.2025604248046875,1.1385955810546875
1767708645005436700,1.493436767578125,-0.072509765625,0.169219970703125,1.10931396484375
1767708645015437800,1.503437744140625,-0.072235107421875,0.1358795166015625,1.0841217041015625
1767708645025438000,1.51343798828125,-0.0685577392578125,0.115997314453125,1.06439208984375
1767708645035438800,1.52343896484375,-0.0676116943359375,0.1069488525390625,1.0399017333984375
1767708645045438700,1.533438720703125,-0.069610595703125,0.114776611328125,1.017120361328125
1767708645055438800,1.54343896484375,-0.06951904296875,0.13134765625,0.997222900390625
1767708645065439700,1.553439697265625,-0.07666015625,0.1567230224609375,0.9709625244140625
1767708645075439600,1.563439697265625,-0.0838775634765625,0.1873779296875,0.9412078857421875
1767708645085440800,1.573440673828125,-0.0788116455078125,0.205810546875,0.91326904296875
1767708645095441000,1.58344091796875,-0.0608673095703125,0.212860107421875,0.89422607421875
1767708645105440800,1.593440673828125,-0.047760009765625,0.2133026123046875,0.886993408203125
1767708645115442000,1.60344189453125,-0.048004150390625,0.2032470703125,0.885711669921875
1767708645125441800,1.61344189453125,-0.05877685546875,0.1857147216796875,0.88067626953125
1767708645135442700,1.623442626953125,-0.0894927978515625,0.1788330078125,0.8563995361328125
1767708645145442800,1.63344287109375,-0.134674072265625,0.17572021484375,0.8400421142578125
1767708645155443700,1.643443603515625,-0.1447601318359375,0.178131103515625,0.8425445556640625
1767708645165443600,1.653443603515625,-0.1320648193359375,0.179351806640625,0.8581085205078125
1767708645175443700,1.663443603515625,-0.1139373779296875,0.1668243408203125,0.88153076171875
1767708645185444900,1.67344482421875,-0.0870513916015625,0.1562957763671875,0.8989410400390625
1767708645195444700,1.68344482421875,-0.0709381103515625,0.14190673828125,0.911590576171875
1767708645205446000,1.69344580078125,-0.0550689697265625,0.1162567138671875,0.919586181640625
1767708645215445800,1.70344580078125,-0.0524139404296875,0.0993499755859375,0.9254913330078125
1767708645225445600,1.713445556640625,-0.06573486328125,0.086761474609375,0.9357452392578125
1767708645235446800,1.72344677734375,-0.0740814208984375,0.072967529296875,0.943359375
1767708645245446700,1.73344677734375,-0.09405517578125,0.0567474365234375,0.95257568359375
1767708645255447800,1.74344775390625,-0.11737060546875,0.0515594482421875,0.956207275390625
1767708645265448000,1.753447998046875,-0.13232421875,0.058197021484375,0.96905517578125
1767708645275448800,1.76344873046875,-0.1277618408203125,0.0623779296875,0.988067626953125
1767708645285448700,1.77344873046875,-0.0888824462890625,0.0561065673828125,1.0284423828125
1767708645295448800,1.78344873046875,-0.023895263671875,0.0441131591796875,1.0888519287109375
1767708645305449700,1.79344970703125,0.0237579345703125,0.052764892578125,1.156707763671875
1767708645315449600,1.80344970703125,0.009979248046875,0.085906982421875,1.1897430419921875
1767708645325450800,1.81345068359375,-0.017486572265625,0.1199493408203125,1.171173095703125
1767708645335450600,1.82345068359375,-0.003662109375,0.1300201416015625,1.162384033203125
1767708645345451800,1.83345166015625,-0.003875732421875,0.1132659912109375,1.16546630859375
1767708645355452000,1.843451904296875,-0.0368499755859375,0.09033203125,1.118408203125
1767708645365451800,1.85345166015625,-0.0629730224609375,0.0704345703125,1.0297698974609375
1767708645375452700,1.86345263671875,-0.0726165771484375,0.06591796875,0.9486846923828125
1767708645385452800,1.873452880859375,-0.0619659423828125,0.061859130859375,0.8745880126953125
1767708645395453700,1.88345361328125,-0.0632781982421875,0.0414581298828125,0.8177947998046875
1767708645405453600,1.89345361328125,-0.0880889892578125,0.01849365234375,0.807373046875
1767708645415453700,1.90345361328125,-0.1255950927734375,0.0105133056640625,0.8227691650390625
1767708645425454800,1.913454833984375,-0.1459808349609375,0.00872802734375,0.8470306396484375
1767708645435454700,1.923454833984375,-0.141265869140625,0.0123443603515625,0.8899688720703125
1767708645445456000,1.933455810546875,-0.132781982421875,0.018829345703125,0.9507293701171875
1767708645455455700,1.943455810546875,-0.1162872314453125,0.0207672119140625,1.0114288330078125
1767708645465456600,1.95345654296875,-0.105743408203125,0.0309600830078125,1.0433349609375
1767708645475456800,1.963456787109375,-0.0924530029296875,0.044219970703125,1.0707550048828125
1767708645485456600,1.97345654296875,-0.0723419189453125,0.0551605224609375,1.0899200439453125
1767708645495457500,1.98345751953125,-0.05706787109375,0.0667724609375,1.100738525390625
1767708645505458000,1.9934580078125,-0.05059814453125,0.0652618408203125,1.110809326171875
1767708645515458800,2.003458740234375,-0.0468292236328125,0.057281494140625,1.1075439453125
1767708645525458700,2.013458740234375,-0.05145263671875,0.0471954345703125,1.08013916015625
1767708645535459800,2.0234599609375,-0.0583038330078125,0.0303955078125,1.0440673828125
1767708645545459700,2.033459716796875,-0.0625152587890625,0.0032501220703125,1.011077880859375
1767708645555459800,2.0434599609375,-0.053863525390625,-0.021026611328125,0.9840087890625
1767708645565460700,2.053460693359375,-0.0399322509765625,-0.0347747802734375,0.968536376953125
1767708645575460600,2.063460693359375,-0.041351318359375,-0.0410614013671875,0.9585723876953125
1767708645585461800,2.073461669921875,-0.0579376220703125,-0.02825927734375,0.9559478759765625
1767708645595462000,2.0834619140625,-0.0739593505859375,-0.0084381103515625,0.9625244140625
1767708645605461800,2.093461669921875,-0.07879638671875,0.00494384765625,0.9732513427734375
1767708645615462700,2.103462646484375,-0.0775909423828125,0.019073486328125,0.983184814453125
1767708645625462800,2.113462890625,-0.06622314453125,0.0332183837890625,0.9889678955078125
1767708645635463700,2.123463623046875,-0.064178466796875,0.042694091796875,0.993316650390625
1767708645645463800,2.1334638671875,-0.063568115234375,0.042510986328125,0.99639892578125
1767708645655464700,2.143464599609375,-0.0634307861328125,0.03277587890625,0.9965362548828125
1767708645665464800,2.15346484375,-0.0618896484375,0.021728515625,0.9945068359375
1767708645675465000,2.16346484375,-0.058349609375,0.0104217529296875,0.9923858642578125
1767708645685465900,2.1734658203125,-0.056732177734375,0.0002288818359375,0.994293212890625
1767708645695465700,2.1834658203125,-0.0540771484375,-0.0034637451171875,0.9961700439453125
1767708645705466600,2.193466552734375,-0.053802490234375,-0.00445556640625,0.9986419677734375
1767708645715466800,2.203466796875,-0.051361083984375,-0.0048370361328125,0.9964599609375
1767708645725467600,2.213467529296875,-0.0535125732421875,-0.0026702880859375,0.9952392578125
1767708645735467800,2.2234677734375,-0.0507354736328125,-0.0045166015625,0.9936370849609375
1767708645745467600,2.233467529296875,-0.048370361328125,-0.0058746337890625,0.993316650390625
1767708645755468800,2.24346875,-0.05181884765625,-0.0071868896484375,0.9942474365234375
1767708645765469000,2.253468994140625,-0.052215576171875,-0.0116424560546875,0.9985504150390625
1767708645775469800,2.2634697265625,-0.0526123046875,-0.0169219970703125,0.99993896484375
1767708645785469700,2.2734697265625,-0.064666748046875,-0.020782470703125,0.9977264404296875
1767708645795469800,2.2834697265625,-0.0733795166015625,-0.016876220703125,0.9930267333984375
1767708645805470700,2.293470703125,-0.076141357421875,-0.0147247314453125,0.9929656982421875
1767708645815470600,2.303470703125,-0.0768890380859375,-0.0188751220703125,0.9924468994140625
1767708645825472000,2.313471923828125,-0.0806121826171875,-0.0225830078125,0.9932708740234375
1767708645835472000,2.323471923828125,-0.089202880859375,-0.0251312255859375,0.995147705078125
1767708645845472800,2.33347265625,-0.100799560546875,-0.0316009521484375,0.9907073974609375
1767708645855473000,2.343472900390625,-0.11456298828125,-0.032470703125,0.987274169921875
1767708645865472800,2.35347265625,-0.1278533935546875,-0.0334014892578125,0.9820404052734375
1767708645875473700,2.3634736328125,-0.1330108642578125,-0.0418243408203125,0.97650146484375
1767708645885473800,2.373473876953125,-0.1374359130859375,-0.057098388671875,0.967315673828125
1767708645895474700,2.383474609375,-0.1324462890625,-0.0677947998046875,0.95159912109375
1767708645905474600,2.393474609375,-0.101593017578125,-0.0750274658203125,0.9351348876953125
1767708645915476000,2.40347607421875,-0.0643768310546875,-0.079803466796875,0.92059326171875
1767708645925475800,2.413475830078125,-0.0470428466796875,-0.0743408203125,0.9031982421875
1767708645935475700,2.423475830078125,-0.0382843017578125,-0.0624847412109375,0.906524658203125
1767708645945476900,2.433476806640625,-0.0517120361328125,-0.0494842529296875,0.9140167236328125
1767708645955476700,2.443476806640625,-0.0955047607421875,-0.040924072265625,0.931488037109375
1767708645965477600,2.4534775390625,-0.165740966796875,-0.0295257568359375,0.9438323974609375
1767708645975477800,2.463477783203125,-0.239044189453125,-0.02508544921875,0.9546356201171875
1767708645985479000,2.47347900390625,-0.2865447998046875,-0.0273895263671875,0.975738525390625
1767708645995478800,2.483478759765625,-0.306121826171875,-0.03057861328125,0.995147705078125
1767708646005479000,2.49347900390625,-0.2848052978515625,-0.0316925048828125,1.0108184814453125
1767708646015479800,2.503479736328125,-0.238128662109375,-0.02667236328125,1.0365142822265625
1767708646025479700,2.513479736328125,-0.2004241943359375,-0.0144500732421875,1.066925048828125
1767708646035480800,2.523480712890625,-0.1857452392578125,-0.00201416015625,1.0913543701171875
1767708646045480700,2.533480712890625,-0.198089599609375,0.008392333984375,1.1117401123046875
1767708646055481600,2.543481689453125,-0.2236785888671875,0.006805419921875,1.13104248046875
1767708646065481700,2.553481689453125,-0.2489166259765625,-0.0010528564453125,1.1423187255859375
1767708646075481600,2.563481689453125,-0.259124755859375,-0.0124053955078125,1.130462646484375
1767708646085482200,2.573482177734375,-0.263641357421875,-0.021636962890625,1.0992584228515625
1767708646095482000,2.583482177734375,-0.2680511474609375,-0.035430908203125,1.06121826171875
1767708646105483300,2.593483154296875,-0.2564697265625,-0.04962158203125,1.0224609375
1767708646115483400,2.6034833984375,-0.2366485595703125,-0.063018798828125,0.987030029296875
1767708646125483300,2.613483154296875,-0.220001220703125,-0.0682220458984375,0.9516754150390625
1767708646135484200,2.623484130859375,-0.2145843505859375,-0.065185546875,0.9205322265625
1767708646145484300,2.633484375,-0.212371826171875,-0.0571746826171875,0.8970947265625
1767708646155485200,2.643485107421875,-0.2114105224609375,-0.0542449951171875,0.87957763671875
1767708646165485000,2.653485107421875,-0.210601806640625,-0.0558929443359375,0.8689422607421875
1767708646175486200,2.663486328125,-0.2224273681640625,-0.0611114501953125,0.858551025390625
1767708646185486300,2.673486328125,-0.2284698486328125,-0.0619354248046875,0.8577423095703125
1767708646195486200,2.683486328125,-0.2155303955078125,-0.0580291748046875,0.8614501953125
1767708646205487400,2.6934873046875,-0.2091827392578125,-0.0658721923828125,0.8702239990234375
1767708646215487200,2.7034873046875,-0.2046051025390625,-0.0773162841796875,0.886444091796875
1767708646225488100,2.713488037109375,-0.2189788818359375,-0.0839385986328125,0.89837646484375
1767708646235488300,2.72348828125,-0.236663818359375,-0.0829925537109375,0.8954925537109375
1767708646245489200,2.7334892578125,-0.2433624267578125,-0.070220947265625,0.894561767578125
1767708646255489000,2.743489013671875,-0.2397308349609375,-0.0521697998046875,0.896575927734375
1767708646265489400,2.753489501953125,-0.239898681640625,-0.0425262451171875,0.8982391357421875
1767708646275490300,2.763490234375,-0.2399139404296875,-0.036712646484375,0.9067230224609375
1767708646285490200,2.773490234375,-0.25323486328125,-0.03167724609375,0.9102020263671875
1767708646295491300,2.7834912109375,-0.2726287841796875,-0.0330657958984375,0.9115142822265625
1767708646305491200,2.7934912109375,-0.28350830078125,-0.035797119140625,0.906524658203125
1767708646315492000,2.8034921875,-0.2882843017578125,-0.0387420654296875,0.9009857177734375
1767708646325492200,2.8134921875,-0.2920379638671875,-0.0540771484375,0.90093994140625
1767708646335492000,2.8234921875,-0.296173095703125,-0.070526123046875,0.90234375
1767708646345493200,2.8334931640625,-0.2973175048828125,-0.079010009765625,0.9141845703125
1767708646355493400,2.843493408203125,-0.2924041748046875,-0.096405029296875,0.9349517822265625
1767708646365494300,2.853494384765625,-0.289642333984375,-0.1119384765625,0.957305908203125
1767708646375494100,2.863494140625,-0.284820556640625,-0.114349365234375,0.982025146484375
1767708646385495300,2.873495361328125,-0.2825469970703125,-0.108795166015625,0.994476318359375
1767708646395495200,2.8834951171875,-0.280914306640625,-0.09796142578125,0.9978790283203125
1767708646405495000,2.8934951171875,-0.277252197265625,-0.083465576171875,0.9965972900390625
1767708646415496200,2.90349609375,-0.2754669189453125,-0.0663299560546875,0.992919921875
1767708646425496300,2.913496337890625,-0.2751312255859375,-0.0586700439453125,0.9804229736328125
1767708646435497200,2.923497314453125,-0.27197265625,-0.06036376953125,0.9669342041015625
1767708646445497300,2.933497314453125,-0.268798828125,-0.0752410888671875,0.960906982421875
1767708646455498200,2.943498291015625,-0.267242431640625,-0.0984344482421875,0.95635986328125
1767708646465498000,2.953498046875,-0.2457275390625,-0.1177520751953125,0.96331787109375
1767708646475498200,2.963498291015625,-0.205810546875,-0.1388702392578125,0.9926910400390625
1767708646485499100,2.9734990234375,-0.1710662841796875,-0.139862060546875,1.0423583984375
1767708646495499000,2.9834990234375,-0.122161865234375,-0.1199798583984375,1.0885772705078125
1767708646505500400,2.99350048828125,-0.103271484375,-0.0949554443359375,1.1197052001953125
1767708646515500300,3.003500244140625,-0.1267242431640625,-0.0793609619140625,1.1634979248046875
1767708646525501200,3.013501220703125,-0.1779327392578125,-0.0888824462890625,1.2201995849609375
1767708646535501300,3.023501220703125,-0.224212646484375,-0.1198577880859375,1.2413787841796875
1767708646545501200,3.033501220703125,-0.249786376953125,-0.1737213134765625,1.215667724609375
1767708646555502000,3.043502197265625,-0.219970703125,-0.215118408203125,1.1362152099609375
1767708646565502200,3.053502197265625,-0.1500396728515625,-0.2031707763671875,1.153045654296875
1767708646575503000,3.063503173828125,-0.0758819580078125,-0.178619384765625,1.254241943359375
1767708646585503200,3.073503173828125,-0.0103607177734375,-0.1042327880859375,1.3257293701171875
1767708646595504400,3.08350439453125,0.0583343505859375,-0.019256591796875,1.392059326171875
1767708646605504300,3.093504150390625,0.1379241943359375,0.0236358642578125,1.42138671875
1767708646615504400,3.10350439453125,0.2135009765625,0.042144775390625,1.40924072265625
1767708646625505300,3.11350537109375,0.2584686279296875,0.061737060546875,1.3764190673828125
1767708646635505200,3.123505126953125,0.25,0.0962677001953125,1.308624267578125
1767708646645506000,3.133506103515625,0.1877899169921875,0.1295318603515625,1.22540283203125
1767708646655506200,3.143506103515625,0.1320037841796875,0.15325927734375,1.150909423828125
1767708646665507300,3.15350732421875,0.0910491943359375,0.16339111328125,1.0829925537109375
1767708646675507200,3.163507080078125,0.05474853515625,0.137115478515625,1.01861572265625
1767708646685507300,3.17350732421875,0.0403900146484375,0.109161376953125,0.97747802734375
1767708646695508200,3.18350830078125,0.029388427734375,0.0762176513671875,0.9515380859375
1767708646705508400,3.19350830078125,0.0240631103515625,0.0526885986328125,0.9195098876953125
1767708646715509200,3.20350927734375,0.024688720703125,0.042510986328125,0.9000701904296875
1767708646725509000,3.213509033203125,0.0254364013671875,0.038421630859375,0.8977203369140625
1767708646735510000,3.223510009765625,0.0385284423828125,0.0407562255859375,0.89520263671875
1767708646745510400,3.233510498046875,0.0613555908203125,0.052215576171875,0.87896728515625
1767708646755510300,3.24351025390625,0.06024169921875,0.07025146484375,0.8502960205078125
1767708646765511200,3.25351123046875,0.0660247802734375,0.10430908203125,0.8177032470703125
1767708646775511300,3.26351123046875,0.0702972412109375,0.1399078369140625,0.7904052734375
1767708646785512200,3.27351220703125,0.0511627197265625,0.1624755859375,0.780487060546875
1767708646795512300,3.28351220703125,0.0302581787109375,0.164581298828125,0.7712554931640625
1767708646805513200,3.29351318359375,0.01055908203125,0.1549072265625,0.7557830810546875
1767708646815513000,3.30351318359375,0.00872802734375,0.1458587646484375,0.7513427734375
1767708646825513200,3.31351318359375,0,0.1341400146484375,0.742767333984375
1767708646835514400,3.323514404296875,-0.012481689453125,0.12939453125,0.7266998291015625
1767708646845514200,3.33351416015625,-0.0169830322265625,0.1178741455078125,0.7118988037109375
1767708646855515100,3.34351513671875,-0.0268096923828125,0.104156494140625,0.6971588134765625
1767708646865515300,3.353515380859375,-0.057830810546875,0.11456298828125,0.68817138671875
1767708646875516200,3.36351611328125,-0.0823516845703125,0.1329345703125,0.6843414306640625
1767708646885516300,3.373516357421875,-0.08856201171875,0.146484375,0.6834716796875
1767708646895516200,3.38351611328125,-0.084228515625,0.1585845947265625,0.684417724609375
1767708646905517300,3.393517333984375,-0.075927734375,0.1717987060546875,0.691253662109375
1767708646915517400,3.403517333984375,-0.06195068359375,0.17535400390625,0.7050933837890625
1767708646925518300,3.413518310546875,-0.0557861328125,0.1653594970703125,0.7140655517578125
1767708646935518200,3.423518310546875,-0.04412841796875,0.162109375,0.734954833984375
1767708646945519000,3.43351904296875,-0.0245513916015625,0.16143798828125,0.7798919677734375
1767708646955519200,3.443519287109375,-0.0051727294921875,0.1668701171875,0.84112548828125
1767708646965519000,3.45351904296875,-0.0268096923828125,0.1561279296875,0.9108428955078125
1767708646975520300,3.463520263671875,-0.0836639404296875,0.1343536376953125,1.0037994384765625
1767708646985520000,3.47352001953125,-0.1566009521484375,0.110626220703125,1.0941925048828125
1767708646995521300,3.483521240234375,-0.2282867431640625,0.080596923828125,1.1660919189453125
1767708647005521400,3.493521484375,-0.269989013671875,0.050445556640625,1.2259979248046875
1767708647015522300,3.503522216796875,-0.2691497802734375,-0.0012359619140625,1.2606658935546875
1767708647025522200,3.513522216796875,-0.2562713623046875,-0.061737060546875,1.2653350830078125
1767708647035523000,3.523523193359375,-0.231292724609375,-0.0634307861328125,1.2617645263671875
1767708647045523200,3.533523193359375,-0.21484375,-0.0018768310546875,1.22662353515625
1767708647055523000,3.543523193359375,-0.2201995849609375,0.0997161865234375,1.1909942626953125
1767708647065524200,3.553524169921875,-0.2116241455078125,0.155181884765625,1.2389373779296875
1767708647075524400,3.5635244140625,-0.2483367919921875,0.1684417724609375,1.261138916015625
1767708647085525800,3.57352587890625,-0.31048583984375,0.187774658203125,1.2462615966796875
1767708647095525600,3.583525634765625,-0.358642578125,0.188201904296875,1.192352294921875
1767708647105526800,3.59352685546875,-0.3206634521484375,0.1415252685546875,1.1218414306640625
1767708647115526700,3.603526611328125,-0.126312255859375,0.101318359375,1.0966033935546875
1767708647125526800,3.61352685546875,0.131622314453125,0.119110107421875,1.1191558837890625
1767708647135527700,3.623527587890625,0.370819091796875,0.1883544921875,1.2151031494140625
1767708647145527600,3.633527587890625,0.514923095703125,0.2603912353515625,1.316741943359375
1767708647155528400,3.643528564453125,0.5373687744140625,0.3291778564453125,1.388671875
1767708647165528600,3.653528564453125,0.47369384765625,0.36029052734375,1.43218994140625
1767708647175529700,3.66352978515625,0.3452301025390625,0.31329345703125,1.41217041015625
1767708647185529600,3.673529541015625,0.231170654296875,0.217437744140625,1.314483642578125
1767708647195529700,3.68352978515625,0.1588287353515625,0.1226654052734375,1.1684722900390625
1767708647205530600,3.693530517578125,0.1000823974609375,0.0084075927734375,1.017730712890625
1767708647215530800,3.70353076171875,0.06243896484375,-0.1024932861328125,0.969390869140625
1767708647225531600,3.71353173828125,0.04949951171875,-0.1790313720703125,1.009063720703125
1767708647235531500,3.723531494140625,0.0202484130859375,-0.2376861572265625,1.06500244140625
1767708647245532700,3.73353271484375,-0.0239410400390625,-0.26611328125,1.1156463623046875
1767708647255532800,3.74353271484375,-0.044921875,-0.2057342529296875,1.16741943359375
1767708647265533700,3.75353369140625,-0.039276123046875,-0.1002197265625,1.1901092529296875
1767708647275533600,3.763533447265625,-0.0166473388671875,-0.0194091796875,1.1731414794921875
1767708647285533700,3.77353369140625,0.04559326171875,0.068572998046875,1.184173583984375
1767708647295534600,3.78353466796875,0.08160400390625,0.1217803955078125,1.2120361328125
1767708647305534700,3.79353466796875,0.0803985595703125,0.14556884765625,1.185577392578125
1767708647315535600,3.80353564453125,0.05157470703125,0.151580810546875,1.11322021484375
1767708647325535500,3.813535400390625,0.02691650390625,0.13824462890625,1.0273590087890625
1767708647335536600,3.82353662109375,0.02130126953125,0.1112213134765625,0.938690185546875
1767708647345536800,3.833536865234375,0.0170135498046875,0.0800628662109375,0.8511962890625
1767708647355536600,3.84353662109375,0.0152740478515625,0.057769775390625,0.7798004150390625
1767708647365537500,3.85353759765625,0.0204925537109375,0.0279388427734375,0.71868896484375
1767708647375537700,3.86353759765625,0.012847900390625,-0.000579833984375,0.6699676513671875
1767708647385538600,3.87353857421875,0.0208587646484375,-0.0066986083984375,0.6449432373046875
1767708647395538700,3.88353857421875,0.034088134765625,-0.0042877197265625,0.64276123046875
1767708647405539800,3.893539794921875,0.02166748046875,-0.022247314453125,0.6443023681640625
1767708647415539700,3.903539794921875,0.0110626220703125,-0.036224365234375,0.640716552734375
1767708647425539800,3.913539794921875,0.005767822265625,-0.047119140625,0.6430206298828125
1767708647435540700,3.923540771484375,-0.006866455078125,-0.047943115234375,0.656158447265625
1767708647445540600,3.93354052734375,-0.005859375,-0.0555572509765625,0.6710662841796875
1767708647455541500,3.94354150390625,-0.006011962890625,-0.08740234375,0.6822662353515625
1767708647465541600,3.953541748046875,-0.0190277099609375,-0.1119537353515625,0.7053985595703125
1767708647475542500,3.96354248046875,-0.034210205078125,-0.1156463623046875,0.7364654541015625
1767708647485542700,3.973542724609375,-0.064788818359375,-0.1265716552734375,0.7532196044921875
1767708647495543800,3.983543701171875,-0.118499755859375,-0.1268157958984375,0.7714691162109375
1767708647505543700,3.993543701171875,-0.1473846435546875,-0.110992431640625,0.79168701171875
1767708647515543800,4.003543701171875,-0.1562957763671875,-0.0989227294921875,0.798583984375
1767708647525544700,4.013544677734375,-0.1798858642578125,-0.0774993896484375,0.81060791015625
1767708647535544600,4.023544677734375,-0.206268310546875,-0.0496673583984375,0.8199462890625
1767708647545545500,4.03354541015625,-0.209686279296875,-0.0121002197265625,0.833526611328125
1767708647555545600,4.043545654296875,-0.1949615478515625,0.0106048583984375,0.85186767578125
1767708647565546800,4.053546630859375,-0.179931640625,0.0345611572265625,0.8887939453125
1767708647575546600,4.063546630859375,-0.146209716796875,0.0728759765625,0.940216064453125
1767708647585546800,4.073546630859375,-0.0955810546875,0.09503173828125,0.9835357666015625
1767708647595547600,4.083547607421875,-0.053375244140625,0.1181793212890625,0.9847412109375
1767708647605547800,4.0935478515625,-0.0691986083984375,0.1326904296875,0.9795684814453125
1767708647615548700,4.103548583984375,-0.18670654296875,0.104278564453125,1.03094482421875
1767708647625548500,4.113548583984375,-0.37353515625,0.0706787109375,1.1499786376953125
1767708647635549400,4.123549560546875,-0.5752410888671875,0.002044677734375,1.25927734375
1767708647645549600,4.133549560546875,-0.633209228515625,-0.0706787109375,1.3341522216796875
1767708647655550700,4.14355078125,-0.5092315673828125,-0.166259765625,1.3326263427734375
1767708647665550600,4.153550537109375,-0.31884765625,-0.27398681640625,1.265380859375
1767708647675550700,4.16355078125,-0.174560546875,-0.345703125,1.16204833984375
1767708647685551600,4.173551513671875,-0.0780487060546875,-0.331695556640625,1.1377716064453125
1767708647695551700,4.1835517578125,0.06976318359375,-0.233734130859375,1.22705078125
1767708647705552600,4.193552734375,0.1930084228515625,-0.1601409912109375,1.3348846435546875
1767708647715552500,4.203552490234375,0.2060394287109375,-0.0848388671875,1.4371795654296875
1767708647725553700,4.2135537109375,0.173095703125,0.0147552490234375,1.50689697265625
1767708647735553800,4.2235537109375,0.1784515380859375,0.0520782470703125,1.5729217529296875
1767708647745553700,4.2335537109375,0.1959686279296875,0.0668182373046875,1.6084442138671875
1767708647755554600,4.243554443359375,0.237030029296875,0.05694580078125,1.5411834716796875
1767708647765554700,4.2535546875,0.2720947265625,0.024261474609375,1.3832244873046875
1767708647775555600,4.2635556640625,0.2617645263671875,0.0242767333984375,1.19354248046875
1767708647785555700,4.2735556640625,0.2626190185546875,0.0405731201171875,1.056884765625
1767708647795556600,4.283556640625,0.280517578125,0.072509765625,0.965728759765625
1767708647805556500,4.293556396484375,0.2737274169921875,0.12237548828125,0.9106292724609375
1767708647815557600,4.3035576171875,0.226837158203125,0.16314697265625,0.915802001953125
1767708647825557800,4.313557861328125,0.1580352783203125,0.192535400390625,0.960479736328125
1767708647835557600,4.3235576171875,0.104156494140625,0.1994476318359375,1.024200439453125
1767708647845558500,4.33355859375,0.1103363037109375,0.18939208984375,1.0850067138671875
1767708647855558700,4.34355859375,0.126678466796875,0.1560516357421875,1.1256103515625
1767708647865559600,4.3535595703125,0.1160736083984375,0.116455078125,1.134429931640625
1767708647875559700,4.3635595703125,0.083587646484375,0.080291748046875,1.131072998046875
1767708647885560800,4.373560791015625,0.0418701171875,0.0396270751953125,1.1161956787109375
1767708647895560700,4.383560791015625,0.0030975341796875,0.015045166015625,1.0892181396484375
1767708647905560800,4.393560791015625,-0.0156707763671875,-0.001190185546875,1.018463134765625
1767708647915561700,4.403561767578125,-0.021240234375,-0.0223236083984375,0.922821044921875
1767708647925561600,4.4135615234375,-0.01214599609375,-0.0402374267578125,0.8220672607421875
1767708647935562500,4.4235625,0.0002899169921875,-0.0563507080078125,0.7294158935546875
1767708647945562600,4.433562744140625,0.0232696533203125,-0.066162109375,0.661407470703125
1767708647955563500,4.4435634765625,0.0494537353515625,-0.0669403076171875,0.6034698486328125
1767708647965563600,4.453563720703125,0.06939697265625,-0.04901123046875,0.5500946044921875
1767708647975564800,4.463564697265625,0.0759429931640625,-0.0071563720703125,0.5406494140625
1767708647985564700,4.473564697265625,0.0754852294921875,0.042877197265625,0.5509033203125
1767708647995564800,4.483564697265625,0.061981201171875,0.0854949951171875,0.5676116943359375
1767708648005565700,4.493565673828125,0.0626983642578125,0.1257476806640625,0.5877685546875
1767708648015565600,4.503565673828125,0.0827789306640625,0.152740478515625,0.6001129150390625
1767708648025566500,4.51356640625,0.0758819580078125,0.1773529052734375,0.62396240234375
1767708648035566600,4.523566650390625,0.040802001953125,0.2077178955078125,0.6455535888671875
1767708648045567700,4.533567626953125,0.0046539306640625,0.2269439697265625,0.663726806640625
1767708648055567600,4.543567626953125,-0.022247314453125,0.2460784912109375,0.6949462890625
1767708648065568800,4.55356884765625,-0.0436553955078125,0.2557525634765625,0.742828369140625
1767708648075568600,4.563568603515625,-0.0425262451171875,0.2427215576171875,0.7706756591796875
1767708648085568500,4.573568603515625,-0.0303192138671875,0.2026519775390625,0.8135528564453125
1767708648095569400,4.5835693359375,-0.0128326416015625,0.151824951171875,0.8260650634765625
1767708648105569300,4.5935693359375,-0.0231170654296875,0.104278564453125,0.8458709716796875
1767708648115570400,4.6035703125,-0.063934326171875,0.060943603515625,0.8883056640625
1767708648125570300,4.6135703125,-0.08306884765625,0.041748046875,0.92852783203125
1767708648135571200,4.6235712890625,-0.061279296875,0.024871826171875,1.0011138916015625
1767708648145571600,4.633571533203125,-0.0416259765625,0.0186920166015625,1.0786285400390625
1767708648155571500,4.643571533203125,-0.0308990478515625,0.03558349609375,1.1489105224609375
1767708648165572400,4.653572265625,-0.075103759765625,0.0603790283203125,1.210113525390625
1767708648175572500,4.663572509765625,-0.1561126708984375,0.0697174072265625,1.2764892578125
1767708648185573400,4.673573486328125,-0.198150634765625,0.0735931396484375,1.3447723388671875
1767708648195573200,4.6835732421875,-0.258270263671875,0.0499114990234375,1.3634185791015625
1767708648205574400,4.693574462890625,-0.33648681640625,0.0305023193359375,1.3132171630859375
1767708648215574300,4.70357421875,-0.3462066650390625,0.0223541259765625,1.255584716796875
1767708648225575400,4.713575439453125,-0.300689697265625,0.0027923583984375,1.24652099609375
1767708648235575600,4.723575439453125,-0.271392822265625,0.0129852294921875,1.197845458984375
1767708648245575400,4.733575439453125,-0.1772003173828125,0.04510498046875,1.182403564453125
1767708648255576300,4.743576416015625,0.0200347900390625,0.0739593505859375,1.206268310546875
1767708648265576400,4.753576416015625,0.2576751708984375,0.130950927734375,1.2457275390625
1767708648275577300,4.763577392578125,0.47808837890625,0.2111358642578125,1.32293701171875
1767708648285577200,4.7735771484375,0.6693878173828125,0.261749267578125,1.4134521484375
1767708648295578400,4.783578369140625,0.7275543212890625,0.2977447509765625,1.4550018310546875
1767708648305578500,4.79357861328125,0.5824432373046875,0.32452392578125,1.4426116943359375
1767708648315579400,4.803579345703125,0.347625732421875,0.29400634765625,1.37615966796875
1767708648325579500,4.81357958984375,0.1842041015625,0.209686279296875,1.1796417236328125
1767708648335579400,4.823579345703125,0.0977020263671875,0.09429931640625,1.03668212890625
1767708648345580300,4.833580322265625,0.0594329833984375,-0.00592041015625,1.009613037109375
1767708648355580400,4.843580322265625,0.02490234375,-0.07623291015625,1.0409088134765625
1767708648365581300,4.853581298828125,0.0022735595703125,-0.086822509765625,1.083740234375
1767708648375581200,4.863581298828125,-0.0023345947265625,-0.09442138671875,1.1213836669921875
1767708648385582300,4.873582275390625,0.0175323486328125,-0.0609588623046875,1.1646270751953125
1767708648395582500,4.88358251953125,0.0554046630859375,0.018218994140625,1.190399169921875
1767708648405583400,4.893583251953125,0.06500244140625,0.0751800537109375,1.206207275390625
1767708648415583500,4.90358349609375,0.056915283203125,0.100677490234375,1.236602783203125
1767708648425583400,4.913583251953125,0.084259033203125,0.13385009765625,1.2613372802734375
1767708648435584300,4.923584228515625,0.1135711669921875,0.12762451171875,1.229766845703125
1767708648445584400,4.93358447265625,0.121551513671875,0.089141845703125,1.1365509033203125
1767708648455585300,4.943585205078125,0.1092529296875,0.0543670654296875,1.0268402099609375
1767708648465585400,4.95358544921875,0.090576171875,0.0124359130859375,0.905731201171875
1767708648475586300,4.96358642578125,0.075347900390625,-0.0309295654296875,0.7967987060546875
1767708648485586400,4.97358642578125,0.0746612548828125,-0.06573486328125,0.705322265625
1767708648495586300,4.98358642578125,0.06048583984375,-0.058868408203125,0.6339874267578125
1767708648505587500,4.99358740234375,0.0484771728515625,-0.047119140625,0.575958251953125
1767708648515587300,5.00358740234375,0.0597381591796875,-0.049102783203125,0.5339202880859375
1767708648525588200,5.013588134765625,0.0794830322265625,-0.058013916015625,0.50927734375
1767708648535588400,5.02358837890625,0.0610504150390625,-0.082000732421875,0.5140380859375
1767708648545589500,5.033589599609375,0.0230865478515625,-0.117279052734375,0.5575408935546875
1767708648555589400,5.04358935546875,-0.0006256103515625,-0.122406005859375,0.6072845458984375
1767708648565590300,5.05359033203125,-0.0153656005859375,-0.1303253173828125,0.66436767578125
1767708648575590400,5.06359033203125,-0.046905517578125,-0.135009765625,0.7271881103515625
1767708648585590300,5.07359033203125,-0.079559326171875,-0.130126953125,0.769622802734375
1767708648595591400,5.08359130859375,-0.1183319091796875,-0.12548828125,0.784393310546875
1767708648605591300,5.09359130859375,-0.147430419921875,-0.1124725341796875,0.80010986328125
1767708648615592200,5.10359228515625,-0.1644287109375,-0.0898590087890625,0.8115234375
1767708648625592600,5.113592529296875,-0.1715240478515625,-0.055938720703125,0.82440185546875
1767708648635593500,5.123593505859375,-0.1700439453125,-0.0242919921875,0.8121490478515625
1767708648645593300,5.13359326171875,-0.1611175537109375,-0.000579833984375,0.8017730712890625
1767708648655594200,5.14359423828125,-0.16888427734375,0.0031585693359375,0.815155029296875
1767708648665594400,5.153594482421875,-0.200897216796875,0.0067901611328125,0.835418701171875
1767708648675594200,5.16359423828125,-0.25799560546875,0.0330352783203125,0.8292236328125
1767708648685595400,5.173595458984375,-0.278167724609375,0.0368499755859375,0.867584228515625
1767708648695595300,5.18359521484375,-0.23876953125,0.031982421875,0.9472503662109375
1767708648705596400,5.193596435546875,-0.0995941162109375,0.02008056640625,1.048919677734375
1767708648715596500,5.203596435546875,0.0445709228515625,-0.0039520263671875,1.1251220703125
1767708648725597400,5.213597412109375,0.0717315673828125,-0.001556396484375,1.0899505615234375
1767708648735597300,5.223597412109375,-0.0998992919921875,0.04815673828125,0.98541259765625
1767708648745597400,5.233597412109375,-0.4066925048828125,0.1410980224609375,0.9729766845703125
1767708648755598300,5.243598388671875,-0.6328582763671875,0.178802490234375,1.1858673095703125
1767708648765598200,5.25359814453125,-0.6402740478515625,0.1173858642578125,1.342742919921875
1767708648775599400,5.263599365234375,-0.5074310302734375,0.017364501953125,1.348236083984375
1767708648785599500,5.273599609375,-0.2847900390625,-0.172882080078125,1.27471923828125
1767708648795600400,5.283600341796875,-0.076873779296875,-0.3363494873046875,1.2018890380859375
1767708648805600500,5.2936005859375,0.050506591796875,-0.3845367431640625,1.1379547119140625
1767708648815601400,5.303601318359375,0.1868743896484375,-0.304656982421875,1.2036285400390625
1767708648825601300,5.313601318359375,0.3679046630859375,-0.199981689453125,1.32745361328125
1767708648835601400,5.323601318359375,0.39788818359375,-0.10943603515625,1.4126434326171875
1767708648845602300,5.333602294921875,0.365325927734375,-0.0040283203125,1.4575653076171875
1767708648855602200,5.343602294921875,0.3075103759765625,0.019561767578125,1.54803466796875
1767708648865603300,5.353603271484375,0.2491912841796875,0.0041656494140625,1.589080810546875
1767708648875603500,5.363603515625,0.269378662109375,-0.033966064453125,1.474456787109375
1767708648885604400,5.373604248046875,0.2751922607421875,-0.0427703857421875,1.273681640625
1767708648895604500,5.3836044921875,0.27777099609375,-0.005401611328125,1.1163787841796875
1767708648905605400,5.39360546875,0.33038330078125,0.0087432861328125,1.061126708984375
1767708648915605200,5.403605224609375,0.368133544921875,0.0371856689453125,1.0840606689453125
1767708648925605400,5.41360546875,0.3065643310546875,0.1056060791015625,1.135772705078125
1767708648935606300,5.423606201171875,0.176971435546875,0.13702392578125,1.168304443359375
1767708648945606400,5.4336064453125,0.140472412109375,0.14898681640625,1.2005615234375
1767708648955607300,5.443607177734375,0.205047607421875,0.119903564453125,1.2447662353515625
1767708648965607400,5.453607421875,0.230194091796875,0.112091064453125,1.275665283203125
1767708648975608300,5.4636083984375,0.1877593994140625,0.0951080322265625,1.24261474609375
1767708648985608400,5.4736083984375,0.131591796875,0.0684814453125,1.1430206298828125
1767708648995609300,5.483609375,0.0889739990234375,0.0502166748046875,1.0524139404296875
1767708649005609200,5.493609130859375,0.072357177734375,0.0310821533203125,0.9718017578125
1767708649015609300,5.503609375,0.0669708251953125,0.0087890625,0.88787841796875
1767708649025610500,5.513610595703125,0.0756988525390625,-0.024566650390625,0.7996368408203125
1767708649035610400,5.5236103515625,0.0704193115234375,-0.0483856201171875,0.7003173828125
1767708649045611300,5.533611328125,0.073577880859375,-0.0585479736328125,0.6175384521484375
1767708649055611400,5.543611328125,0.0739898681640625,-0.0485382080078125,0.5753936767578125
1767708649065612300,5.5536123046875,0.0670166015625,-0.0319976806640625,0.537628173828125
1767708649075612400,5.5636123046875,0.0758819580078125,-0.0112762451171875,0.5116424560546875
1767708649085612000,5.573612060546875,0.0745086669921875,0.0219573974609375,0.536224365234375
1767708649095613000,5.583613037109375,0.072357177734375,0.068939208984375,0.5530242919921875
1767708649105613000,5.593613037109375,0.0630645751953125,0.094940185546875,0.5692138671875
1767708649115614200,5.6036142578125,0.0590362548828125,0.13763427734375,0.60809326171875
1767708649125614000,5.613614013671875,0.039520263671875,0.202728271484375,0.606231689453125
1767708649135615200,5.623615234375,0.021148681640625,0.229248046875,0.5880126953125
1767708649145615000,5.633614990234375,0.0184326171875,0.2254486083984375,0.5785675048828125
1767708649155616000,5.643615966796875,0.0040435791015625,0.218170166015625,0.569549560546875
1767708649165616000,5.6536162109375,-0.0180816650390625,0.2047119140625,0.575103759765625
1767708649175616000,5.663615966796875,-0.027099609375,0.1851348876953125,0.6277923583984375
1767708649185617200,5.6736171875,-0.01849365234375,0.169830322265625,0.6878814697265625
1767708649195617300,5.6836171875,-0.0271759033203125,0.1450042724609375,0.746673583984375
1767708649205618200,5.6936181640625,-0.0361328125,0.1211700439453125,0.806396484375
1767708649215618000,5.7036181640625,-0.019866943359375,0.1003875732421875,0.86285400390625
1767708649225619200,5.713619140625,-0.0108184814453125,0.096343994140625,0.9143829345703125
1767708649235619000,5.723619140625,-0.0018463134765625,0.091094970703125,0.974029541015625
1767708649245620000,5.733619873046875,0.01910400390625,0.0816497802734375,1.0430755615234375
1767708649255620000,5.7436201171875,-0.01885986328125,0.082000732421875,1.1037139892578125
1767708649265620000,5.753619873046875,-0.097259521484375,0.1195220947265625,1.1454315185546875
1767708649275621000,5.76362109375,-0.1806488037109375,0.16595458984375,1.1824188232421875
1767708649285621200,5.773621337890625,-0.271240234375,0.1941375732421875,1.2253570556640625
1767708649295622100,5.7836220703125,-0.3561553955078125,0.1494140625,1.3281402587890625
1767708649305622000,5.7936220703125,-0.4075469970703125,0.0641326904296875,1.4642333984375
1767708649315623200,5.803623046875,-0.491455078125,-0.00469970703125,1.4957122802734375
1767708649325623000,5.813623046875,-0.537689208984375,0.004791259765625,1.4181365966796875
1767708649335624200,5.823624267578125,-0.374114990234375,0.011566162109375,1.3254547119140625
1767708649345624300,5.833624267578125,-0.0803680419921875,-0.0574951171875,1.2455902099609375
1767708649355624200,5.843624267578125,0.135528564453125,-0.1273193359375,1.2327728271484375
1767708649365625000,5.853625,0.3855438232421875,-0.0781097412109375,1.364288330078125
1767708649375625200,5.863625244140625,0.6389312744140625,0.0253753662109375,1.4679107666015625
1767708649385626000,5.873626220703125,0.7766876220703125,0.1028594970703125,1.480560302734375
1767708649395626000,5.8836259765625,0.723052978515625,0.206451416015625,1.4288330078125
1767708649405627100,5.893627197265625,0.602569580078125,0.3511810302734375,1.3545379638671875
1767708649415627000,5.903626953125,0.3775177001953125,0.38543701171875,1.2821044921875
1767708649425627000,5.913626953125,0.18768310546875,0.2942962646484375,1.158538818359375
1767708649435628300,5.923628173828125,0.1329498291015625,0.165740966796875,1.0616455078125
1767708649445628200,5.933628173828125,0.0882720947265625,0.01629638671875,1.04888916015625
1767708649455629000,5.943629150390625,0.0677337646484375,-0.084869384765625,1.08258056640625
1767708649465629200,5.953629150390625,0.0795440673828125,-0.14080810546875,1.1801605224609375
1767708649475630000,5.963630126953125,0.0686492919921875,-0.1736297607421875,1.247802734375
1767708649485630000,5.9736298828125,0.0585784912109375,-0.1642913818359375,1.2823028564453125
1767708649495631000,5.983631103515625,0.0457305908203125,-0.1125335693359375,1.2642669677734375
1767708649505631200,5.99363134765625,0.0258026123046875,-0.048095703125,1.1857757568359375
1767708649515632000,6.003632080078125,0.072723388671875,0.0110015869140625,1.1344451904296875
1767708649525632300,6.01363232421875,0.1356658935546875,0.03509521484375,1.1437530517578125
1767708649535632100,6.023632080078125,0.1630859375,0.0485382080078125,1.145751953125
1767708649545633000,6.033633056640625,0.1462554931640625,0.04937744140625,1.0838470458984375
1767708649555633200,6.043633056640625,0.09710693359375,0.0267486572265625,0.9804840087890625
1767708649565634000,6.053634033203125,0.059906005859375,0.0211029052734375,0.8822479248046875
1767708649575634000,6.063634033203125,0.0471954345703125,0.0206756591796875,0.7993316650390625
1767708649585635000,6.073635009765625,0.0635223388671875,-0.0030364990234375,0.7039031982421875
1767708649595635200,6.08363525390625,0.0567779541015625,-0.0494537353515625,0.615447998046875
1767708649605635000,6.093635009765625,0.0418701171875,-0.060333251953125,0.5550384521484375
1767708649615636200,6.10363623046875,0.0457611083984375,-0.068756103515625,0.5032501220703125
1767708649625636000,6.113635986328125,0.02874755859375,-0.087188720703125,0.4449310302734375
1767708649635637000,6.123636962890625,0.016387939453125,-0.1029815673828125,0.42822265625
1767708649645637000,6.13363720703125,-0.000518798828125,-0.1167755126953125,0.4519195556640625
1767708649655638300,6.14363818359375,-0.01202392578125,-0.129364013671875,0.491241455078125
1767708649665638100,6.15363818359375,-0.019989013671875,-0.1400146484375,0.5367584228515625
1767708649675639000,6.16363916015625,-0.05047607421875,-0.1363677978515625,0.576019287109375
1767708649685639200,6.17363916015625,-0.09234619140625,-0.1163330078125,0.61181640625
1767708649695639000,6.18363916015625,-0.1145172119140625,-0.1020050048828125,0.6547698974609375
1767708649705640200,6.19364013671875,-0.1129608154296875,-0.0912933349609375,0.71533203125
1767708649715640000,6.20364013671875,-0.111907958984375,-0.075225830078125,0.7808074951171875
1767708649725641000,6.213640869140625,-0.13507080078125,-0.0602264404296875,0.8194580078125
1767708649735641000,6.22364111328125,-0.1757049560546875,-0.037109375,0.842132568359375
1767708649745642200,6.233642333984375,-0.2074432373046875,-0.01873779296875,0.857666015625
1767708649755642000,6.24364208984375,-0.234130859375,-0.001220703125,0.8612518310546875
1767708649765643000,6.25364306640625,-0.2397918701171875,0.0264129638671875,0.88299560546875
1767708649775643100,6.26364306640625,-0.2000885009765625,0.03228759765625,0.942718505859375
1767708649785643000,6.27364306640625,-0.1426849365234375,0.0052337646484375,1.02386474609375
1767708649795644200,6.28364404296875,-0.0801849365234375,-0.0027923583984375,1.0894317626953125
1767708649805644000,6.29364404296875,-0.0668182373046875,0.0225677490234375,1.109344482421875
1767708649815645200,6.303645263671875,-0.164306640625,0.1004791259765625,1.101470947265625
1767708649825645300,6.313645263671875,-0.3647918701171875,0.1731414794921875,1.1520233154296875
1767708649835646200,6.323646240234375,-0.568511962890625,0.1993408203125,1.26409912109375
1767708649845646000,6.33364599609375,-0.665313720703125,0.139801025390625,1.39752197265625
1767708649855647000,6.34364697265625,-0.579010009765625,0.005157470703125,1.4843902587890625
1767708649865647000,6.353647216796875,-0.349578857421875,-0.144622802734375,1.4185791015625
1767708649875647000,6.36364697265625,-0.1212921142578125,-0.2435302734375,1.2430572509765625
1767708649885648100,6.373648193359375,0.0723419189453125,-0.2453765869140625,1.108795166015625
1767708649895648000,6.38364794921875,0.2651824951171875,-0.2159423828125,1.1378021240234375
1767708649905649200,6.393649169921875,0.3700408935546875,-0.1991119384765625,1.28619384765625
1767708649915649300,6.403649169921875,0.320404052734375,-0.1503753662109375,1.376434326171875
1767708649925650200,6.413650146484375,0.2345428466796875,-0.0693511962890625,1.466644287109375
1767708649935650000,6.423650146484375,0.181365966796875,-0.049407958984375,1.590301513671875
1767708649945650200,6.433650146484375,0.2012176513671875,-0.0389404296875,1.6045989990234375
1767708649955651000,6.443651123046875,0.272979736328125,-0.02764892578125,1.487335205078125
1767708649965651000,6.45365087890625,0.339111328125,-0.01971435546875,1.3469390869140625
1767708649975652000,6.463652099609375,0.3824462890625,0.01885986328125,1.2307281494140625
1767708649985652200,6.47365234375,0.351531982421875,0.0831451416015625,1.1326446533203125
1767708649995653000,6.483653076171875,0.2943115234375,0.161468505859375,1.09869384765625
1767708650005653200,6.4936533203125,0.228240966796875,0.2210693359375,1.1130523681640625
1767708650015654100,6.503654052734375,0.1609039306640625,0.23382568359375,1.143310546875
1767708650025654000,6.513654052734375,0.136444091796875,0.1953125,1.162017822265625
1767708650035654100,6.523654052734375,0.1844024658203125,0.1273193359375,1.1875152587890625
1767708650045655000,6.533655029296875,0.2265777587890625,0.07916259765625,1.2165985107421875
1767708650055655000,6.543655029296875,0.20245361328125,0.05389404296875,1.1753082275390625
1767708650065656000,6.553656005859375,0.1524658203125,0.0360107421875,1.1134796142578125
1767708650075656200,6.56365625,0.108001708984375,0.0251922607421875,1.072357177734375
1767708650085657000,6.573656982421875,0.08209228515625,0.009002685546875,1.0185546875
1767708650095658000,6.583657958984375,0.0682373046875,-0.0052490234375,0.95892333984375
1767708650105659100,6.5936591796875,0.0432281494140625,-0.0095672607421875,0.87652587890625
1767708650115659000,6.603658935546875,0.020904541015625,-0.006317138671875,0.769500732421875
1767708650125659000,6.613658935546875,-0.0011444091796875,-0.000335693359375,0.667572021484375
1767708650135660000,6.623659912109375,0.001434326171875,-0.0047607421875,0.5955352783203125
1767708650145660000,6.633659912109375,0.022186279296875,-0.011932373046875,0.542449951171875
1767708650155660800,6.643660888671875,0.0428924560546875,0.006317138671875,0.5140838623046875
1767708650165661000,6.653660888671875,0.0612335205078125,0.0437469482421875,0.490478515625
1767708650175662000,6.663662109375,0.0813446044921875,0.0899505615234375,0.4738311767578125
1767708650185662000,6.673661865234375,0.0876617431640625,0.1410980224609375,0.478424072265625
1767708650195662800,6.683662841796875,0.066986083984375,0.19921875,0.5019683837890625
1767708650205663000,6.6936630859375,0.0442962646484375,0.23211669921875,0.5269317626953125
1767708650215662800,6.703662841796875,0.0278778076171875,0.2304840087890625,0.554473876953125
1767708650225664000,6.7136640625,0.0066986083984375,0.2154998779296875,0.5856475830078125
1767708650235664000,6.723663818359375,-0.0200042724609375,0.20477294921875,0.60211181640625
1767708650245665000,6.7336650390625,-0.0392608642578125,0.2153778076171875,0.6344757080078125
1767708650255665200,6.7436650390625,-0.0588836669921875,0.230194091796875,0.67230224609375
1767708650265666000,6.753666015625,-0.064300537109375,0.23309326171875,0.715423583984375
1767708650275666000,6.763666015625,-0.04730224609375,0.201080322265625,0.77703857421875
1767708650285666800,6.773666748046875,-0.0362091064453125,0.168853759765625,0.8348846435546875
1767708650295667000,6.7836669921875,-0.0484771728515625,0.1355133056640625,0.882476806640625
1767708650305666800,6.793666748046875,-0.062835693359375,0.0865936279296875,0.9137725830078125
1767708650315668000,6.80366796875,-0.061126708984375,0.0394744873046875,0.9530487060546875
1767708650325667800,6.813667724609375,-0.0329132080078125,0.01007080078125,1.0279693603515625
1767708650335669000,6.8236689453125,-0.0018768310546875,-0.0035858154296875,1.0967864990234375
1767708650345669000,6.833669189453125,-0.02520751953125,0.0279388427734375,1.1365509033203125
1767708650355670000,6.843669921875,-0.0760955810546875,0.0994110107421875,1.1679534912109375
1767708650365670000,6.853669921875,-0.153717041015625,0.1570281982421875,1.2571868896484375
1767708650375670000,6.863669921875,-0.263885498046875,0.14654541015625,1.3717498779296875
1767708650385671000,6.8736708984375,-0.3883514404296875,0.0658111572265625,1.4515533447265625
1767708650395670800,6.8836708984375,-0.4603118896484375,-0.0236358642578125,1.4947357177734375
1767708650405672200,6.893672119140625,-0.4345550537109375,-0.0969390869140625,1.43603515625
1767708650415672000,6.903672119140625,-0.284271240234375,-0.1208343505859375,1.2894439697265625
1767708650425673000,6.9136728515625,0.0155181884765625,-0.1180572509765625,1.171722412109375
1767708650435673000,6.923673095703125,0.319549560546875,-0.0506439208984375,1.15740966796875
1767708650445674000,6.933674072265625,0.6374053955078125,0.065582275390625,1.2692718505859375
1767708650455673900,6.943673828125,0.8401947021484375,0.176605224609375,1.3472900390625
1767708650465674000,6.953674072265625,0.7821044921875,0.32598876953125,1.392730712890625
1767708650475675000,6.9636748046875,0.5938262939453125,0.4647064208984375,1.42315673828125
1767708650485674800,6.9736748046875,0.3983306884765625,0.511627197265625,1.4100799560546875
1767708650495676200,6.98367626953125,0.2177734375,0.420166015625,1.29718017578125
1767708650505676000,6.993676025390625,0.092681884765625,0.240997314453125,1.033477783203125
1767708650515677000,7.003677001953125,0.0848541259765625,0.07989501953125,0.9139404296875
1767708650525677000,7.013677001953125,0.15118408203125,-0.0085906982421875,0.9406890869140625
1767708650535678000,7.023677978515625,0.1935577392578125,-0.03411865234375,1.0438079833984375
1767708650545677800,7.033677734375,0.1400604248046875,0.00830078125,1.154754638671875
1767708650555678000,7.043677978515625,0.04364013671875,0.095733642578125,1.28558349609375
1767708650565679000,7.05367919921875,-0.00933837890625,0.17022705078125,1.375701904296875
1767708650575679000,7.063678955078125,0.015655517578125,0.1963653564453125,1.4167327880859375
1767708650585680100,7.07368017578125,0.072998046875,0.1741943359375,1.4196319580078125
1767708650595680000,7.083679931640625,0.1390380859375,0.133758544921875,1.3513641357421875
1767708650605681000,7.093680908203125,0.195709228515625,0.083953857421875,1.2674713134765625
1767708650615681000,7.103680908203125,0.1947479248046875,0.02288818359375,1.159515380859375
1767708650625682000,7.113681884765625,0.1560211181640625,-0.0191802978515625,1.0352020263671875
1767708650635681800,7.123681884765625,0.102386474609375,-0.060516357421875,0.8903656005859375
1767708650645682000,7.133681884765625,0.0541534423828125,-0.0861968994140625,0.757415771484375
1767708650655683000,7.14368310546875,0.0355224609375,-0.0985107421875,0.6655120849609375
1767708650665683000,7.153682861328125,0.0365447998046875,-0.0909881591796875,0.58135986328125
1767708650675684000,7.16368408203125,0.0372161865234375,-0.086181640625,0.5112762451171875
1767708650685684000,7.17368408203125,0.0240325927734375,-0.0732421875,0.4629974365234375
1767708650695684900,7.183684814453125,0.0058441162109375,-0.0574188232421875,0.446929931640625
1767708650705685000,7.19368505859375,-0.00927734375,-0.051239013671875,0.46258544921875
1767708650715686100,7.20368603515625,-0.0190887451171875,-0.0568389892578125,0.5061187744140625
1767708650725686000,7.21368603515625,-0.0315399169921875,-0.07476806640625,0.5691375732421875
1767708650735686100,7.22368603515625,-0.049041748046875,-0.0819244384765625,0.62347412109375
1767708650745687000,7.23368701171875,-0.0634002685546875,-0.089935302734375,0.6554718017578125
1767708650755687000,7.24368701171875,-0.082489013671875,-0.115142822265625,0.6883697509765625
1767708650765688000,7.25368798828125,-0.110198974609375,-0.1117401123046875,0.7144317626953125
1767708650775688000,7.26368798828125,-0.124542236328125,-0.10546875,0.720550537109375
1767708650785688800,7.273688720703125,-0.139373779296875,-0.1071319580078125,0.7091522216796875
1767708650795689000,7.28368896484375,-0.146728515625,-0.089508056640625,0.712615966796875
1767708650805688800,7.293688720703125,-0.149139404296875,-0.083648681640625,0.7350311279296875
1767708650815690000,7.30368994140625,-0.181671142578125,-0.0575408935546875,0.7656097412109375
1767708650825690000,7.313690185546875,-0.228729248046875,-0.03778076171875,0.7866363525390625
1767708650835691000,7.32369091796875,-0.261749267578125,-0.0248260498046875,0.81878662109375
1767708650845691000,7.33369091796875,-0.233367919921875,-0.0069122314453125,0.8792266845703125
1767708650855692000,7.343692138671875,-0.120208740234375,-0.0077362060546875,0.97137451171875
1767708650865692000,7.35369189453125,0.0212249755859375,-0.027862548828125,1.06085205078125
1767708650875693000,7.363693115234375,0.1153106689453125,-0.0381317138671875,1.0888519287109375
1767708650885693200,7.373693115234375,0.0336761474609375,-0.0124053955078125,1.0861663818359375
1767708650895693000,7.383693115234375,-0.2801666259765625,0.0427703857421875,1.1192169189453125
1767708650905694000,7.39369384765625,-0.641448974609375,0.104827880859375,1.23046875
1767708650915694000,7.403694091796875,-0.804290771484375,0.104949951171875,1.3861236572265625
1767708650925695000,7.413695068359375,-0.7145538330078125,0.021881103515625,1.4951934814453125
1767708650935694800,7.42369482421875,-0.4503326416015625,-0.1245574951171875,1.506561279296875
1767708650945696000,7.433696044921875,-0.1460418701171875,-0.3027191162109375,1.32281494140625
1767708650955695900,7.44369580078125,0.0384979248046875,-0.3789825439453125,1.1274261474609375
1767708650965697000,7.453697021484375,0.1479339599609375,-0.32171630859375,1.1306610107421875
1767708650975697200,7.463697265625,0.232696533203125,-0.169708251953125,1.21435546875
1767708650985697000,7.473697021484375,0.2946319580078125,-0.0517730712890625,1.3184051513671875
1767708650995698000,7.483697998046875,0.308624267578125,0.0063018798828125,1.4217071533203125
1767708651005698000,7.493697998046875,0.3003082275390625,0.0528564453125,1.516937255859375
1767708651015699000,7.503698974609375,0.2888336181640625,0.063018798828125,1.6079559326171875
1767708651025698800,7.51369873046875,0.301544189453125,0.0433807373046875,1.600341796875
1767708651035700000,7.523699951171875,0.3155670166015625,0.0086669921875,1.4464874267578125
1767708651045700000,7.5337001953125,0.3143463134765625,-0.00836181640625,1.197662353515625
1767708651055701000,7.543700927734375,0.319580078125,0.0134124755859375,0.972503662109375
1767708651065701000,7.553701171875,0.3101654052734375,0.0514373779296875,0.900238037109375
1767708651075701000,7.563700927734375,0.281829833984375,0.106109619140625,0.9188690185546875
1767708651085702000,7.573701904296875,0.1891021728515625,0.1605377197265625,0.99542236328125
1767708651095701200,7.583701171875,0.1125335693359375,0.1864013671875,1.0897369384765625
1767708651105702100,7.5937021484375,0.1307220458984375,0.15240478515625,1.1496734619140625
1767708651115702300,7.603702392578125,0.2156829833984375,0.0781097412109375,1.2375335693359375
1767708651125703400,7.613703369140625,0.2116546630859375,0.0416717529296875,1.300079345703125
1767708651135703300,7.623703369140625,0.1028594970703125,0.0349273681640625,1.274200439453125
1767708651145704200,7.6337041015625,0.0341644287109375,0.025482177734375,1.2043914794921875
1767708651155704300,7.643704345703125,0.0388031005859375,0.0052490234375,1.1212158203125
1767708651165704200,7.6537041015625,0.0695343017578125,-0.00860595703125,1.0253753662109375
1767708651175705000,7.663705078125,0.0944061279296875,-0.021697998046875,0.92120361328125
1767708651185705200,7.673705322265625,0.101165771484375,-0.021728515625,0.83203125
1767708651195706400,7.683706298828125,0.0775604248046875,-0.0240631103515625,0.729217529296875
1767708651205706200,7.693706298828125,0.072723388671875,-0.07733154296875,0.5878448486328125
1767708651215707400,7.703707275390625,0.109649658203125,-0.0887908935546875,0.5297088623046875
1767708651225707300,7.713707275390625,0.115264892578125,-0.0539703369140625,0.5277099609375
1767708651235707400,7.723707275390625,0.0856781005859375,-0.000213623046875,0.4973907470703125
1767708651245708300,7.733708251953125,0.0705108642578125,0.068206787109375,0.4825439453125
1767708651255708200,7.743708251953125,0.0911712646484375,0.09906005859375,0.5117034912109375
1767708651265709000,7.753708984375,0.102783203125,0.147735595703125,0.508331298828125
1767708651275709200,7.763709228515625,0.088836669921875,0.19415283203125,0.519012451171875
1767708651285710300,7.77371044921875,0.0764923095703125,0.216552734375,0.5346527099609375
1767708651295710200,7.783710205078125,0.0608367919921875,0.2156524658203125,0.5152587890625
1767708651305711400,7.79371142578125,0.0419158935546875,0.2162933349609375,0.519439697265625
1767708651315711200,7.803711181640625,-0.0182342529296875,0.226409912109375,0.5527801513671875
1767708651325711400,7.81371142578125,-0.0751190185546875,0.2231597900390625,0.60675048828125
1767708651335712300,7.823712158203125,-0.071929931640625,0.2255706787109375,0.6785888671875
1767708651345712000,7.833712158203125,-0.054412841796875,0.219390869140625,0.7802581787109375
1767708651355713300,7.84371337890625,-0.0145416259765625,0.200164794921875,0.87237548828125
1767708651365713400,7.85371337890625,0.02117919921875,0.1670379638671875,0.959442138671875
1767708651375714300,7.86371435546875,0.0481109619140625,0.1169586181640625,1.0250396728515625
1767708651385714200,7.873714111328125,0.0894012451171875,0.079254150390625,1.070709228515625
1767708651395715300,7.88371533203125,0.093017578125,0.042816162109375,1.1058349609375
1767708651405715200,7.893715087890625,0.071502685546875,0.045928955078125,1.1535491943359375
1767708651415715300,7.90371533203125,0.0294647216796875,0.08966064453125,1.1983489990234375
1767708651425716200,7.91371630859375,-0.0300140380859375,0.1371612548828125,1.2338104248046875
1767708651435716000,7.923716064453125,-0.0760345458984375,0.1776275634765625,1.2921142578125
1767708651445717200,7.93371728515625,-0.1295623779296875,0.17767333984375,1.3556976318359375
1767708651455717400,7.94371728515625,-0.2127685546875,0.1300201416015625,1.4052276611328125
1767708651465718300,7.95371826171875,-0.297607421875,0.076141357421875,1.42816162109375
1767708651475718100,7.96371826171875,-0.3526458740234375,0.034393310546875,1.3952484130859375
1767708651485719300,7.97371923828125,-0.339202880859375,0.0317840576171875,1.3201446533203125
1767708651495719200,7.98371923828125,-0.234832763671875,0.0115814208984375,1.2451324462890625
1767708651505719300,7.99371923828125,-0.02655029296875,-0.041107177734375,1.1851654052734375
1767708651515720400,8.003720458984375,0.20849609375,-0.0467681884765625,1.1619720458984375
1767708651525720300,8.01372021484375,0.4473419189453125,0.0357818603515625,1.2017974853515625
1767708651535721200,8.02372119140625,0.6744537353515625,0.15496826171875,1.2570037841796875
1767708651545721300,8.033721435546875,0.810089111328125,0.2483367919921875,1.2787628173828125
1767708651555722200,8.04372216796875,0.8504180908203125,0.32696533203125,1.293121337890625
1767708651565722000,8.05372216796875,0.7657623291015625,0.3635406494140625,1.3132476806640625
1767708651575723300,8.06372314453125,0.58062744140625,0.3186187744140625,1.27227783203125
1767708651585723100,8.07372314453125,0.4081573486328125,0.2349853515625,1.129486083984375
1767708651595723300,8.08372314453125,0.245849609375,0.09576416015625,1.0172271728515625
1767708651605724400,8.093724365234374,0.1884918212890625,-0.0340118408203125,0.971099853515625
1767708651615724300,8.103724365234376,0.1877288818359375,-0.1121063232421875,0.9688568115234375
1767708651625725200,8.11372509765625,0.1632537841796875,-0.1626129150390625,0.99468994140625
1767708651635725300,8.123725341796876,0.117218017578125,-0.179168701171875,1.0481719970703125
1767708651645726200,8.133726318359376,0.077392578125,-0.1336822509765625,1.1197357177734375
1767708651655726000,8.14372607421875,0.0478363037109375,-0.0541229248046875,1.1887969970703125
1767708651665726200,8.153726318359375,0.04107666015625,0.0224609375,1.25537109375
1767708651675727400,8.163727294921875,0.1058197021484375,0.078521728515625,1.309326171875
1767708651685727200,8.173727294921875,0.189361572265625,0.141204833984375,1.321380615234375
1767708651695728400,8.183728271484375,0.2347564697265625,0.16619873046875,1.279327392578125
1767708651705728300,8.193728271484375,0.2326507568359375,0.1465606689453125,1.2172393798828125
1767708651715729200,8.203729248046875,0.2021636962890625,0.1128997802734375,1.103424072265625
1767708651725729300,8.213729248046874,0.1676788330078125,0.0868377685546875,0.962432861328125
1767708651735730200,8.223730224609374,0.1210479736328125,0.0332489013671875,0.8238525390625
1767708651745730000,8.23372998046875,0.0725555419921875,-0.0210113525390625,0.7089691162109375
1767708651755730200,8.243730224609376,0.048675537109375,-0.02862548828125,0.6059112548828125
1767708651765731300,8.2537314453125,0.05914306640625,-0.0236053466796875,0.5195465087890625
1767708651775731200,8.263731201171876,0.06549072265625,-0.04730224609375,0.4530029296875
1767708651785732400,8.273732421875,0.0522003173828125,-0.0767974853515625,0.414581298828125
1767708651795732200,8.283732177734375,0.0213165283203125,-0.0950164794921875,0.4136810302734375
1767708651805733000,8.293733154296875,-0.0147857666015625,-0.1179046630859375,0.4388275146484375
1767708651815733200,8.303733154296875,-0.0382537841796875,-0.1475067138671875,0.478302001953125
1767708651825734400,8.313734375,-0.04644775390625,-0.168426513671875,0.54150390625
1767708651835734300,8.323734375,-0.0400238037109375,-0.182952880859375,0.628997802734375
1767708651845734400,8.333734375,-0.0145263671875,-0.1922149658203125,0.7146759033203125
1767708651855735300,8.3437353515625,-0.01531982421875,-0.184234619140625,0.77386474609375
1767708651865735200,8.353735107421874,-0.0465087890625,-0.155364990234375,0.80084228515625
1767708651875736300,8.363736328125,-0.126220703125,-0.1265869140625,0.8093719482421875
1767708651885736200,8.373736083984374,-0.1977386474609375,-0.0939788818359375,0.8052520751953125
1767708651895737000,8.383737060546874,-0.22216796875,-0.0470428466796875,0.8021392822265625
1767708651905737200,8.3937373046875,-0.2326202392578125,-0.0097198486328125,0.791534423828125
1767708651915737000,8.403737060546876,-0.2333831787109375,0.013427734375,0.795166015625
1767708651925738200,8.41373828125,-0.23870849609375,0.04058837890625,0.8178253173828125
1767708651935738400,8.42373828125,-0.2470703125,0.062347412109375,0.8562164306640625
1767708651945739300,8.4337392578125,-0.15765380859375,0.0729522705078125,0.9433746337890625
1767708651955739100,8.4437392578125,0.0370941162109375,0.050323486328125,1.0241851806640625
1767708651965740300,8.453740234375,0.1453399658203125,0.0206756591796875,1.0438995361328125
1767708651975740200,8.463740234375,-0.0019683837890625,-0.0006256103515625,1.0677490234375
1767708651985741300,8.4737412109375,-0.3309173583984375,-0.001800537109375,1.1679840087890625
1767708651995741400,8.483741455078125,-0.6748504638671875,0.0470123291015625,1.303619384765625
1767708652005741300,8.4937412109375,-0.82025146484375,0.054290771484375,1.4575958251953125
1767708652015742200,8.5037421875,-0.6531829833984375,0.010955810546875,1.5506439208984375
1767708652025742300,8.513742431640624,-0.270843505859375,-0.1055908203125,1.44256591796875
1767708652035743200,8.5237431640625,0.0681610107421875,-0.218597412109375,1.284881591796875
1767708652045743000,8.5337431640625,0.346160888671875,-0.2156524658203125,1.2652740478515625
1767708652055744300,8.543744140625,0.556732177734375,-0.1419219970703125,1.3819580078125
1767708652065744100,8.553744140625,0.519622802734375,-0.0523834228515625,1.4892730712890625
1767708652075745300,8.563745361328126,0.33197021484375,0.0575714111328125,1.519805908203125
1767708652085745400,8.573745361328125,0.2579803466796875,0.1118316650390625,1.536376953125
1767708652095745300,8.583745361328125,0.274444580078125,0.0497894287109375,1.5362548828125
1767708652105746200,8.59374609375,0.342041015625,-0.0165252685546875,1.4391632080078125
1767708652115746300,8.603746337890625,0.3784332275390625,-0.0413970947265625,1.2742919921875
1767708652125747500,8.61374755859375,0.400421142578125,-0.0407867431640625,1.0965118408203125
1767708652135747300,8.623747314453125,0.4508056640625,0.021087646484375,0.9880218505859375
1767708652145748500,8.63374853515625,0.438690185546875,0.1005401611328125,1.00048828125
1767708652155748400,8.643748291015624,0.3731842041015625,0.1831817626953125,1.0519561767578125
1767708652165749200,8.653749267578124,0.2592620849609375,0.2486419677734375,1.1491851806640625
1767708652175749400,8.663749267578124,0.19537353515625,0.2638702392578125,1.20880126953125
1767708652185749200,8.673749267578126,0.244842529296875,0.2376861572265625,1.2210540771484375
1767708652195750100,8.683750244140626,0.3329620361328125,0.1587677001953125,1.2629241943359375
1767708652205750500,8.69375048828125,0.3236083984375,0.06884765625,1.26507568359375
1767708652215751400,8.70375146484375,0.2358856201171875,0.0188751220703125,1.210662841796875
1767708652225751300,8.713751220703125,0.1561279296875,-0.006988525390625,1.136993408203125
1767708652235752400,8.72375244140625,0.1057891845703125,-0.000823974609375,1.048736572265625
1767708652245752300,8.73375244140625,0.107574462890625,0.0118255615234375,0.9791412353515625
1767708652255752400,8.74375244140625,0.1053314208984375,-0.022552490234375,0.908050537109375
1767708652265753300,8.75375341796875,0.1154022216796875,-0.0528411865234375,0.8189239501953125
1767708652275753200,8.763753173828125,0.099517822265625,-0.0783843994140625,0.7252960205078125
1767708652285754400,8.77375439453125,0.0548858642578125,-0.1047821044921875,0.635101318359375
1767708652295754500,8.78375439453125,0.02337646484375,-0.112518310546875,0.5810394287109375
1767708652305755400,8.79375537109375,0.025421142578125,-0.09979248046875,0.5347900390625
1767708652315755300,8.80375537109375,0.0396881103515625,-0.05596923828125,0.50335693359375
1767708652325756400,8.81375634765625,0.0561370849609375,-0.01318359375,0.47509765625
1767708652335756300,8.82375634765625,0.0948486328125,0.023681640625,0.4720306396484375
1767708652345756400,8.83375634765625,0.123443603515625,0.0737457275390625,0.4889678955078125
1767708652355757300,8.84375732421875,0.1278228759765625,0.14471435546875,0.4636993408203125
1767708652365757400,8.85375732421875,0.1090240478515625,0.2046051025390625,0.4532623291015625
1767708652375758300,8.86375830078125,0.06781005859375,0.245086669921875,0.4722747802734375
1767708652385758500,8.873758544921875,0.020111083984375,0.279754638671875,0.5005645751953125
1767708652395759400,8.88375927734375,-0.029876708984375,0.3092193603515625,0.53265380859375
1767708652405759200,8.89375927734375,-0.07537841796875,0.3111114501953125,0.5677032470703125
1767708652415760400,8.903760498046875,-0.103179931640625,0.282928466796875,0.6419830322265625
1767708652425760300,8.91376025390625,-0.0928955078125,0.21771240234375,0.71954345703125
1767708652435760400,8.923760498046875,-0.0417633056640625,0.14849853515625,0.8028564453125
1767708652445761500,8.933761474609375,0.036285400390625,0.07257080078125,0.8848876953125
1767708652455761400,8.943761474609374,0.0694427490234375,0.0372467041015625,0.9644317626953125
1767708652465762300,8.95376220703125,0.052520751953125,0.034454345703125,1.006591796875
1767708652475762400,8.963762451171876,0.00732421875,0.046722412109375,1.052947998046875
1767708652485763300,8.973763427734376,-0.01995849609375,0.072479248046875,1.1285552978515625
1767708652495763200,8.98376318359375,-0.057159423828125,0.1117706298828125,1.2037200927734375
1767708652505763300,8.993763427734375,-0.088592529296875,0.1568756103515625,1.28887939453125
1767708652515764200,9.00376416015625,-0.1268310546875,0.18701171875,1.3433837890625
1767708652525764400,9.013764404296875,-0.1567230224609375,0.1693878173828125,1.4083404541015625
1767708652535765500,9.023765625,-0.176971435546875,0.1037139892578125,1.463287353515625
1767708652545765400,9.033765380859375,-0.2337493896484375,0.0547332763671875,1.4737701416015625
1767708652555766300,9.043766357421875,-0.2940673828125,0.04449462890625,1.440460205078125
1767708652565766400,9.053766357421875,-0.313201904296875,0.0392303466796875,1.311614990234375
1767708652575767300,9.063767333984375,-0.1559600830078125,-0.0271759033203125,1.16497802734375
1767708652585767200,9.07376708984375,0.1225738525390625,-0.084747314453125,1.101806640625
1767708652595768600,9.0837685546875,0.425933837890625,-0.060882568359375,1.1315460205078125
1767708652605768400,9.0937685546875,0.7693023681640625,0.0322418212890625,1.20623779296875
1767708652615768300,9.103768310546876,1.00567626953125,0.1539306640625,1.2913970947265625
1767708652625769500,9.11376953125,1.0032806396484375,0.3100433349609375,1.4040985107421875
1767708652635769300,9.123769287109376,0.7825164794921875,0.440521240234375,1.517120361328125
1767708652645770200,9.133770263671876,0.5272674560546875,0.41998291015625,1.5583038330078125
1767708652655770400,9.143770263671875,0.3616790771484375,0.300262451171875,1.4136199951171875
1767708652665771300,9.153771240234375,0.1940155029296875,0.1092529296875,1.1469268798828125
1767708652675771100,9.163771240234375,0.1012115478515625,-0.095428466796875,1.035552978515625
1767708652685772500,9.1737724609375,0.1004180908203125,-0.203125,1.0113067626953125
1767708652695772400,9.1837724609375,0.1475677490234375,-0.231536865234375,1.0332489013671875
1767708652705772300,9.193772216796875,0.1552734375,-0.236968994140625,1.0450439453125
1767708652715773400,9.2037734375,0.1001434326171875,-0.1973419189453125,1.055816650390625
1767708652725773300,9.213773193359375,0.0018310546875,-0.0799713134765625,1.094879150390625
1767708652735774200,9.223774169921874,-0.0378570556640625,0.0289306640625,1.1340484619140625
1767708652745774300,9.2337744140625,0.078704833984375,0.08941650390625,1.170440673828125
1767708652755775500,9.243775390625,0.19818115234375,0.16375732421875,1.2113189697265625
1767708652765775400,9.253775390625,0.2267303466796875,0.194793701171875,1.2329864501953125
1767708652775775500,9.263775390625,0.214447021484375,0.179656982421875,1.194091796875
1767708652785776400,9.2737763671875,0.218017578125,0.1443939208984375,1.0780487060546875
1767708652795776300,9.2837763671875,0.197784423828125,0.0907440185546875,0.9476318359375
1767708652805777400,9.29377734375,0.1419830322265625,0.050201416015625,0.8723602294921875
1767708652815777300,9.30377734375,0.0784149169921875,0.03753662109375,0.79180908203125
1767708652825778200,9.313778076171875,0.04718017578125,0.0107879638671875,0.698211669921875
1767708652835778300,9.3237783203125,0.053497314453125,-0.01898193359375,0.59576416015625
1767708652845779500,9.333779541015625,0.05078125,-0.0364837646484375,0.5206756591796875
1767708652855779300,9.343779296875,0.0401153564453125,-0.0623321533203125,0.47247314453125
1767708652865779500,9.353779541015625,0.0402374267578125,-0.090545654296875,0.448394775390625
1767708652875780400,9.3637802734375,0.0295257568359375,-0.1372528076171875,0.426361083984375
1767708652885780200,9.3737802734375,0.0016021728515625,-0.1761322021484375,0.4205322265625
1767708652895781400,9.383781494140624,-0.01446533203125,-0.1857452392578125,0.4526214599609375
1767708652905781200,9.39378125,-0.01995849609375,-0.19964599609375,0.4968414306640625
1767708652915782400,9.403782470703124,-0.0312347412109375,-0.2169342041015625,0.5488128662109375
1767708652925782500,9.413782470703126,-0.0379486083984375,-0.2064361572265625,0.6030426025390625
1767708652935783400,9.423783447265626,-0.0347137451171875,-0.178497314453125,0.6721343994140625
1767708652945783300,9.433783203125,-0.0364837646484375,-0.1465301513671875,0.7357177734375
1767708652955783400,9.443783447265625,-0.0623321533203125,-0.12493896484375,0.80743408203125
1767708652965784300,9.453784423828125,-0.0879058837890625,-0.097930908203125,0.8582763671875
1767708652975784200,9.4637841796875,-0.1076507568359375,-0.05963134765625,0.8872833251953125
1767708652985785300,9.473785400390625,-0.1455841064453125,-0.0225677490234375,0.9201202392578125
1767708652995785200,9.48378515625,-0.1950225830078125,0.014739990234375,0.973480224609375
1767708653005786400,9.493786376953125,-0.20867919921875,0.04266357421875,1.0274810791015625
1767708653015786500,9.503786376953125,-0.128662109375,0.0662384033203125,1.0874786376953125
1767708653025786400,9.513786376953124,0.014923095703125,0.0700531005859375,1.11407470703125
1767708653035787300,9.523787353515624,0.0545196533203125,0.0807342529296875,1.10687255859375
1767708653045787400,9.533787353515624,-0.1019287109375,0.10028076171875,1.10308837890625
1767708653055788300,9.543788330078126,-0.4266510009765625,0.1180572509765625,1.15966796875
1767708653065788200,9.5537880859375,-0.780487060546875,0.1230926513671875,1.307159423828125
1767708653075789600,9.56378955078125,-0.8860015869140625,0.0816650390625,1.44512939453125
1767708653085789400,9.57378955078125,-0.6387176513671875,-0.0686798095703125,1.413543701171875
1767708653095790800,9.583790771484376,-0.2465362548828125,-0.246856689453125,1.2890777587890625
1767708653105791000,9.593791015625,-0.0243682861328125,-0.3115386962890625,1.19427490234375
1767708653115790800,9.603790771484375,0.070556640625,-0.2602081298828125,1.1627655029296875
1767708653125791700,9.613791748046875,0.2638702392578125,-0.1348876953125,1.2588043212890625
1767708653135791900,9.6237919921875,0.4368133544921875,-0.0102996826171875,1.38458251953125
1767708653145793000,9.63379296875,0.395233154296875,0.081390380859375,1.49603271484375
1767708653155793000,9.64379296875,0.37200927734375,0.1859283447265625,1.5684967041015625
1767708653165793800,9.653793701171875,0.4087066650390625,0.1932830810546875,1.6268768310546875
1767708653175794000,9.6637939453125,0.401641845703125,0.1453094482421875,1.5995635986328125
1767708653185794800,9.673794921875,0.44891357421875,0.0996246337890625,1.427886962890625
1767708653195795000,9.683794921875,0.4431915283203125,0.0738067626953125,1.19940185546875
1767708653205794800,9.693794921875,0.34075927734375,0.0803985595703125,1.0051422119140625
1767708653215796000,9.7037958984375,0.291107177734375,0.09649658203125,0.925750732421875
1767708653225796000,9.713796142578126,0.205963134765625,0.143341064453125,0.9887237548828125
1767708653235797000,9.723796875,0.0817413330078125,0.2003936767578125,1.110870361328125
1767708653245796900,9.733796875,0.08984375,0.2036285400390625,1.13580322265625
1767708653255797800,9.7437978515625,0.24102783203125,0.1629638671875,1.117340087890625
1767708653265798000,9.7537978515625,0.3234710693359375,0.10711669921875,1.18963623046875
1767708653275798800,9.763798828125,0.2707672119140625,0.0785675048828125,1.2615203857421875
1767708653285799000,9.773798828125,0.1711578369140625,0.07098388671875,1.21795654296875
1767708653295798800,9.783798828125,0.1151123046875,0.0545806884765625,1.1292572021484375
1767708653305800000,9.793800048828125,0.1071624755859375,0.048980712890625,1.0562744140625
1767708653315800000,9.803800048828125,0.1204376220703125,0.0372314453125,1.0298309326171875
1767708653325801000,9.813801025390624,0.132415771484375,0.0094757080078125,0.980010986328125
1767708653335800800,9.82380078125,0.1189117431640625,-0.0201568603515625,0.8966064453125
1767708653345801700,9.8338017578125,0.0851287841796875,-0.0419464111328125,0.81573486328125
1767708653355801900,9.8438017578125,0.0687408447265625,-0.075042724609375,0.7331085205078125
1767708653365803000,9.853802978515626,0.0590667724609375,-0.1002960205078125,0.6268768310546875
1767708653375803000,9.863802978515626,0.0515899658203125,-0.1014556884765625,0.5324249267578125
1767708653385803000,9.873802978515625,0.0655975341796875,-0.090484619140625,0.5011138916015625
1767708653395804000,9.883803955078125,0.0796966552734375,-0.053192138671875,0.49786376953125
1767708653405804000,9.893803955078125,0.0855865478515625,0.0179290771484375,0.4918212890625
1767708653415805000,9.903804931640625,0.1069488525390625,0.0889129638671875,0.5036163330078125
1767708653425804800,9.9138046875,0.1070709228515625,0.15606689453125,0.4844512939453125
1767708653435805700,9.9238056640625,0.10382080078125,0.197967529296875,0.4755096435546875
1767708653445805800,9.933805908203125,0.0879364013671875,0.2428131103515625,0.4858856201171875
1767708653455807000,9.943806884765625,0.0614471435546875,0.2547454833984375,0.5101318359375
1767708653465806800,9.953806884765624,0.0303955078125,0.2535858154296875,0.5332489013671875
1767708653475807000,9.963806884765624,0.0022125244140625,0.2529754638671875,0.57086181640625
1767708653485807900,9.973807861328124,-0.0289306640625,0.2276458740234375,0.6269683837890625
1767708653495808000,9.98380810546875,-0.032928466796875,0.2087249755859375,0.696929931640625
1767708653505809000,9.993808837890626,-0.020111083984375,0.195068359375,0.7823638916015625
1767708653515808800,10.003808837890626,-0.00701904296875,0.1716461181640625,0.8637237548828125
1767708653525810000,10.013809814453126,-0.0047454833984375,0.15240478515625,0.9217987060546875
1767708653535810000,10.02381005859375,0.0178680419921875,0.14971923828125,0.9762115478515625
1767708653545811000,10.03381103515625,0.0615997314453125,0.1473388671875,1.05303955078125
1767708653555810800,10.043810791015625,0.1039276123046875,0.10546875,1.122772216796875
1767708653565811000,10.05381103515625,0.08734130859375,0.068695068359375,1.18975830078125
1767708653575811800,10.063811767578125,-0.017303466796875,0.080291748046875,1.24029541015625
1767708653585812000,10.07381201171875,-0.1542816162109375,0.10784912109375,1.2874755859375
1767708653595812900,10.083812744140625,-0.255828857421875,0.1128387451171875,1.345428466796875
1767708653605812700,10.093812744140624,-0.3074798583984375,0.0846710205078125,1.413177490234375
1767708653615814000,10.10381396484375,-0.3520965576171875,0.0296630859375,1.46240234375
1767708653625814000,10.11381396484375,-0.3846282958984375,-0.003509521484375,1.4355926513671875
1767708653635814000,10.12381396484375,-0.3667449951171875,0.0036773681640625,1.3199920654296875
1767708653645814800,10.133814697265626,-0.169921875,-0.0276641845703125,1.2132415771484375
1767708653655815000,10.14381494140625,0.12066650390625,-0.0491180419921875,1.1480712890625
1767708653665815800,10.15381591796875,0.4014434814453125,0.0130462646484375,1.182708740234375
1767708653675816000,10.16381591796875,0.658599853515625,0.1204986572265625,1.243255615234375
1767708653685817000,10.173817138671875,0.828643798828125,0.2487945556640625,1.3004150390625
1767708653695817000,10.18381689453125,0.8800506591796875,0.349029541015625,1.3529815673828125
1767708653705817900,10.19381787109375,0.8134918212890625,0.4205780029296875,1.4064483642578125
1767708653715818000,10.20381787109375,0.6375274658203125,0.38275146484375,1.41021728515625
1767708653725817900,10.21381787109375,0.4888916015625,0.286407470703125,1.2996368408203125
1767708653735818800,10.22381884765625,0.321990966796875,0.1640167236328125,1.136688232421875
1767708653745819000,10.23381884765625,0.184967041015625,-0.008056640625,1.052459716796875
1767708653755819800,10.24381982421875,0.1745452880859375,-0.1439208984375,1.0457611083984375
1767708653765820000,10.25381982421875,0.226348876953125,-0.235687255859375,1.07183837890625
1767708653775821000,10.263821044921874,0.2081298828125,-0.2743682861328125,1.059234619140625
1767708653785821000,10.273821044921876,0.1468963623046875,-0.202117919921875,1.0563201904296875
1767708653795821800,10.28382177734375,0.07196044921875,-0.0683441162109375,1.077056884765625
1767708653805822000,10.293822021484376,0.03826904296875,0.0514373779296875,1.14141845703125
1767708653815821800,10.30382177734375,0.1063995361328125,0.108551025390625,1.20556640625
1767708653825822700,10.31382275390625,0.2094879150390625,0.12127685546875,1.25750732421875
1767708653835822800,10.32382275390625,0.2535247802734375,0.1410369873046875,1.295166015625
1767708653845824000,10.333823974609375,0.22821044921875,0.1078643798828125,1.25115966796875
1767708653855824000,10.343823974609375,0.190277099609375,0.0505828857421875,1.132080078125
1767708653865825000,10.353824951171875,0.1573638916015625,0.017913818359375,1.0050506591796875
1767708653875825000,10.363824951171875,0.110687255859375,-0.00567626953125,0.9014434814453125
1767708653885825800,10.37382568359375,0.061126708984375,-0.0283050537109375,0.816009521484375
1767708653895826000,10.383825927734375,0.0269622802734375,-0.0230560302734375,0.73175048828125
1767708653905825800,10.39382568359375,0.02093505859375,-0.0194854736328125,0.6461181640625
1767708653915826700,10.40382666015625,0.035675048828125,-0.025482177734375,0.5611724853515625
1767708653925826800,10.413826904296876,0.0413360595703125,-0.0355987548828125,0.480316162109375
1767708653935828000,10.423827880859376,0.0393829345703125,-0.0540771484375,0.4160003662109375
1767708653945827800,10.433827880859376,0.03826904296875,-0.0857696533203125,0.395965576171875
1767708653955829000,10.4438291015625,0.027069091796875,-0.11346435546875,0.409454345703125
1767708653965828900,10.453828857421875,0.0006561279296875,-0.1398773193359375,0.444854736328125
1767708653975829800,10.463829833984375,-0.030792236328125,-0.1561431884765625,0.49798583984375
1767708653985830000,10.473829833984375,-0.052978515625,-0.16204833984375,0.5513763427734375
1767708653995829800,10.483829833984375,-0.0764312744140625,-0.1606292724609375,0.6058197021484375
1767708654005831000,10.493830810546875,-0.09442138671875,-0.14837646484375,0.6750946044921875
1767708654015831000,10.5038310546875,-0.0964202880859375,-0.1558074951171875,0.74334716796875
1767708654025832000,10.51383203125,-0.07550048828125,-0.144134521484375,0.8180389404296875
1767708654035831800,10.523831787109375,-0.0527496337890625,-0.1021728515625,0.886199951171875
1767708654045833000,10.5338330078125,-0.086456298828125,-0.061004638671875,0.8931121826171875
1767708654055832800,10.543832763671874,-0.14404296875,-0.0266876220703125,0.88787841796875
1767708654065833700,10.553833740234374,-0.1874542236328125,0.022735595703125,0.929931640625
1767708654075833900,10.563833740234376,-0.201629638671875,0.0797271728515625,1.0009765625
1767708654085833700,10.573833740234376,-0.155426025390625,0.1182861328125,1.0779571533203125
1767708654095834400,10.58383447265625,-0.0318756103515625,0.1281890869140625,1.1292724609375
1767708654105834500,10.59383447265625,0.074798583984375,0.116302490234375,1.134002685546875
1767708654115835600,10.603835693359375,-0.0048065185546875,0.1046600341796875,1.0993194580078125
1767708654125835800,10.613835693359375,-0.30047607421875,0.13922119140625,1.096466064453125
1767708654135836700,10.623836669921875,-0.6206512451171875,0.1468963623046875,1.180145263671875
1767708654145836500,10.63383642578125,-0.7498779296875,0.1109466552734375,1.3126678466796875
1767708654155837400,10.64383740234375,-0.663848876953125,0.06689453125,1.42047119140625
1767708654165837600,10.653837646484375,-0.4671478271484375,-0.0429229736328125,1.440093994140625
1767708654175837400,10.66383740234375,-0.239715576171875,-0.19073486328125,1.3343658447265625
1767708654185838600,10.673838623046874,-0.0796051025390625,-0.244476318359375,1.21343994140625
1767708654195838700,10.683838623046874,0.049560546875,-0.1996612548828125,1.2106781005859375
1767708654205839600,10.693839599609374,0.2225799560546875,-0.11737060546875,1.289093017578125
1767708654215839700,10.70383984375,0.37652587890625,-0.0403900146484375,1.371429443359375
1767708654225840600,10.713840576171876,0.4169769287109375,0.0577545166015625,1.4603118896484375
1767708654235840500,10.723840576171876,0.387725830078125,0.1372833251953125,1.4764251708984375
1767708654245840600,10.733840576171875,0.4078216552734375,0.1412200927734375,1.5218963623046875
1767708654255841500,10.743841552734375,0.41424560546875,0.113311767578125,1.5083770751953125
1767708654265841400,10.75384130859375,0.3936614990234375,0.0874176025390625,1.3577117919921875
1767708654275842600,10.763842529296875,0.380584716796875,0.05126953125,1.1474761962890625
1767708654285842700,10.7738427734375,0.3809814453125,0.057342529296875,0.9522857666015625
1767708654295843600,10.783843505859375,0.346832275390625,0.083526611328125,0.87005615234375
1767708654305843700,10.79384375,0.2705230712890625,0.1227874755859375,0.916046142578125
1767708654315844600,10.8038447265625,0.191497802734375,0.1835174560546875,1.018341064453125
1767708654325844500,10.813844482421874,0.1285552978515625,0.216522216796875,1.103057861328125
1767708654335844600,10.8238447265625,0.1458587646484375,0.212127685546875,1.142791748046875
1767708654345845800,10.833845703125,0.222564697265625,0.145782470703125,1.1845550537109375
1767708654355845600,10.843845703125,0.25299072265625,0.0696258544921875,1.234619140625
1767708654365846500,10.853846435546876,0.1963348388671875,0.0484619140625,1.251708984375
1767708654375846700,10.8638466796875,0.12664794921875,0.02325439453125,1.2106170654296875
1767708654385847600,10.87384765625,0.096160888671875,-0.0197906494140625,1.1407623291015625
1767708654395847700,10.88384765625,0.119354248046875,-0.0448150634765625,1.05096435546875
1767708654405848600,10.8938486328125,0.15008544921875,-0.054046630859375,0.96337890625
1767708654415848400,10.903848388671875,0.1576690673828125,-0.065460205078125,0.862396240234375
1767708654425848600,10.9138486328125,0.1488037109375,-0.067657470703125,0.783050537109375
1767708654435849700,10.923849609375,0.1343994140625,-0.0634613037109375,0.704559326171875
1767708654445849600,10.933849609375,0.11669921875,-0.04150390625,0.627166748046875
1767708654455850500,10.9438505859375,0.09796142578125,-0.006103515625,0.5549468994140625
1767708654465850600,10.9538505859375,0.0836944580078125,0.02899169921875,0.5107879638671875
1767708654475851500,10.9638515625,0.0814971923828125,0.0339202880859375,0.4871368408203125
1767708654485851600,10.9738515625,0.099151611328125,0.0643157958984375,0.475738525390625
1767708654495852800,10.983852783203124,0.0904998779296875,0.0984954833984375,0.468292236328125
1767708654505852700,10.993852783203126,0.083160400390625,0.119781494140625,0.4693756103515625
1767708654515852800,11.003852783203126,0.087646484375,0.149658203125,0.4778900146484375
1767708654525853700,11.013853759765626,0.08917236328125,0.1740264892578125,0.4832916259765625
1767708654535853600,11.023853515625,0.074249267578125,0.2054443359375,0.494476318359375
1767708654545854500,11.0338544921875,0.0406951904296875,0.21490478515625,0.523406982421875
1767708654555854600,11.0438544921875,0.0033721923828125,0.219573974609375,0.5775909423828125
1767708654565855500,11.05385546875,-0.0096893310546875,0.216033935546875,0.665802001953125
1767708654575855600,11.063855712890625,-0.029693603515625,0.20361328125,0.748291015625
1767708654585856800,11.073856689453125,-0.05218505859375,0.1982421875,0.810577392578125
1767708654595856600,11.083856689453125,-0.0584564208984375,0.1845245361328125,0.8711395263671875
1767708654605856800,11.093856689453125,-0.05743408203125,0.1696319580078125,0.938262939453125
1767708654615857700,11.103857666015625,-0.0373382568359375,0.1397247314453125,1.0121917724609375
1767708654625857500,11.113857421875,0.005584716796875,0.09698486328125,1.0845794677734375
1767708654635858400,11.1238583984375,0.07147216796875,0.0706634521484375,1.1584014892578125
1767708654645858600,11.133858642578126,0.097320556640625,0.0571136474609375,1.230133056640625
1767708654655859700,11.143859619140626,0.021636962890625,0.086517333984375,1.265106201171875
1767708654665859600,11.153859619140626,-0.1019287109375,0.1750946044921875,1.2823944091796875
1767708654675859700,11.163859619140625,-0.191650390625,0.2310333251953125,1.2885589599609375
1767708654685860600,11.173860595703125,-0.2355194091796875,0.1981201171875,1.329559326171875
1767708654695860700,11.18386083984375,-0.266510009765625,0.115753173828125,1.3901214599609375
1767708654705861600,11.193861572265625,-0.291595458984375,0.0331268310546875,1.4189910888671875
1767708654715861500,11.203861572265625,-0.281829833984375,-0.0235137939453125,1.383148193359375
1767708654725862400,11.2138623046875,-0.1895599365234375,-0.0471343994140625,1.2990570068359375
1767708654735862500,11.223862548828125,0.069427490234375,-0.0482025146484375,1.2313079833984375
1767708654745863700,11.23386376953125,0.4179229736328125,-0.0323944091796875,1.17144775390625
1767708654755863600,11.243863525390625,0.6946258544921875,0.0437469482421875,1.1905517578125
1767708654765863700,11.25386376953125,0.807220458984375,0.19317626953125,1.272247314453125
1767708654775864600,11.263864501953124,0.79205322265625,0.32391357421875,1.3475799560546875
1767708654785864700,11.27386474609375,0.708465576171875,0.4007110595703125,1.42010498046875
1767708654795865600,11.283865478515626,0.5565185546875,0.4042205810546875,1.439056396484375
1767708654805865500,11.293865478515626,0.3883056640625,0.338775634765625,1.3519287109375
1767708654815866600,11.30386669921875,0.2356719970703125,0.2183990478515625,1.178436279296875
1767708654825866800,11.31386669921875,0.158294677734375,0.0378265380859375,1.0688629150390625
1767708654835867600,11.32386767578125,0.1515350341796875,-0.0949554443359375,1.0389556884765625
1767708654845867500,11.333867431640625,0.190338134765625,-0.171722412109375,1.0431365966796875
1767708654855867600,11.34386767578125,0.19903564453125,-0.210845947265625,1.0442657470703125
1767708654865868500,11.35386865234375,0.1634368896484375,-0.1821441650390625,1.0536651611328125
1767708654875868700,11.36386865234375,0.1065216064453125,-0.082244873046875,1.0807952880859375
1767708654885869600,11.37386962890625,0.054229736328125,0.0331573486328125,1.148223876953125
1767708654895869400,11.383869384765624,0.0513916015625,0.0955963134765625,1.2402801513671875
1767708654905870600,11.39387060546875,0.1288909912109375,0.1259765625,1.3160247802734375
1767708654915870700,11.40387060546875,0.19696044921875,0.1703948974609375,1.3577880859375
1767708654925871600,11.41387158203125,0.21722412109375,0.149932861328125,1.3083038330078125
1767708654935871500,11.42387158203125,0.2239837646484375,0.0643310546875,1.2103729248046875
1767708654945871600,11.43387158203125,0.204620361328125,-0.0102996826171875,1.0673980712890625
1767708654955872500,11.44387255859375,0.1345062255859375,-0.070159912109375,0.910919189453125
1767708654965872600,11.45387255859375,0.0624237060546875,-0.085784912109375,0.765869140625
1767708654975873800,11.463873779296875,0.020111083984375,-0.073760986328125,0.643798828125
1767708654985873700,11.473873779296875,0.001953125,-0.059234619140625,0.53118896484375
1767708654995874600,11.48387451171875,0.0054473876953125,-0.0561370849609375,0.4195709228515625
1767708655005874700,11.493874755859375,0.020843505859375,-0.0712432861328125,0.32928466796875
1767708655015874600,11.50387451171875,0.036529541015625,-0.0739898681640625,0.2942962646484375
1767708655025875500,11.51387548828125,0.0261383056640625,-0.0880584716796875,0.2988128662109375
1767708655035875600,11.52387548828125,-0.008026123046875,-0.1069183349609375,0.3365020751953125
1767708655045876500,11.53387646484375,-0.048126220703125,-0.108673095703125,0.382598876953125
1767708655055876600,11.543876708984374,-0.0666656494140625,-0.118408203125,0.4322357177734375
1767708655065877800,11.553877685546874,-0.0795745849609375,-0.119964599609375,0.522125244140625
1767708655075877600,11.563877685546874,-0.0984954833984375,-0.113494873046875,0.625030517578125
1767708655085878500,11.57387841796875,-0.1201019287109375,-0.1233978271484375,0.7371978759765625
1767708655095879000,11.58387890625,-0.13165283203125,-0.127105712890625,0.83599853515625
1767708655105878800,11.593878662109375,-0.1486053466796875,-0.124603271484375,0.9152679443359375
1767708655115879700,11.603879638671875,-0.178985595703125,-0.1020660400390625,0.9730987548828125
1767708655125879800,11.6138798828125,-0.2165374755859375,-0.0590667724609375,1.008697509765625
1767708655135880700,11.623880615234375,-0.2508392333984375,-0.030792236328125,1.01904296875
1767708655145880600,11.633880615234375,-0.281280517578125,-0.0474853515625,1.0112152099609375
1767708655155882000,11.643882080078125,-0.2716064453125,-0.0595703125,1.0240325927734375
1767708655165881900,11.6538818359375,-0.2135467529296875,-0.05059814453125,1.0516510009765625
1767708655175882800,11.6638828125,-0.099700927734375,-0.0395965576171875,1.0787811279296875
1767708655185883000,11.6738828125,0.0479583740234375,-0.014068603515625,1.07666015625
1767708655195882800,11.6838828125,0.032958984375,0.033721923828125,1.0381622314453125
1767708655205883600,11.693883544921874,-0.218292236328125,0.0922088623046875,1.037628173828125
1767708655215883800,11.7038837890625,-0.579925537109375,0.1552581787109375,1.197906494140625
1767708655225884700,11.713884765625,-0.78912353515625,0.17877197265625,1.4301605224609375
1767708655235884500,11.723884521484376,-0.6613616943359375,0.0885009765625,1.5503387451171875
1767708655245886000,11.733885986328126,-0.265716552734375,-0.1107940673828125,1.45416259765625
1767708655255885800,11.7438857421875,0.0637664794921875,-0.2482147216796875,1.2928466796875
1767708655265886000,11.753885986328125,0.190643310546875,-0.1938629150390625,1.231658935546875
1767708655275886800,11.763886962890625,0.2723236083984375,-0.0443878173828125,1.2978973388671875
1767708655285886700,11.77388671875,0.2682647705078125,0.0713958740234375,1.3536834716796875
1767708655295887600,11.7838876953125,0.170928955078125,0.11541748046875,1.4015350341796875
1767708655305887700,11.7938876953125,0.20721435546875,0.0930328369140625,1.4541778564453125
1767708655315889000,11.803888916015625,0.292816162109375,0.0008392333984375,1.4970855712890625
1767708655325888800,11.813888671875,0.3017730712890625,-0.0389556884765625,1.4763946533203125
1767708655335890000,11.823889892578125,0.28985595703125,-0.0571136474609375,1.3580780029296875
1767708655345889800,11.833889892578124,0.2735137939453125,-0.0661163330078125,1.222808837890625
1767708655355890000,11.843889892578124,0.320068359375,-0.0266571044921875,1.1110687255859375
1767708655365890800,11.853890869140624,0.34912109375,0.01849365234375,1.0293121337890625
1767708655375890700,11.863890625,0.3111724853515625,0.0845794677734375,1.0191497802734375
1767708655385891600,11.8738916015625,0.2494354248046875,0.1413116455078125,1.0617218017578125
1767708655395891700,11.8838916015625,0.1878814697265625,0.158172607421875,1.0949249267578125
1767708655405892900,11.893892822265625,0.17987060546875,0.1448211669921875,1.1103057861328125
1767708655415892700,11.903892822265625,0.2131195068359375,0.0994873046875,1.163482666015625
1767708655425894000,11.913893798828125,0.1867828369140625,0.067047119140625,1.2249603271484375
1767708655435893800,11.923893798828125,0.1318206787109375,0.0659942626953125,1.2461090087890625
1767708655445894000,11.933893798828125,0.0860443115234375,0.0590667724609375,1.2336883544921875
1767708655455894800,11.943894775390625,0.0819549560546875,0.0459442138671875,1.197296142578125
1767708655465894700,11.953894775390625,0.0916595458984375,0.0503082275390625,1.13006591796875
1767708655475895800,11.963895751953125,0.1360015869140625,0.0419158935546875,1.0230712890625
1767708655485896000,11.97389599609375,0.150177001953125,0.0301055908203125,0.901947021484375
1767708655495896800,11.983896728515624,0.1154632568359375,0.0314178466796875,0.780731201171875
1767708655505896700,11.993896728515624,0.079864501953125,0.0076904296875,0.648345947265625
1767708655515896800,12.003896728515626,0.0635986328125,-0.018951416015625,0.5357208251953125
1767708655525897700,12.013897705078126,0.0624237060546875,-0.0445098876953125,0.4371337890625
1767708655535897900,12.02389794921875,0.0755615234375,-0.0366973876953125,0.3994598388671875
1767708655545898800,12.033898681640625,0.0791473388671875,-0.0143280029296875,0.3924407958984375
1767708655555898600,12.043898681640625,0.0713958740234375,0.02166748046875,0.41925048828125
1767708655565899800,12.053899658203125,0.0438385009765625,0.07196044921875,0.4496612548828125
1767708655575900000,12.06389990234375,0.0004425048828125,0.116851806640625,0.47802734375
1767708655585900800,12.07390087890625,-0.032073974609375,0.166015625,0.5175933837890625
1767708655595900700,12.083900634765625,-0.057647705078125,0.192901611328125,0.5523223876953125
1767708655605900800,12.09390087890625,-0.0729522705078125,0.220550537109375,0.5954742431640625
1767708655615901700,12.103901611328125,-0.0972137451171875,0.25775146484375,0.6307830810546875
1767708655625901800,12.11390185546875,-0.1126251220703125,0.288360595703125,0.6665191650390625
1767708655635903000,12.123903076171874,-0.1172943115234375,0.306365966796875,0.709716796875
1767708655645902800,12.13390283203125,-0.1157684326171875,0.3076171875,0.75933837890625
1767708655655903700,12.14390380859375,-0.125091552734375,0.301116943359375,0.799591064453125
1767708655665903900,12.15390380859375,-0.1087493896484375,0.269805908203125,0.8610076904296875
1767708655675904800,12.16390478515625,-0.0932769775390625,0.2186126708984375,0.9351348876953125
1767708655685904600,12.173904541015625,-0.1082611083984375,0.1825408935546875,0.99298095703125
1767708655695904800,12.18390478515625,-0.111663818359375,0.1517791748046875,1.0420684814453125
1767708655705905700,12.19390576171875,-0.0780029296875,0.107208251953125,1.0948638916015625
1767708655715905800,12.20390576171875,-0.0808868408203125,0.0774383544921875,1.1298980712890625
1767708655725907000,12.213906982421875,-0.135101318359375,0.0918731689453125,1.1529388427734375
1767708655735906800,12.22390673828125,-0.2021331787109375,0.1308135986328125,1.206634521484375
1767708655745907700,12.23390771484375,-0.2586517333984375,0.1386566162109375,1.2984619140625
1767708655755907800,12.243907958984375,-0.3034210205078125,0.1096954345703125,1.3906707763671875
1767708655765907700,12.25390771484375,-0.31939697265625,0.077056884765625,1.427825927734375
1767708655775908600,12.26390869140625,-0.288726806640625,0.0666961669921875,1.3979339599609375
1767708655785908700,12.27390869140625,-0.1578216552734375,0.0665740966796875,1.322113037109375
1767708655795910000,12.283909912109374,0.0947113037109375,-0.00274658203125,1.243499755859375
1767708655805909800,12.29390966796875,0.392425537109375,-0.061004638671875,1.180450439453125
1767708655815911000,12.303910888671876,0.534271240234375,0.0083770751953125,1.20269775390625
1767708655825910800,12.313910888671876,0.434295654296875,0.2016448974609375,1.3612213134765625
1767708655835911700,12.32391162109375,0.3863525390625,0.3714752197265625,1.47802734375
1767708655845911800,12.333911865234375,0.37957763671875,0.4521026611328125,1.5124664306640625
1767708655855911700,12.34391162109375,0.2866668701171875,0.451324462890625,1.464141845703125
1767708655865912600,12.35391259765625,0.2282867431640625,0.3496551513671875,1.3348541259765625
1767708655875912700,12.36391259765625,0.2147979736328125,0.189208984375,1.178955078125
1767708655885913900,12.373913818359375,0.136383056640625,0.0401458740234375,1.0743255615234375
1767708655895913700,12.383913818359375,0.0867919921875,-0.03082275390625,1.074249267578125
1767708655905915000,12.393914794921875,0.065765380859375,-0.036407470703125,1.09039306640625
1767708655915914800,12.403914794921874,-0.0011444091796875,-0.0189971923828125,1.1098785400390625
1767708655925915600,12.41391552734375,-0.06488037109375,0.0433807373046875,1.168121337890625
1767708655935915800,12.423915771484374,-0.0888214111328125,0.1286163330078125,1.2308197021484375
1767708655945915600,12.43391552734375,-0.05841064453125,0.163116455078125,1.2625885009765625
1767708655955916800,12.443916748046876,0.0224761962890625,0.14666748046875,1.2613372802734375
1767708655965917000,12.4539169921875,0.10589599609375,0.1301422119140625,1.213043212890625
1767708655975917800,12.463917724609376,0.1553955078125,0.0990447998046875,1.1516265869140625
1767708655985917700,12.473917724609375,0.1705322265625,0.0302734375,1.08197021484375
1767708655995918800,12.4839189453125,0.17535400390625,-0.0330810546875,0.967010498046875
1767708656005918700,12.493918701171875,0.1455841064453125,-0.083099365234375,0.8468017578125
1767708656015918800,12.5039189453125,0.1063690185546875,-0.1084442138671875,0.7306060791015625
1767708656025919700,12.513919677734375,0.05694580078125,-0.10528564453125,0.634368896484375
1767708656035919600,12.523919677734375,0.0217742919921875,-0.0930328369140625,0.5643463134765625
1767708656045920800,12.533920654296875,0.0127410888671875,-0.080078125,0.492218017578125
1767708656055921000,12.5439208984375,0.0136260986328125,-0.0951690673828125,0.431396484375
1767708656065921800,12.553921875,0.0198211669921875,-0.1014862060546875,0.41162109375
1767708656075921700,12.563921630859374,0.0288543701171875,-0.1120758056640625,0.4220428466796875
1767708656085922800,12.5739228515625,0.0428314208984375,-0.1321868896484375,0.4386138916015625
1767708656095922000,12.583921875,0.0225067138671875,-0.1422576904296875,0.4391937255859375
1767708656105922000,12.593922119140625,-0.031768798828125,-0.1387786865234375,0.50018310546875
1767708656115923000,12.6039228515625,-0.075531005859375,-0.1331787109375,0.6001434326171875
1767708656125922800,12.6139228515625,-0.09710693359375,-0.11553955078125,0.69488525390625
1767708656135924200,12.62392431640625,-0.11212158203125,-0.1065826416015625,0.7532196044921875
1767708656145924000,12.633924072265625,-0.123260498046875,-0.09796142578125,0.78521728515625
1767708656155925000,12.643925048828125,-0.132080078125,-0.067657470703125,0.8271484375
1767708656165925000,12.653925048828125,-0.14263916015625,-0.028717041015625,0.87890625
1767708656175926000,12.663926025390625,-0.1856842041015625,0.00555419921875,0.9085235595703125
1767708656185926000,12.67392578125,-0.227264404296875,0.047454833984375,0.920623779296875
1767708656195926000,12.683926025390624,-0.2426300048828125,0.040130615234375,0.9182281494140625
1767708656205927200,12.69392724609375,-0.2506866455078125,0.0272979736328125,0.94256591796875
1767708656215927000,12.703927001953126,-0.2373504638671875,0.0460052490234375,0.990142822265625
1767708656225928200,12.71392822265625,-0.153533935546875,0.0613861083984375,1.0563812255859375
1767708656235928000,12.723927978515626,-0.033447265625,0.0746002197265625,1.10919189453125
1767708656245929000,12.733928955078126,0.0350494384765625,0.1004180908203125,1.1082305908203125
1767708656255929000,12.74392919921875,-0.047271728515625,0.10870361328125,1.10791015625
1767708656265929000,12.753928955078125,-0.293792724609375,0.0630340576171875,1.1671295166015625
1767708656275929900,12.763929931640625,-0.5419464111328125,0.033050537109375,1.262420654296875
1767708656285930000,12.773929931640625,-0.673828125,-0.0209808349609375,1.357818603515625
1767708656295931100,12.78393115234375,-0.628662109375,-0.145599365234375,1.3540496826171875
1767708656305931000,12.793930908203125,-0.381927490234375,-0.2778778076171875,1.264434814453125
1767708656315932200,12.80393212890625,-0.0919647216796875,-0.32891845703125,1.1565399169921875
1767708656325932000,12.81393212890625,0.083251953125,-0.257720947265625,1.137786865234375
1767708656335932000,12.823931884765624,0.2746124267578125,-0.1020355224609375,1.259521484375
1767708656345933000,12.83393310546875,0.360870361328125,-0.0019683837890625,1.4326019287109375
1767708656355933000,12.843932861328126,0.32763671875,0.0959625244140625,1.57080078125
1767708656365934000,12.85393408203125,0.3705902099609375,0.1573638916015625,1.5835723876953125
1767708656375934200,12.863934326171876,0.4709930419921875,0.071807861328125,1.598907470703125
1767708656385935000,12.87393505859375,0.4710235595703125,0.0116119384765625,1.6114349365234375
1767708656395935000,12.88393505859375,0.377716064453125,-0.002105712890625,1.4402313232421875
1767708656405936000,12.89393603515625,0.2857513427734375,-0.0209197998046875,1.2302093505859375
1767708656415936000,12.90393603515625,0.289886474609375,-0.0041656494140625,1.1313323974609375
1767708656425936000,12.913935791015625,0.3031005859375,0.0191650390625,1.081939697265625
1767708656435937000,12.92393701171875,0.239288330078125,0.0791473388671875,1.1042938232421875
1767708656445937000,12.93393701171875,0.1326446533203125,0.145416259765625,1.135986328125
1767708656455938000,12.94393798828125,0.1060028076171875,0.164642333984375,1.14605712890625
1767708656465938200,12.953938232421875,0.1858367919921875,0.152923583984375,1.174713134765625
1767708656475939000,12.96393896484375,0.2742156982421875,0.1125946044921875,1.2117462158203125
1767708656485939000,12.97393896484375,0.251708984375,0.073760986328125,1.21240234375
1767708656495940000,12.983940185546874,0.1383819580078125,0.06219482421875,1.1549072265625
1767708656505940000,12.99393994140625,0.0546112060546875,0.049957275390625,1.0638885498046875
1767708656515939800,13.00393994140625,0.0327606201171875,0.0135650634765625,0.98388671875
1767708656525941200,13.013941162109376,0.0754241943359375,-0.0262451171875,0.90911865234375
1767708656535941000,13.023941162109375,0.1220703125,-0.0647735595703125,0.831634521484375
1767708656545942000,13.03394189453125,0.1256561279296875,-0.063629150390625,0.7717437744140625
1767708656555942100,13.043942138671875,0.0830230712890625,-0.0581817626953125,0.6897430419921875
1767708656565943000,13.053943115234375,0.06964111328125,-0.1403961181640625,0.553680419921875
1767708656575943000,13.06394287109375,0.085784912109375,-0.1098785400390625,0.5134735107421875
1767708656585944000,13.073944091796875,0.0709686279296875,-0.0706634521484375,0.498504638671875
