time,seconds_elapsed,z,y,x
1767708643579126800,0.067126708984375,0.024616554862260817,0.12925349883548914,-0.09517068503499031
1767708643589127700,0.077127685546875,0.04240585752036422,0.028751864568702875,-0.11015256558954716
1767708643599127800,0.0871279296875,-0.017936675239540636,-0.010415485954470931,-0.1456593477785587
1767708643609129000,0.09712890625,-0.06924830827116966,0.009761369427293538,-0.22502631448209284
1767708643619128800,0.10712890625,-0.05495097591467201,0.0038196313533931966,-0.24737024823725223
1767708643629129000,0.11712890625,-0.047098435783386225,-0.02646002730447799,-0.21928046430647372
1767708643639129900,0.1271298828125,-0.02528404232766479,0.005749357306957244,-0.28199966306984425
1767708643649130000,0.1371298828125,-0.11579027921557426,-0.03947323813457042,-0.36353637502789493
1767708643659131000,0.147130859375,-0.30167996710631995,0.004764072596654296,-0.400446594274044
1767708643669130800,0.157130859375,-0.38314821693804113,0.08564140733052045,-0.37520752359926696
1767708643679131600,0.167131591796875,-0.2919932703504339,0.15008881812598554,-0.141451374694705
1767708643689131800,0.1771318359375,-0.11673249196913092,0.23752083520032463,0.1718722319215536
1767708643699132000,0.1871318359375,0.07252868164870888,0.25613800351731475,0.3919774566143751
1767708643709132800,0.1971328125,0.19268062667250632,0.13324118023216724,0.5016103822439909
1767708643719133000,0.2071328125,0.2241267352938652,0.016631657055579126,0.5790758992403745
1767708643729133800,0.2171337890625,0.24104393129255622,-0.16139390986394136,0.5576514184176922
1767708643739134000,0.227134033203125,0.2297872818062082,-0.35525983733087774,0.5203332028925418
1767708643749134800,0.237134765625,0.13257657884359358,-0.4682356801802292,0.5297141947001218
1767708643759134700,0.247134765625,-0.03083232410456985,-0.43542095008678733,0.4506535174667835
1767708643769134800,0.257134765625,-0.11515083053456619,-0.40091326193772253,0.38763913514912124
1767708643779136000,0.267135986328125,-0.14944467500355094,-0.3496225255636498,0.24748773713707922
1767708643789136000,0.277135986328125,-0.13126142285810782,-0.2993344634260982,0.09457155009806155
1767708643799136800,0.28713671875,-0.040434886240959166,-0.26485998342689127,-0.030872108125686644
1767708643809137000,0.297136962890625,-0.020602058523893355,-0.21001031246222554,-0.12393442270457744
1767708643819136800,0.30713671875,-0.07253098320364952,-0.10638890220709145,-0.17681962519586086
1767708643829138000,0.317137939453125,-0.14915009423745795,0.0289160786870867,-0.10321195267140865
1767708643839137800,0.3271376953125,-0.19887423888193442,0.1017312125943601,0.009582067337632179
1767708643849138700,0.337138671875,-0.21965981901288031,0.06412296461407095,-0.012727379626035689
1767708643859139000,0.34713916015625,-0.22920392896030098,0.08382186375316232,0.005872106903791427
1767708643869140000,0.357139892578125,-0.28020227652536706,0.10544457056168466,0.02209843456149101
1767708643879139800,0.367139892578125,-0.33684126032590866,0.13747684504054486,0.06480769547522068
1767708643889140000,0.377139892578125,-0.37441082026362416,0.1738623097602278,0.05408464140892028
1767708643899140900,0.387140869140625,-0.3864040403962135,0.24665300334598866,0.07328326287567614
1767708643909140700,0.397140625,-0.39557285075783727,0.359885268641822,0.14229367073774338
1767708643919142000,0.407141845703125,-0.3525333349764347,0.4091828219046816,0.2492798812508583
1767708643929141800,0.417141845703125,-0.4629238009750843,0.3987067648693919,0.287294846868515
1767708643939143000,0.427142822265625,-0.3783867381572723,0.35296303163059056,0.40522389167845246
1767708643949143000,0.43714306640625,-0.3908019830942154,0.2272363186817616,0.37937516467273236
1767708643959143000,0.447142822265625,-0.31018121693730355,0.08828669767491519,0.387397143086791
1767708643969143800,0.457143798828125,-0.2910404631376266,-0.04859539634287357,0.31678982142210005
1767708643979144000,0.46714404296875,-0.3403711880177259,-0.14743768256269393,0.23370997167527674
1767708643989144800,0.477144775390625,-0.4189566489547491,-0.14178455217182637,0.034306758749485015
1767708643999144700,0.487144775390625,-0.4849088382899761,-0.08059329362809657,-0.12671791594326495
1767708644009144800,0.497144775390625,-0.5153565835237502,-0.03969437007196247,-0.26518589091300965
1767708644019146000,0.50714599609375,-0.4871148239016533,-0.022929478558152912,-0.32983108930289745
1767708644029145900,0.517145751953125,-0.4323825322389602,0.02663812381774187,-0.3447650390625
1767708644039147000,0.52714697265625,-0.49557519373297687,0.08261515484452248,-0.419579749289155
1767708644049147000,0.53714697265625,-0.4851823945343494,0.060562532186135644,-0.4908984340935945
1767708644059147800,0.547147705078125,-0.4209446079015732,-0.0968860375855118,-0.40602644023299217
1767708644069148000,0.55714794921875,-0.39399635868873445,-0.08776055490896105,-0.47251989683806894
1767708644079147800,0.567147705078125,-0.3995791637897491,-0.06191887869853526,-0.5112380422890186
1767708644089148700,0.577148681640625,-0.34253095986749976,-0.1417592350674793,-0.4899205289721489
1767708644099148800,0.587148681640625,-0.2614910915156826,-0.23300039863381533,-0.5027741653263569
1767708644109149700,0.597149658203125,-0.18454583553373813,-0.2582669783700257,-0.4928671038180589
1767708644119149600,0.607149658203125,-0.08604509276058524,-0.23242873622570184,-0.5413116935133934
1767708644129149700,0.617149658203125,0.14640351720936595,-0.2515329574072733,-0.5395160422682762
1767708644139150800,0.62715087890625,0.5131623248824849,-0.33523850130438804,-0.33316754024922846
1767708644149151000,0.63715087890625,0.8897948763161897,-0.44236601998433467,-0.010926467683911322
1767708644159151900,0.64715185546875,1.184534193971753,-0.4684664567288011,0.3551648525238037
1767708644169151700,0.65715185546875,1.4188941539883613,-0.398174813417159,0.7009212407112121
1767708644179152600,0.667152587890625,1.3460492825299502,-0.2744075274404138,0.9509083934485911
1767708644189152800,0.67715283203125,1.082009639042616,-0.20023765445593744,1.2005039165198803
1767708644199152600,0.687152587890625,0.8698580037027597,-0.20011094107003882,1.280804364681244
1767708644209153500,0.697153564453125,0.744057202604413,-0.20173943732101468,1.1442138740211725
1767708644219154000,0.70715380859375,0.7181248889684677,-0.29502542285425587,0.8925754469454288
1767708644229154800,0.71715478515625,0.7175304302066564,-0.4150212092019617,0.5150450333565473
1767708644239154700,0.72715478515625,0.67076809450984,-0.4561148516125977,0.05408288784325122
1767708644249155800,0.73715576171875,0.6778992615640163,-0.4163706875821575,-0.4048912987232208
1767708644259155700,0.74715576171875,0.7790227175235748,-0.42063923174683004,-0.7560650357842444
1767708644269155800,0.75715576171875,0.8000637519866227,-0.39740583833865817,-1.025340826359391
1767708644279156700,0.76715673828125,0.6470183856099844,-0.22467593014184384,-1.1048720437139272
1767708644289156600,0.777156494140625,0.6038157882213592,-0.10758065100861712,-1.0334235950499773
1767708644299157800,0.78715771484375,0.5361620556652545,-0.09840415053088217,-0.9206897807955742
1767708644309158000,0.797157958984375,0.20609481951892375,-0.013243695117719471,-0.8325345274806022
1767708644319157800,0.80715771484375,-0.24959263699445872,0.1000758466027677,-0.6898048034131526
1767708644329158700,0.81715869140625,-0.672286097857356,0.22959413385428487,-0.4796837971180677
1767708644339158800,0.82715869140625,-0.8196756304293871,0.2649191297356039,-0.21102759974598884
1767708644349159700,0.83715966796875,-0.7556950334280729,0.1418435158174485,0.08037818957269191
1767708644359159800,0.847159912109375,-0.5977946647683158,0.017312332796119153,0.39528701955378054
1767708644369160700,0.85716064453125,-0.3517261102467775,-0.09738777656257153,0.6713999626725912
1767708644379160800,0.867160888671875,-0.17633618906047194,-0.21126681532934308,0.961399392324686
1767708644389161000,0.877160888671875,0.08357965249512345,-0.2287457003314048,1.2686568307697772
1767708644399161900,0.887161865234375,0.140619600045681,-0.14141458634827286,1.54601539003551
1767708644409161700,0.89716162109375,-0.07816343613266945,-0.20170246631149202,1.7769658338695764
1767708644419162600,0.90716259765625,-0.4053015965571627,-0.38187655303440987,1.966260909757018
1767708644429162800,0.917162841796875,-0.7685667899608611,-0.6234936445724218,1.8766373374551533
1767708644439163600,0.92716357421875,-0.9462281266778707,-0.9653411156877875,1.4012316560477018
1767708644449163800,0.937163818359375,-0.992753731009364,-1.2073478641305118,0.7890139501839876
1767708644459163600,0.94716357421875,-1.0208785862535237,-1.322621060669422,0.2352326511979103
1767708644469164800,0.957164794921875,-1.0391396346092223,-1.2981605731517076,-0.29893852291107176
1767708644479165000,0.9671650390625,-1.0335019209831953,-1.175110239805281,-0.8841162461578845
1767708644489165800,0.977165771484375,-0.8857505693614482,-0.9231420693185179,-1.298767891395092
1767708644499165700,0.987165771484375,-0.7285860772281885,-0.6970156846400349,-1.538310807007551
1767708644509165800,0.997165771484375,-0.6759773535907269,-0.502304282792285,-1.7454437374025582
1767708644519166700,1.007166748046875,-0.6034551747480407,-0.32627873058356344,-1.842148207876086
1767708644529166600,1.01716650390625,-0.4953180406341329,-0.13351948571689426,-1.752488395217061
1767708644539168000,1.02716796875,-0.348842115775682,-0.07434139362648129,-1.5239268923461435
1767708644549167900,1.03716796875,-0.24512919131219385,-0.0728610188756138,-1.300041564592719
1767708644559168800,1.047168701171875,0.04932487966120243,-0.30635932056158777,-1.048812302839756
1767708644569169000,1.0571689453125,0.21973639138042925,-0.67629314154163,-0.8206377534598112
1767708644579168800,1.067168701171875,0.28083178833425043,-0.7352169666100293,-0.6293640709757804
1767708644589169700,1.077169677734375,0.09149579591453075,-0.7694821512401103,-0.4876292031645775
1767708644599169800,1.087169677734375,-0.09091010498106479,-0.8425359162088483,-0.3408955041527748
1767708644609170700,1.097170654296875,-0.17037176423072814,-0.9081289899080991,-0.21832067936360836
1767708644619170600,1.107170654296875,-0.21212825446426867,-0.9357840356834233,-0.11466039840281009
1767708644629172000,1.117171875,-0.24344752183556556,-0.9798908884353935,-0.11961071428656578
1767708644639171800,1.127171875,-0.0981289503186941,-1.1291570285342634,-0.08331190493702888
1767708644649171700,1.137171630859375,0.05915529573671519,-1.3008898519851266,-0.04666472054123878
1767708644659172900,1.1471728515625,0.20779292867369947,-1.4214672193467617,0.0511082559466362
1767708644669172700,1.1571728515625,0.23686587842293083,-1.3223418053366243,0.15852525909245013
1767708644679173600,1.167173583984375,0.030868016472458838,-1.1509189246177673,0.08026946850121021
1767708644689173800,1.177173828125,0.04601991983167827,-1.040097081464529,-0.013581950628757476
1767708644699173600,1.187173583984375,0.1447247703421861,-0.9195743668995797,-0.06919803938865661
1767708644709174800,1.1971748046875,0.21713702253699302,-0.9260388867385685,-0.09277648337483406
1767708644719175000,1.2071748046875,0.21357962231636046,-0.9609702801924198,-0.1043687214910984
1767708644729175800,1.21717578125,0.13172434592843055,-1.0115456713713704,-0.09268471343815327
1767708644739175700,1.22717578125,0.0974463018167764,-1.09529932872653,-0.0836941822528839
1767708644749176800,1.2371767578125,0.3874883285015821,-1.2443822212129831,0.08586509655117988
1767708644759176700,1.2471767578125,0.9624748395364731,-1.3569891942173242,0.4252992959797382
1767708644769176800,1.2571767578125,1.6441659676641225,-1.3760725187413394,0.697443335467577
1767708644779177700,1.267177734375,1.872182696133852,-1.322964467279613,0.7647352489739656
1767708644789177600,1.277177490234375,1.3395225111097098,-1.1120848977021873,0.6484656618088483
1767708644799178800,1.2871787109375,0.5781769045740366,-0.8784023254904896,0.5097217925071716
1767708644809179000,1.297178955078125,-0.07357260121107101,-0.8319817889686674,0.26577450445592404
1767708644819178800,1.3071787109375,-0.6289146467078477,-0.8781069227404892,-0.1173000992566347
1767708644829179600,1.3171796875,-1.029251862323284,-1.0632608071699738,-0.4613946917116642
1767708644839179800,1.3271796875,-1.190224514567852,-1.1195982690069823,-0.7203992636412382
1767708644849180700,1.3371806640625,-1.2008616439163684,-0.955013125353679,-0.9747884507298469
1767708644859180800,1.347180908203125,-0.9454711708307265,-0.678443962899968,-1.1105004049897194
1767708644869182000,1.357181884765625,-0.5120306174388155,-0.35325397740118203,-0.933470936435461
1767708644879181800,1.367181884765625,-0.2407617168176919,0.014070483064372091,-0.6130003806740045
1767708644889182000,1.377181884765625,0.11537760676145553,0.37397111367210745,-0.2054179431706667
1767708644899182800,1.387182861328125,0.36355741781592366,0.7219406478643416,0.36491818477511406
1767708644909182700,1.3971826171875,0.6596691928684711,0.9575241583265364,0.8765940339595079
1767708644919183600,1.40718359375,0.9082208329100161,1.197427650879696,1.2038123104155063
1767708644929183700,1.417183837890625,0.7683125229388474,1.5337133962146936,1.4576824420660732
1767708644939184600,1.4271845703125,0.38220775775015353,1.8276079336091875,1.6963924139857292
1767708644949184800,1.437184814453125,0.22452073958013205,2.0611429871089757,1.9475293212801217
1767708644959185000,1.447184814453125,0.29894093406386674,2.208073816128075,2.0472756436675787
1767708644969185800,1.457185791015625,0.4396866447072476,2.286785972184688,2.0276427224367857
1767708644979186000,1.46718603515625,0.4343710026424378,2.132305312307924,1.9533821389615535
1767708644989186800,1.477186767578125,0.18088676503691822,1.8244715352796017,1.6122721152752637
1767708644999186700,1.487186767578125,-0.07675999907553195,1.501755100287497,1.2121452544748783
1767708645009186800,1.497186767578125,-0.09675188981182872,1.1166321126777679,0.9743681794911623
1767708645019187700,1.507187744140625,-0.10593863768894225,0.8525373780023306,0.7390051799118519
1767708645029187600,1.5171875,-0.046632535304687917,0.6604973873209208,0.55504445078969
1767708645039188700,1.527188720703125,-0.08386011340431869,0.6602860095925629,0.2965595188200474
1767708645049188900,1.53718896484375,-0.07211421909630299,0.7522545375853776,0.1025298156261444
1767708645059189800,1.547189697265625,-0.09740231654457747,0.9427164652951061,-0.1130909571290016
1767708645069190000,1.55718994140625,-0.17747889282219112,1.213804565989226,-0.3977501947969198
1767708645079189800,1.567189697265625,-0.18395780651271343,1.4530777247495947,-0.6883639569550752
1767708645089190700,1.577190673828125,-0.05200432800352573,1.553526642448455,-0.9312140974193811
1767708645099190800,1.587190673828125,0.13073058565072715,1.5792057119756937,-1.0468599997282027
1767708645109191700,1.597191650390625,0.2015611946772784,1.5326739701643586,-1.0914958447903393
1767708645119191800,1.60719189453125,0.14694887613244353,1.3500174555085598,-1.0846931790381669
1767708645129192000,1.61719189453125,-0.02910268730036914,1.216082886184752,-1.2466133412659168
1767708645139192800,1.62719287109375,-0.43784598527662455,1.1608202870376407,-1.4786521648585795
1767708645149192700,1.637192626953125,-0.7567407430887222,1.1405651422552763,-1.5284920083045959
1767708645159193900,1.64719384765625,-0.6721661978047341,1.1679139716256408,-1.4457406598597764
1767708645169193700,1.65719384765625,-0.5468611443340778,1.1062567760705948,-1.2323784796863793
1767708645179194600,1.667194580078125,-0.29998072544038296,0.9689119599118828,-1.0254273355990648
1767708645189194800,1.67719482421875,-0.08846329635083675,0.8823599040098488,-0.8836544738650322
1767708645199194600,1.687194580078125,0.05294540824592113,0.6734921857114881,-0.7805939123630523
1767708645209195800,1.69719580078125,0.1729408110011369,0.4633483465300873,-0.7186755085885524
1767708645219196000,1.70719580078125,0.09843348622322082,0.3541854495650157,-0.6488941163539886
1767708645229196800,1.71719677734375,-0.017673676921799778,0.2592529206674546,-0.5509212333798408
1767708645239196700,1.72719677734375,-0.1267114862024784,0.10903755355235188,-0.4733358893960714
1767708645249197800,1.73719775390625,-0.3710509884417057,0.02991243278067559,-0.4080407026648521
1767708645259197700,1.74719775390625,-0.5418049569230526,0.08091046981848776,-0.35472704562842844
1767708645269197800,1.75719775390625,-0.6321990752059966,0.190457251534611,-0.18091069390177725
1767708645279199000,1.767198974609375,-0.4364624950289726,0.21319920816402882,0.07458031694889068
1767708645289198800,1.77719873046875,0.07963518918566405,0.12056969551183283,0.5898755256742239
1767708645299199700,1.78719970703125,0.6929951238870621,0.10464202200714498,1.2354068875968456
1767708645309200000,1.797199951171875,0.844795458638668,0.3539747294237837,1.7950865969717502
1767708645319199700,1.80719970703125,0.5125895299632102,0.7303271487418562,1.8173299929618834
1767708645329200600,1.81720068359375,0.4368061208348721,0.9891353213164955,1.6040280185431242
1767708645339200800,1.82720068359375,0.5879091940373182,0.9347991893645375,1.6658575749903917
1767708645349201700,1.83720166015625,0.4007178854960948,0.7258683427020907,1.4735738386809825
1767708645359201800,1.847201904296875,0.09253449131250381,0.49877424550261346,0.7661988917857409
1767708645369203000,1.857202880859375,-0.07061776999346911,0.3710150768781081,-0.10003156906962395
1767708645379202800,1.867202880859375,-0.0217803815882653,0.3563667756594717,-0.8402455402493476
1767708645389203000,1.877202880859375,0.06844225258529185,0.236285776980035,-1.527566710153222
1767708645399203800,1.887203857421875,-0.04508227365538477,-0.00817667578542605,-1.8750293177366255
1767708645409203700,1.89720361328125,-0.3953483212869614,-0.17256531048594043,-1.793697188439965
1767708645419204600,1.90720458984375,-0.725678519218415,-0.18647481256863102,-1.6110060408622024
1767708645429204700,1.917204833984375,-0.8101420053433627,-0.17398255687272174,-1.2888771964997052
1767708645439204600,1.92720458984375,-0.733963678613305,-0.09392596393721178,-0.7708411646336316
1767708645449205800,1.937205810546875,-0.6568161415249109,-0.05395573606593534,-0.14547697694897652
1767708645459206000,1.947205810546875,-0.5222470006246119,0.013373659906629472,0.32306407938599585
1767708645469206800,1.957206787109375,-0.4595814682772383,0.15496882698619738,0.5749070891231298
1767708645479207000,1.96720703125,-0.28406415785159916,0.294961015848536,0.818041891747713
1767708645489207800,1.977207763671875,-0.11282262504901737,0.4296177802333608,0.9470382740169763
1767708645499207700,1.987207763671875,-0.004680266770720482,0.5028373302230611,1.0648135895699262
1767708645509207800,1.997207763671875,0.059776788635924456,0.4456260081609711,1.1034598388284445
1767708645519208700,2.007208740234375,0.0662707902977243,0.3762972550647333,0.9637380644053221
1767708645529208600,2.01720849609375,-0.0014454861005768179,0.2737533013153821,0.6227940449357032
1767708645539209700,2.027209716796875,-0.04385141668617725,0.04810007797344588,0.27616496556699277
1767708645549209900,2.0372099609375,-0.037811478934809566,-0.2065565004802309,-0.01279752225279808
1767708645559210800,2.047210693359375,0.1113052427560091,-0.38978228465765713,-0.22916239137351513
1767708645569211000,2.0572109375,0.1966197196871042,-0.47979094728697086,-0.3462538163155317
1767708645579210800,2.067210693359375,0.09290040201544761,-0.4579402038762346,-0.40818332600593565
1767708645589211600,2.077211669921875,-0.09123451462984085,-0.2716111381875351,-0.39311552073359485
1767708645599211800,2.087211669921875,-0.18999942476451395,-0.09880637465622276,-0.2986585369259119
1767708645609213000,2.097212890625,-0.21461239943020044,0.022007340478245166,-0.19914017807543277
1767708645619212800,2.107212890625,-0.15485559413637964,0.1771833074091002,-0.1138800616800785
1767708645629213700,2.117213623046875,-0.07204290742576122,0.29461379157975315,-0.07242986091673374
1767708645639213800,2.1272138671875,-0.0782920309484005,0.3460309673450887,-0.02611351542174816
1767708645649213700,2.137213623046875,-0.05853336444608867,0.29702048739530146,-0.018028993165493012
1767708645659214800,2.14721484375,-0.06556870644297451,0.20311167552229015,-0.02142740343213081
1767708645669214700,2.157214599609375,-0.02153553998172283,0.08317487108651549,-0.04754501050710678
1767708645679215600,2.167215576171875,-0.012656067955493927,-0.014837279885518364,-0.05434942982494831
1767708645689215700,2.1772158203125,0.02293430086374283,-0.08413111236542463,-0.030206337693333623
1767708645699215600,2.187215576171875,0.03198273624870926,-0.09010781215485185,-0.006091302612423896
1767708645709216800,2.197216796875,0.038614027489349244,-0.0961495400045067,-0.005779752445220947
1767708645719217000,2.207216796875,0.06229366682767868,-0.08779136103917844,-0.021323358535766602
1767708645729217800,2.2172177734375,0.03317972748093307,-0.08628343156110495,-0.043778935971856114
1767708645739217700,2.2272177734375,0.07891052817292511,-0.10341623393869959,-0.04843523734509945
1767708645749218800,2.23721875,0.07625029598772526,-0.11613699202770367,-0.04816401918828487
1767708645759218700,2.24721875,0.042267362365126605,-0.13725923850079996,-0.025953356423974037
1767708645769218600,2.257218505859375,0.051764710561372336,-0.18358110042111947,0.015953940457105634
1767708645779220000,2.267219970703125,-0.007181435936689376,-0.24256735973386093,0.01291384210884571
1767708645789219800,2.2772197265625,-0.14352986146919428,-0.22312745859082786,-0.023399580287933347
1767708645799220700,2.287220703125,-0.18565701164603232,-0.1819505583435297,-0.06587678601145744
1767708645809220900,2.297220947265625,-0.2052338918406516,-0.19083258765302596,-0.05627075327634811
1767708645819221800,2.3072216796875,-0.22264321873784063,-0.23130234427796675,-0.05422434214055538
1767708645829221600,2.3172216796875,-0.2854524338722229,-0.2507176589690149,-0.044376317343115805
1767708645839221800,2.3272216796875,-0.3814331931810826,-0.2911019658002071,-0.04990414085388183
1767708645849222700,2.33722265625,-0.505233833438158,-0.3317143457662314,-0.10207096594274044
1767708645859222500,2.347222412109375,-0.6357342635948211,-0.31240170599836853,-0.12331658306717871
1767708645869224000,2.357223876953125,-0.7085265280831605,-0.34678185877762735,-0.18635317721664904
1767708645879223800,2.367223876953125,-0.7363409291386603,-0.4454088582789525,-0.25019991870522496
1767708645889224700,2.377224609375,-0.7350877142071723,-0.5658860897343605,-0.3656313014805317
1767708645899224800,2.387224853515625,-0.5460322922945022,-0.6348485668014735,-0.5412789602875709
1767708645909224700,2.397224609375,-0.1540120925169438,-0.6803535228483378,-0.6715677204549312
1767708645919225600,2.4072255859375,0.15601882922947405,-0.6543215482302009,-0.8497212246030569
1767708645929225700,2.417225830078125,0.3001419804167002,-0.5500735305093228,-0.9281751681149005
1767708645939227000,2.427226806640625,0.3367477368235588,-0.3958239759746939,-0.8427572308093308
1767708645949226800,2.437226806640625,0.0829454827774316,-0.293414955450315,-0.7440396669477224
1767708645959227000,2.447226806640625,-0.42323717581816017,-0.17907746885893866,-0.5479571228772402
1767708645969227800,2.457227783203125,-1.1296942772161216,-0.09659019644409418,-0.4681166934430599
1767708645979228000,2.467227783203125,-1.683294447481632,-0.08320818883422762,-0.3048842795729637
1767708645989228800,2.477228759765625,-1.9683073208928108,-0.11586686984943226,-0.0773895291507244
1767708645999228700,2.487228759765625,-1.9503790116228161,-0.14223085290091111,0.07532733592391014
1767708646009229600,2.4972294921875,-1.5272504838109016,-0.124915067772381,0.27861703489422796
1767708646019229700,2.507229736328125,-1.074348749025911,-0.03399066027132794,0.5715332287758589
1767708646029229800,2.517229736328125,-0.7815734979849308,0.07394583670394494,0.8485977735310792
1767708646039230700,2.527230712890625,-0.7597539534300565,0.17928888311991467,1.0563064579874277
1767708646049230800,2.53723095703125,-0.952512248448655,0.2128466683993116,1.257566112434864
1767708646059231700,2.547231689453125,-1.2007494157135485,0.15236048025186172,1.429262403267622
1767708646069231900,2.55723193359375,-1.3703284221313894,0.0464132208650466,1.4281255081921815
1767708646079232800,2.567232666015625,-1.3894443337507545,-0.05746718738614581,1.2208096224457026
1767708646089232100,2.577232177734375,-1.4200373326741158,-0.1561520271550864,0.859480402073264
1767708646099232300,2.587232177734375,-1.3650168717198072,-0.2944555688107386,0.49029286941587924
1767708646109233200,2.597233154296875,-1.1670914762616156,-0.4067016726134345,0.11844108598530292
1767708646119233000,2.60723291015625,-0.9471170383416115,-0.49250871883444486,-0.20623393572866916
1767708646129234400,2.617234375,-0.8200821654036641,-0.472049977771379,-0.558477932369709
1767708646139234300,2.627234375,-0.7833065323226154,-0.3894984992802143,-0.8018868757605552
1767708646149235200,2.637235107421875,-0.7445866333059966,-0.31152156216297294,-1.020484618499875
1767708646159235300,2.6472353515625,-0.7282352179639041,-0.29238117368947714,-1.1386983254700898
1767708646169235200,2.657235107421875,-0.7866220866113901,-0.2963919254344888,-1.2478238860994577
1767708646179236000,2.667236083984375,-0.9371849885225295,-0.32078502853810786,-1.3142606440812348
1767708646189236200,2.677236328125,-0.8843921404898166,-0.2677604906413704,-1.287051734638214
1767708646199237000,2.687237060546875,-0.8201379872441291,-0.26541918821223076,-1.245646542060375
1767708646209237200,2.6972373046875,-0.7752865997351706,-0.3570492049656808,-1.1128607043802738
1767708646219237400,2.7072373046875,-0.8481823245979845,-0.43585250990446656,-0.9655623572230339
1767708646229238300,2.71723828125,-1.066681137007475,-0.4615669795386493,-0.9173264418423175
1767708646239238100,2.727238037109375,-1.236282501387596,-0.39658812874760474,-0.9719079268574714
1767708646249239300,2.7372392578125,-1.2768003897368907,-0.21636556324046105,-0.9490747482806443
1767708646259239200,2.7472392578125,-1.2985469421207905,-0.0703867742491886,-0.9517284776598215
1767708646269240000,2.757239990234375,-1.3372405376523733,-0.0035696021150797602,-0.8959054681509733
1767708646279240200,2.767240234375,-1.440862240168452,0.04597209863457828,-0.8317734799802303
1767708646289240000,2.777239990234375,-1.6873036831229924,0.07390325793754308,-0.8191197501122951
1767708646299241200,2.7872412109375,-1.8781863204628229,0.024973624671623108,-0.8379010229498147
1767708646309241300,2.797241455078125,-2.0158634373158217,0.008648987738601862,-0.9180085788875818
1767708646319242200,2.8072421875,-2.1083020670384167,-0.0859374676676467,-0.9462877479106188
1767708646329242000,2.8172421875,-2.1986223894327876,-0.2732806057697162,-0.9459247598171233
1767708646339243300,2.8272431640625,-2.287067565605044,-0.3902823066016659,-0.8949807545214891
1767708646349243100,2.8372431640625,-2.3219255284965037,-0.5156611559608951,-0.7251864979177713
1767708646359243300,2.8472431640625,-2.3259932163268324,-0.7076101438906043,-0.5133358913511038
1767708646369244400,2.857244384765625,-2.3526515061497686,-0.8094622794508933,-0.274402047547698
1767708646379244300,2.867244384765625,-2.340163195976615,-0.7809948943793773,-0.08965162935256958
1767708646389245200,2.8772451171875,-2.3795739998668433,-0.7006968573708087,-0.020824176841974257
1767708646399245300,2.887245361328125,-2.3751976844787595,-0.5918879249425605,-0.00873626416325569
1767708646409246200,2.89724609375,-2.3841139813840386,-0.43109811845161017,-0.03409866895675659
1767708646419246000,2.90724609375,-2.37836696216464,-0.3191604230109602,-0.11562661308646201
1767708646429246200,2.91724609375,-2.3855711944550273,-0.3202470492038876,-0.24899463456869123
1767708646439247000,2.9272470703125,-2.3383511781185864,-0.40494686483535913,-0.3512959021359682
1767708646449247200,2.937247314453125,-2.3135060751974583,-0.6432453698772936,-0.4023474594593048
1767708646459248400,2.947248291015625,-2.238682012620568,-0.8683532251629978,-0.40945056946277614
1767708646469248300,2.957248291015625,-1.8815619343757628,-1.0813782823365181,-0.2408797171741724
1767708646479249200,2.967249267578125,-1.542615810725093,-1.2328012351430953,0.16654606846272946
1767708646489249300,2.977249267578125,-1.1370248392999172,-1.1279606583565474,0.6601350568145513
1767708646499249200,2.987249267578125,-0.7504384280741214,-0.8730275736495852,1.02819621579051
1767708646509250000,2.99725,-0.7874807492673397,-0.6384113007843494,1.3595651821851729
1767708646519250200,3.007250244140625,-1.1916928335547448,-0.5977862987987697,1.8978759403169154
1767708646529251300,3.017251220703125,-1.677686544471979,-0.7812713732331991,2.338299740192294
1767708646539251200,3.027251220703125,-2.0571862123072147,-1.1888630169562995,2.3275620730787514
1767708646549252400,3.03725244140625,-2.0456769762992857,-1.7234692214816807,1.7411188599407672
1767708646559252200,3.047252197265625,-1.4886048190742731,-1.864639879538864,1.2389485057264567
1767708646569252400,3.05725244140625,-0.744195149770379,-1.6853113402619957,2.0040332987904548
1767708646579253200,3.067253173828125,-0.04408697900772095,-1.278102266115695,2.8845629186332222
1767708646589253000,3.077253173828125,0.5917921729505061,-0.4293483521748334,3.5270734714299437
1767708646599254000,3.08725390625,1.323273971620202,0.18424871575068683,4.07621366661191
1767708646609254100,3.097254150390625,2.099901318439841,0.41765148464031515,4.0985511706262825
1767708646619255300,3.10725537109375,2.6957553340017792,0.5502634270582348,3.90500603607893
1767708646629255200,3.117255126953125,2.874575193104148,0.790243053587526,3.394490462845564
1767708646639255300,3.12725537109375,2.470477675107121,1.1243570078413934,2.6211457909584044
1767708646649256200,3.137256103515625,1.8071464525997638,1.3630005634613334,1.8304618617355823
1767708646659256300,3.14725634765625,1.3438222541302443,1.5371021618701517,1.152299565321207
1767708646669257200,3.15725732421875,0.9406143784493207,1.4080514190651476,0.47741409862041473
1767708646679257000,3.167257080078125,0.6568599806666374,1.0647110790435224,-0.05131868382692337
1767708646689258200,3.17725830078125,0.5347749852210283,0.7378888892330229,-0.33944705891013144
1767708646699258400,3.18725830078125,0.40570670675933357,0.39373230092506856,-0.6251496681511401
1767708646709259300,3.19725927734375,0.3543067743897438,0.20704258523043245,-0.9051210402637719
1767708646719259100,3.207259033203125,0.34110184037983415,0.09807734799562022,-0.9946826532453298
1767708646729259300,3.21725927734375,0.320419117835164,0.04430149854123592,-1.0001900184899568
1767708646739260200,3.22726025390625,0.509566309684515,0.08364102729354053,-1.080953992509842
1767708646749260300,3.23726025390625,0.5632090525448322,0.1815983108397573,-1.3048638701826334
1767708646759261200,3.24726123046875,0.5014858790814877,0.4003466410309076,-1.6211778907865284
1767708646769261000,3.257260986328125,0.5569874015510082,0.7363876908898354,-1.9259651397258042
1767708646779261200,3.26726123046875,0.4293512017190456,0.9822752993538976,-2.101962342622876
1767708646789262300,3.277262451171875,0.19002804807079954,1.0835793725773692,-2.163876654744148
1767708646799262200,3.28726220703125,-0.07103696351991966,0.9673638536870479,-2.30986567286849
1767708646809263000,3.29726318359375,-0.21534487842321395,0.8640735750824212,-2.4118361010462044
1767708646819263200,3.30726318359375,-0.2648071572611108,0.7296915542520582,-2.4275299292623997
1767708646829264100,3.31726416015625,-0.4397182819545269,0.6342253934018314,-2.5727263357043264
1767708646839264300,3.32726416015625,-0.5597872248699888,0.5685966638673097,-2.7253660438895224
1767708646849265400,3.337265380859375,-0.6230605869174003,0.40503823291324076,-2.8686890576750037
1767708646859265300,3.347265380859375,-0.8463175536394119,0.36894042602851984,-2.992577887672186
1767708646869265400,3.357265380859375,-1.1735235551357268,0.5323074260637164,-3.038442982268333
1767708646879266300,3.367266357421875,-1.3236357906699179,0.6866692818664014,-3.077361034205556
1767708646889266200,3.37726611328125,-1.342849025183916,0.8005358995430171,-3.067957246044278
1767708646899267000,3.38726708984375,-1.2993500751972198,0.9005110622502863,-3.0319255631983277
1767708646909267200,3.39726708984375,-1.1926187162280082,1.0064501017980276,-2.922997570967674
1767708646919268000,3.40726806640625,-1.1313280889630317,0.9262840206060557,-2.806781759816408
1767708646929268200,3.417268310546875,-1.0716120906036346,0.848371052103117,-2.6823049007982016
1767708646939268000,3.42726806640625,-0.9495113861322403,0.8247448234524577,-2.3647388343065976
1767708646949269200,3.437269287109375,-0.7448994986474513,0.8374598550535738,-1.818570932933688
1767708646959269400,3.447269287109375,-0.7422937000632286,0.8371726356100291,-1.1867974627286195
1767708646969270300,3.457270263671875,-1.1956547229230403,0.6525621373422443,-0.38249884965121744
1767708646979270100,3.467270263671875,-1.8501801231622694,0.4502794234573841,0.554408490973711
1767708646989271000,3.47727099609375,-2.613626501369476,0.19383944131880998,1.343218443018198
1767708646999271200,3.487271240234375,-3.2171418453395364,-0.06186141289025545,2.001270263817906
1767708647009271000,3.49727099609375,-3.3944670819699763,-0.38688502884618936,2.474793784740567
1767708647019272400,3.5072724609375,-3.2693899189710613,-0.9571506488390267,2.6470406951934096
1767708647029272300,3.517272216796875,-3.100737818139791,-1.2847078018605709,2.631649064794183
1767708647039273200,3.527273193359375,-2.803724710333347,-0.9343583867944777,2.497925069481134
1767708647049273300,3.5372734375,-2.7892613006949425,-0.038015294411219654,1.9843267278015613
1767708647059274200,3.547274169921875,-2.724206352460384,0.8202955158933997,2.0934014350265264
1767708647069274000,3.557274169921875,-2.7907693671703337,1.0887763566985726,2.5580226875692604
1767708647079274200,3.567274169921875,-3.309016995960474,1.1709596959970892,2.53556886369884
1767708647089275600,3.577275634765625,-3.85340093652606,1.360230660356581,2.270078436881304
1767708647099275500,3.587275634765625,-4.033417311936617,1.0743218610189855,1.5120979228645561
1767708647109276400,3.5972763671875,-2.8719126958966252,0.6002431538989768,1.049485672056675
1767708647119276800,3.60727685546875,-0.49978608942627906,0.4605234253024682,0.9989017322450876
1767708647129277700,3.617277587890625,1.9815783058762548,0.9684157738927751,1.6043804852426051
1767708647139277800,3.62727783203125,3.9871091497480866,1.733752422825992,2.6677912222772835
1767708647149278700,3.63727880859375,4.76424970678687,2.416967034193873,3.5109061804831025
1767708647159278600,3.647278564453125,4.566311890238524,2.998698124118149,4.104405741873383
1767708647169278700,3.65727880859375,3.58877501758337,2.907205543074012,4.269171941182017
1767708647179279600,3.667279541015625,2.333723518317938,2.1235984203696248,3.666113108807802
1767708647189279500,3.677279541015625,1.4996750791430473,1.150900804439187,2.437870706012845
1767708647199280600,3.68728076171875,0.9344120166778563,0.15320322381947188,0.8642267198175191
1767708647209280800,3.69728076171875,0.4840028293609619,-1.0272055973179637,-0.20724515859782694
1767708647219281700,3.70728173828125,0.33456162495613095,-1.9157219781309365,-0.1412508836865425
1767708647229281500,3.717281494140625,0.20406711308360098,-2.5013448147967456,0.38397885907590384
1767708647239281700,3.72728173828125,-0.14007599468827248,-2.948930469125509,0.9039280310869217
1767708647249282600,3.737282470703125,-0.48835167222023007,-2.7955270830914376,1.3886568366348742
1767708647259282700,3.74728271484375,-0.4706336447000503,-1.7989912031948565,1.83343123293519
1767708647269283600,3.75728369140625,-0.3714017015755176,-0.8812827762976289,1.792356295225024
1767708647279283700,3.76728369140625,0.08961772708296775,-0.0270309042613022,1.6981354582607746
1767708647289284600,3.77728466796875,0.6546212618291377,0.718516957025975,1.9793284811228513
1767708647299284700,3.78728466796875,0.8118225788414478,1.0596077645551412,2.0330676700949666
1767708647309284600,3.79728466796875,0.6444622713863849,1.2254179199587554,1.505460676807165
1767708647319285500,3.807285400390625,0.35251229218840596,1.1631038679301737,0.6990881800651549
1767708647329285600,3.81728564453125,0.22208441581130026,0.9571866700004785,-0.15697452251911162
1767708647339286500,3.82728662109375,0.1979968532592058,0.6287620864946395,-1.04033731996119
1767708647349286700,3.83728662109375,0.1441045195519924,0.36192017200291154,-1.8225369139552114
1767708647359287800,3.847287841796875,0.20791151355206966,0.09837963714413345,-2.467871292001009
1767708647369287700,3.85728759765625,0.21913608739972112,-0.19111801699828354,-3.008383359569311
1767708647379288600,3.86728857421875,0.1914040308654308,-0.40711715807914733,-3.3872722020298243
1767708647389288700,3.877288818359375,0.3843295722097158,-0.34383521086648106,-3.504430262467265
1767708647399288600,3.88728857421875,0.39776889949738975,-0.42467842413503676,-3.482517705866694
1767708647409289500,3.89728955078125,0.2591571321427822,-0.554915892506577,-3.496735031789541
1767708647419289600,3.90728955078125,0.20306816517412662,-0.6224500538036227,-3.523988949418068
1767708647429290500,3.91729052734375,0.10148293692171573,-0.6600491320967674,-3.4497330421179533
1767708647439291000,3.927290771484375,0.0216021754771471,-0.5986401026165112,-3.2820459869265552
1767708647449291800,3.937291748046875,0.048348718972271304,-0.7634634754724801,-3.1854274411708117
1767708647459291600,3.947291748046875,-0.017988076633214948,-1.052878310169652,-3.0228491072952743
1767708647469291800,3.957291748046875,-0.1654144340842962,-1.1378772183455526,-2.735447877442837
1767708647479292700,3.967292724609375,-0.3301765417397022,-1.1656023336824028,-2.4772452695459126
1767708647489292500,3.97729248046875,-0.7864145813405513,-1.2602198418140411,-2.3503876528710124
1767708647499293400,3.98729345703125,-1.2283137144654988,-1.1325801348507403,-2.12349554451704
1767708647509293600,3.99729345703125,-1.3714064266264439,-1.014692006573081,-2.0032342573672532
1767708647519294700,4.007294677734375,-1.5082202046483755,-0.8496204676423221,-1.9206027359098194
1767708647529294800,4.017294921875,-1.8215560862243174,-0.6364332056444137,-1.806418722847104
1767708647539295700,4.027295654296875,-1.9787252545326948,-0.3218040328549221,-1.7034037540525198
1767708647549295600,4.037295654296875,-1.9129361468046902,-0.03214908295867499,-1.5607406654804945
1767708647559295700,4.047295654296875,-1.768031416785717,0.10549658387671224,-1.2899193990290163
1767708647569296600,4.057296630859375,-1.5255127002328632,0.409564185905084,-0.8489829734563827
1767708647579296500,4.067296630859375,-1.07036420943439,0.6816616097722202,-0.3294727773845196
1767708647589297400,4.07729736328125,-0.5578033941090107,0.8172185926660895,-0.12058452775478362
1767708647599297800,4.0872978515625,-0.3256108412593603,1.026787371905893,-0.1843330695658922
1767708647609298700,4.097298583984375,-0.9400865551829337,0.8890789831317961,-0.07256956164836884
1767708647619298800,4.107298828125,-2.4733961929023263,0.5666197012385353,0.8927630784720182
1767708647629298700,4.117298583984375,-4.441249924808741,0.06213657656982541,2.0332915419787168
1767708647639299600,4.127299560546875,-5.932368772530555,-0.6432246193502098,2.9920524024933575
1767708647649299700,4.1372998046875,-5.4905386129885905,-1.4000591051369904,3.379496891853213
1767708647659300600,4.147300537109375,-3.7981747238665817,-2.4058247318021952,3.0102064833432434
1767708647669300500,4.157300537109375,-2.0324936695992943,-3.293962634691596,2.098514247995615
1767708647679301600,4.167301513671875,-0.9827905553996562,-3.6207889892205594,1.3000269515454768
1767708647689301800,4.1773017578125,0.19429449160993098,-2.949909543290734,1.7347826426565647
1767708647699302700,4.187302734375,1.6614251455008984,-1.9494348626405,2.76013399040997
1767708647709302800,4.197302734375,2.3661937092900276,-1.3447940217718481,3.7979812471210956
1767708647719302700,4.207302734375,2.0565689571917054,-0.31926318926569075,4.684986200457811
1767708647729303600,4.217303466796875,1.9383961667537688,0.39597971452567726,5.276042460349202
1767708647739303700,4.2273037109375,2.0749276207029816,0.6186224583394825,5.896002743163704
1767708647749304600,4.2373046875,2.362224221137166,0.7378015032105147,5.770232921725511
1767708647759304700,4.2473046875,2.8337393248468636,0.4586573026370257,4.629081357884407
1767708647769305600,4.2573056640625,2.933199231508374,0.2774722853058949,2.8047984770447014
1767708647779305700,4.2673056640625,2.814970911490917,0.3672389558728784,1.1520113960295915
1767708647789305600,4.2773056640625,2.9475761319071054,0.577651638590917,0.08730477396547794
1767708647799306800,4.287306640625,3.029993133831024,0.9581200783930718,-0.6800748520374298
1767708647809306600,4.297306640625,2.7233821765959263,1.4228927221052348,-0.9080909959852695
1767708647819307500,4.3073076171875,2.0973323447346686,1.7419379212386905,-0.6385328813374043
1767708647829307600,4.3173076171875,1.3706225827723741,1.9236001641601324,-0.08205401383042335
1767708647839308800,4.327308837890625,1.089631219962239,1.8942646179519593,0.5519365479022265
1767708647849308700,4.33730859375,1.2230208687543869,1.688872101483494,1.0671931781828403
1767708647859309600,4.3473095703125,1.2030664604842662,1.2964134372234344,1.3000035706698894
1767708647869309700,4.357309814453125,0.905191767412424,0.926047362305969,1.3101286588430403
1767708647879309600,4.3673095703125,0.47219314910173416,0.5302666044184938,1.223615327516198
1767708647889310700,4.377310791015625,0.012409381451737134,0.17015960105108097,1.0509908159226178
1767708647899310600,4.387310546875,-0.3181295455932617,-0.019181478535709902,0.5791109705537557
1767708647909311500,4.3973115234375,-0.4688403315424919,-0.23817703408673405,-0.27157529968917365
1767708647919312000,4.407311767578125,-0.4716811079263687,-0.4599843499897048,-1.2473983541637659
1767708647929312800,4.417312744140625,-0.38774033050127327,-0.6446374818228184,-2.2236007633447645
1767708647939312600,4.427312744140625,-0.23960717648770657,-0.7833169075861572,-3.0003216336667538
1767708647949312800,4.437312744140625,-0.019090521449781954,-0.8289281735517084,-3.591968260666728
1767708647959313700,4.447313720703125,0.2115349647462368,-0.7673779455024748,-4.17800581561327
1767708647969313500,4.4573134765625,0.31258243286013604,-0.4496665887886658,-4.489700944244861
1767708647979314700,4.467314697265625,0.3233446133604273,0.03423536488055251,-4.450232857209444
1767708647989314600,4.477314453125,0.22472641822006553,0.48349298014268277,-4.328395114523172
1767708647999315700,4.487315673828125,0.08670677153971046,0.8755151526816188,-4.114460687419772
1767708648009315800,4.49731591796875,0.19926701932549476,1.2076083416976033,-3.9790035847038028
1767708648019316700,4.507316650390625,0.2752898997655138,1.403739839476347,-3.805572432902455
1767708648029316600,4.517316650390625,0.015606697922013699,1.6745304185286163,-3.5545530145078894
1767708648039316700,4.527316650390625,-0.4009668187558651,1.901597298927605,-3.378353567036986
1767708648049317600,4.537317626953125,-0.7213982115507126,2.0611451790660618,-3.1438135742783544
1767708648059317500,4.5473173828125,-1.011539606956765,2.223191159630567,-2.7235785759508606
1767708648069318700,4.557318603515625,-1.1266777058739215,2.1968957117706536,-2.336567217311263
1767708648079318800,4.56731884765625,-1.1288322535593063,1.9321169403538108,-2.019303933158517
1767708648089319400,4.5773193359375,-0.9892168621201067,1.4547629013575614,-1.6864344990730284
1767708648099319600,4.587319580078125,-0.9613268385451287,0.9781077313456684,-1.6266145288825034
1767708648109319400,4.5973193359375,-1.2930688029706476,0.5273324141301214,-1.2528519433945418
1767708648119320300,4.6073203125,-1.6881506553411483,0.2598102805555798,-0.879501445838809
1767708648129320400,4.617320556640625,-1.6363503254771232,0.15805334899807347,-0.3316419381171465
1767708648139321300,4.6273212890625,-1.4079261852502822,0.07369314971766434,0.44911739394068717
1767708648149321200,4.6373212890625,-1.2101695704877375,0.1824940541030839,1.1543898155987262
1767708648159322400,4.647322265625,-1.2860007642805575,0.48525407153107225,1.8069436235040426
1767708648169322200,4.657322265625,-1.9415479087829588,0.6760674430269747,2.394763385692239
1767708648179323400,4.667323486328125,-2.5384195769548414,0.7679157787062227,3.1102240238875147
1767708648189323500,4.677323486328125,-2.8898130942463873,0.7040988478340208,3.574565290445089
1767708648199323400,4.687323486328125,-3.616602935707569,0.378844784123078,3.4338895762979984
1767708648209324300,4.69732421875,-4.098865058881044,0.3078040029445663,2.719958047366142
1767708648219324400,4.707324462890625,-3.7371126446604728,0.08202922644903883,2.5074422548890114
1767708648229325300,4.7173251953125,-3.3263515771210193,0.018912988908810074,2.2181617871612307
1767708648239325200,4.7273251953125,-2.808674441695213,0.24695598661424592,1.7981670273303985
1767708648249326600,4.73732666015625,-1.2952233506560324,0.5303009450795129,1.8925474387705326
1767708648259326500,4.747326416015625,0.9618915597558021,0.9152871180344373,2.1897417483627795
1767708648269327400,4.757327392578125,3.253031489366293,1.6483675110071896,2.7534400457292794
1767708648279327500,4.767327392578125,5.339988570559025,2.3184642821267247,3.6326615055829286
1767708648289327400,4.777327392578125,6.752770963668823,2.6847046554163096,4.366488990595936
1767708648299328300,4.787328369140625,6.345307768630981,3.010186609598994,4.412191003584861
1767708648309328400,4.797328369140625,4.266505936843156,2.948490324142575,4.1993414491087195
1767708648319329300,4.807329345703125,2.2766601533591744,2.325584781656414,2.7985598749160765
1767708648329329200,4.8173291015625,1.1396949352920054,1.2294729675032197,0.9128741386085748
1767708648339330600,4.82733056640625,0.6417594421684741,0.10309804396815597,0.12896715617477894
1767708648349330400,4.837330322265625,0.37777883539199825,-0.8214689435869454,0.21168752495944498
1767708648359330300,4.847330322265625,0.10568331122100352,-1.181478751923889,0.6222130301773547
1767708648369331500,4.85733154296875,-0.004175826663209591,-1.2357523400336503,1.0044278021901845
1767708648379331300,4.867331298828125,0.05475976419150829,-1.149994503249228,1.4220909042030572
1767708648389332200,4.877332275390625,0.3616244039267301,-0.5135569867558777,1.7733353684127329
1767708648399332400,4.887332275390625,0.646116468334198,0.28531497989660126,1.940534932348132
1767708648409333500,4.89733349609375,0.5259516272962093,0.6386496395848691,2.1549130115658044
1767708648419333400,4.90733349609375,0.609472791069746,0.952138665895909,2.486856562978029
1767708648429334500,4.91733447265625,0.9137737177968025,1.1332286618873477,2.5105636017799378
1767708648439334400,4.92733447265625,1.0792857670366764,0.8464964904028922,1.8371657432883977
1767708648449334300,4.937334228515625,1.0240870269060134,0.4697288778800517,0.8227139752119779
1767708648459335400,4.94733544921875,0.8487199386060238,0.08166329747978597,-0.3283019800394773
1767708648469335300,4.957335205078125,0.6462006394863128,-0.35224355824962256,-1.4878162990450858
1767708648479336200,4.967336181640625,0.5871440548837185,-0.7996331054843961,-2.455928925272822
1767708648489336300,4.97733642578125,0.5381108516454697,-0.9589537527382374,-3.2641771527588364
1767708648499337500,4.98733740234375,0.347456177842617,-0.8146363210879266,-3.8796792871206995
1767708648509337300,4.99733740234375,0.35339842737317084,-0.7647730967663228,-4.386604726907611
1767708648519338500,5.00733837890625,0.5343173045814037,-0.8218762092135846,-4.700142268535495
1767708648529338400,5.01733837890625,0.5970856031835079,-0.9057146222427487,-4.842478024849295
1767708648539338200,5.027338134765625,0.24906477719545364,-1.233820495188236,-4.5703819161564105
1767708648549339400,5.03733935546875,-0.0697451701437123,-1.3951555510044098,-4.099755285719037
1767708648559339300,5.04733935546875,-0.23236032889829947,-1.3830246759667992,-3.569041558587551
1767708648569340400,5.05734033203125,-0.466055669260025,-1.4462255207672714,-2.988233720988035
1767708648579340500,5.067340576171875,-0.8246832294583321,-1.3874154582716525,-2.4112422268062828
1767708648589341400,5.077341552734375,-1.1761071418881415,-1.3399790227055548,-2.1829180398225785
1767708648599341300,5.08734130859375,-1.5614917761087417,-1.2337959452688694,-2.031578892841935
1767708648609341400,5.097341552734375,-1.7941630523860455,-1.0518765857812016,-1.9047382273018358
1767708648619342300,5.10734228515625,-1.9021826976001261,-0.7694497102752328,-1.762059356638789
1767708648629342200,5.11734228515625,-1.9477192908942698,-0.42781485899724064,-1.7481226012229918
1767708648639343400,5.12734326171875,-1.882135934871435,-0.1641120462488383,-1.9287398651361465
1767708648649343200,5.13734326171875,-1.859705491876602,-0.015031108257453888,-1.8907494494378565
1767708648659344400,5.147344482421875,-2.0347429098308085,-0.04578786464147269,-1.6964362531274557
1767708648669344500,5.157344482421875,-2.5012930846095083,0.06846291178083047,-1.6226666680395603
1767708648679345400,5.167345458984375,-2.92574716193676,0.2760690857107751,-1.5567939736813305
1767708648689345300,5.17734521484375,-2.879295207363367,0.17032810775209217,-0.9269307210117578
1767708648699345400,5.187345458984375,-1.9616005167305468,0.1262890778056346,-0.047644963750243186
1767708648709346300,5.19734619140625,-0.3695511052727699,-0.10374373972686007,0.9500631747961044
1767708648719346200,5.20734619140625,0.6187818866848945,-0.27601642394177617,1.211906769543886
1767708648729347600,5.21734765625,0.006787468183040619,-0.03532251166328788,0.3668465224891901
1767708648739347500,5.227347412109375,-2.506925537538528,0.6644878451965749,-0.4226736236512661
1767708648749348400,5.237348388671875,-5.399075550299883,1.4926402120701967,0.583804681327939
1767708648759348500,5.247348388671875,-6.45428135356903,1.2458141537122427,2.83298119995594
1767708648769349400,5.257349365234375,-5.730607013779879,0.538284600777179,3.5471301710307594
1767708648779349200,5.267349365234375,-3.8949914225429296,-0.899398132572323,3.067754416948557
1767708648789349400,5.277349365234375,-1.6073878503650425,-2.7436814527809616,2.3708809903234243
1767708648799350300,5.287350341796875,0.01433481938925106,-3.8338416650533675,1.575812562406063
1767708648809350100,5.29735009765625,1.1107722076684237,-3.574572889229655,1.4980191286295652
1767708648819351600,5.3073515625,2.816061629337072,-2.4697096133440732,2.612618201109767
1767708648829351400,5.317351318359375,3.9318730002164837,-1.5495806813016533,3.709694476380944
1767708648839352300,5.327352294921875,3.6966122919678686,-0.4549242901211604,4.257639908820391
1767708648849352400,5.3373525390625,3.2945021483957766,0.2818745388528332,4.8841474213212726
1767708648859353300,5.347353271484375,2.5782407152116296,0.2732746144203469,5.745521089795232
1767708648869353200,5.357353271484375,2.4142905084609985,0.04605152054633945,5.3904345632046455
1767708648879353300,5.367353271484375,2.6604630713462827,-0.24339387368587775,3.713465227091312
1767708648889354500,5.3773544921875,2.5770786856949326,-0.05620093944314867,1.7709966963320969
1767708648899354400,5.387354248046875,2.8715584756314754,0.2588622773820534,0.7621025623828173
1767708648909355500,5.39735546875,3.420053943169117,0.3203329373890534,0.6367606109678745
1767708648919355400,5.40735546875,3.347659738087654,0.8804689756967127,1.0927829619914293
1767708648929356300,5.417356201171875,2.2157062107026575,1.3566862657479941,1.5117641608655452
1767708648939356400,5.4273564453125,1.1963783610224723,1.5676713415265082,1.7972902444958685
1767708648949357300,5.437357421875,1.4340847088575361,1.437880594009161,2.1669781278908253
1767708648959357200,5.447357177734375,1.967452749890089,1.1955276624772697,2.605615044349432
1767708648969357300,5.457357421875,1.734571045732498,1.1239563911512493,2.6488182262599467
1767708648979358500,5.4673583984375,1.1416495764911174,0.8517945968110113,1.9352374104619026
1767708648989358300,5.4773583984375,0.581566510479711,0.6171724056616426,0.953045989999175
1767708648999359500,5.487359375,0.2767851432919502,0.3885424406643957,0.11510580408275127
1767708649009359400,5.497359375,0.16403320885896683,0.1655364530287683,-0.6620604719191789
1767708649019360300,5.5073603515625,0.16098083555102347,-0.18778854378201065,-1.4994979690104722
1767708649029360400,5.5173603515625,0.18748890324831008,-0.5041451614186168,-2.4405139139980077
1767708649039361300,5.527361328125,0.12501867427732793,-0.7282016810204833,-3.37122239998281
1767708649049361400,5.537361328125,0.17662370076496153,-0.7379628312520682,-3.9842543448388574
1767708649059361500,5.547361572265625,0.10729841826744377,-0.627387071814388,-4.310053402146697
1767708649069362400,5.557362548828125,0.11034242560584097,-0.428011842874065,-4.701598897084594
1767708649079362300,5.5673623046875,0.1637455875566229,-0.24173067144770174,-4.694994384253024
1767708649089363200,5.57736328125,0.116711376115866,0.23011724441293627,-4.409122263664007
1767708649099363000,5.587363037109375,0.03505721179060638,0.5633283680755645,-4.333391607636213
1767708649109364000,5.597364013671875,-0.05302665678858757,0.8218649571672082,-3.9753953310787677
1767708649119364000,5.607364013671875,-0.1717033050954342,1.4133745137840508,-3.7861756585150954
1767708649129364000,5.617364013671875,-0.42573425333090126,1.8803706787645815,-3.9157559781521556
1767708649139365000,5.627365234375,-0.5273264958459883,1.9445986746557056,-4.075983949509263
1767708649149365200,5.637365234375,-0.6117850866001099,1.8523989682555198,-4.1285236995637415
1767708649159366100,5.6473662109375,-0.8525847242753952,1.7527042299248277,-4.2194425723731515
1767708649169366000,5.657365966796875,-1.0338426241796463,1.5648988080732524,-3.9124499223440883
1767708649179367200,5.6673671875,-1.0528139396965503,1.3980563870124518,-3.3015760323047636
1767708649189367000,5.677366943359375,-1.0286042120695114,1.2105829005289823,-2.734438408139348
1767708649199368000,5.687367919921875,-1.2058242347598076,0.974427362332493,-2.149230874276161
1767708649209368000,5.6973681640625,-1.1404782676894216,0.7657562625847757,-1.5591735622942446
1767708649219368200,5.7073681640625,-0.9623124885816127,0.6717805594880133,-1.0575041433393955
1767708649229369000,5.717369140625,-0.8865314906060695,0.6975738299794495,-0.5299988568603993
1767708649239369200,5.727369140625,-0.6570271539270878,0.653288771116361,0.12249708337783813
1767708649249370000,5.7373701171875,-0.6031015755373984,0.6311784999866038,0.7413432674705982
1767708649259370000,5.747369873046875,-1.21783031437397,0.8270640601802617,1.290834175786376
1767708649269371100,5.75737109375,-1.9512718688093125,1.3248041037969291,1.6012649835705757
1767708649279371000,5.76737109375,-2.761083838480711,1.7425857176229356,2.0120757354706527
1767708649289372200,5.7773720703125,-3.6218040114820003,1.719347465376556,2.5938696614980694
1767708649299372300,5.787372314453125,-4.247049541223049,0.9655007632289081,3.975072090473771
1767708649309372200,5.7973720703125,-4.80483423063159,0.13477892945976927,4.873929394167662
1767708649319373000,5.807373046875,-5.672925224661827,-0.267705600382667,4.56044329046607
1767708649329373200,5.817373291015625,-5.20793689237237,-0.04914809832219034,3.622242402899265
1767708649339374000,5.8273740234375,-2.599400407618284,-0.3828557002648711,2.8126339929759503
1767708649349374000,5.8373740234375,-0.07855857293009758,-1.3027460012458265,2.1762895615935323
1767708649359375000,5.847375,2.057923878931999,-1.448894301585108,2.876245756664872
1767708649369375000,5.857375,4.717078790289163,-0.5435077422529458,4.157705954906344
1767708649379376000,5.867376220703125,6.802493902736902,0.35599604265093804,4.824790976989269
1767708649389376300,5.877376220703125,7.2058420636713505,1.112641800932586,4.491311302050948
1767708649399376100,5.887376220703125,6.29558833669424,2.402117401716858,3.86798534219563
1767708649409377000,5.897376953125,4.684720827519893,3.422394368815422,3.145391783380508
1767708649419377200,5.907377197265625,2.3761083695828913,2.9528894358843565,2.2620219716757535
1767708649429378000,5.9173779296875,1.3223510115563868,1.7359144231654702,0.9486550615638494
1767708649439378000,5.9273779296875,0.9789619370222091,0.3025559096906334,0.5375836129009723
1767708649449379300,5.93737939453125,0.6215817465364932,-1.0225225540682672,0.5466168141841888
1767708649459379200,5.947379150390625,0.6986229006409644,-1.7386510085225104,1.2903881855845452
1767708649469380000,5.957380126953125,0.7227589785099029,-2.169191712287068,2.1793132933288812
1767708649479380200,5.967380126953125,0.595591565233469,-2.270513613428175,2.637940858414769
1767708649489380000,5.977380126953125,0.5225415265917778,-1.8963757648870347,2.8008973779529334
1767708649499381000,5.987381103515625,0.2671417011559009,-1.2667165103569626,2.2285727065384386
1767708649509381000,5.997381103515625,0.36239538829922674,-0.584927949736826,1.5202607710540295
1767708649519382000,6.007382080078125,0.9628326399981975,-0.14850220652166754,1.312738549080491
1767708649529382000,6.0173818359375,1.420155552226305,-0.029061661170236765,1.4896610501289367
1767708649539383300,6.02738330078125,1.4549848735451698,0.09275160466190427,1.221881051069498
1767708649549383200,6.037383056640625,1.0690730005800724,-0.08426105888802558,0.342133521515131
1767708649559383000,6.047383056640625,0.6054653089940547,-0.2791224271330982,-0.7005033075600862
1767708649569384200,6.05738427734375,0.332146380507946,-0.3086743560383096,-1.5318459949076175
1767708649579384000,6.067384033203125,0.3857096283912658,-0.42617315620481966,-2.4041414548903703
1767708649589385000,6.077385009765625,0.4980313547134399,-0.8639536019645631,-3.3488147533416748
1767708649599385000,6.087385009765625,0.3212508924841881,-1.2074843499917536,-4.083070692899823
1767708649609386200,6.09738623046875,0.3421452119529247,-1.2518252306953073,-4.5776557065516705
1767708649619386000,6.10738623046875,0.2834838006803766,-1.4224248123325407,-5.149172568714619
1767708649629387300,6.11738720703125,0.1262087882441934,-1.5945236926168203,-5.577083508497476
1767708649639387100,6.12738720703125,-0.007421089911460876,-1.7096905792370438,-5.503453039619326
1767708649649387000,6.137386962890625,-0.1560907254219055,-1.812974428100884,-5.181375633183121
1767708649659388200,6.14738818359375,-0.22953706990480421,-1.8918435282848773,-4.7495413824766874
1767708649669388000,6.157387939453125,-0.4133212734162807,-1.900465372288227,-4.326505355253816
1767708649679389000,6.167388916015625,-0.8087035700380801,-1.7297434794455766,-3.9565515143990515
1767708649689389000,6.17738916015625,-1.167365032505989,-1.5033921999700366,-3.6078567346721884
1767708649699390200,6.18739013671875,-1.2414321392357348,-1.38101830458045,-3.097422409981489
1767708649709390000,6.19739013671875,-1.2000351299643517,-1.2272498846262692,-2.449588616335392
1767708649719391200,6.20739111328125,-1.2861281900525092,-1.0581595385082065,-1.9146973112583159
1767708649729391000,6.21739111328125,-1.6321405988276003,-0.866012580320984,-1.6494582288533448
1767708649739391000,6.227390869140625,-2.031983966511488,-0.6486153724778443,-1.4355425064504146
1767708649749392100,6.23739208984375,-2.2898013744831083,-0.49145771194417026,-1.375848208466172
1767708649759392000,6.24739208984375,-2.5013129583537577,-0.26036595994327216,-1.2760580469369887
1767708649769393200,6.25739306640625,-2.2986884452939034,-0.0664929086158052,-0.8967635462850332
1767708649779393300,6.267393310546875,-1.785092441701889,-0.24647209382113067,-0.1458610078305006
1767708649789394200,6.277394287109375,-1.1363339344263077,-0.5139502238571644,0.6043395198345184
1767708649799394000,6.28739404296875,-0.6559598169565201,-0.4781838408838957,1.0557207670539617
1767708649809395200,6.297395263671875,-1.0020902991533278,-0.02048442349359393,1.027913307195902
1767708649819395000,6.30739501953125,-2.4958932713925837,0.7608325424470007,1.1643898160874844
1767708649829395000,6.31739501953125,-4.590534477347135,1.2326707406312227,2.016880505403876
1767708649839396000,6.32739599609375,-6.1445531410962335,1.1119384019035845,3.2704619321167465
1767708649849396000,6.33739599609375,-6.2251978726506225,0.10136829756610095,4.466107302689552
1767708649859397000,6.347397216796875,-4.508386355492473,-1.32133803512156,4.671658516851068
1767708649869397200,6.357397216796875,-2.1336294005185366,-2.6069886707901953,3.2960569766223426
1767708649879398100,6.367398193359375,-0.13184066578447817,-3.0339865873813627,1.603584366428852
1767708649889398000,6.37739794921875,1.7352233721613883,-2.7650717390730977,0.9787146842628717
1767708649899398100,6.387398193359375,3.3321044415593146,-2.5118247077569364,2.081928439375758
1767708649909399000,6.39739892578125,3.478057219326496,-2.2201465312376616,3.350198316654563
1767708649919399000,6.40739892578125,2.6302152325987813,-1.424940010023862,4.071436953729391
1767708649929400300,6.417400390625,1.8984031790614126,-0.8197489148613065,5.224354358687997
1767708649939400200,6.427400146484375,1.6907506087064743,-0.6965182565119117,6.060660805922747
1767708649949401000,6.437401123046875,2.2244892366170883,-0.4687691660024225,5.466655633097886
1767708649959401200,6.447401123046875,2.950687541925907,-0.37488128731958564,4.040138729146123
1767708649969402000,6.457402099609375,3.525412844741344,-0.13254295056862755,2.8365461989611385
1767708649979402000,6.467402099609375,3.628497956162691,0.3892769654840231,1.7144108857572078
1767708649989402000,6.477402099609375,3.123454676860571,1.1141670377384871,1.0635007534056902
1767708649999403000,6.487403076171875,2.528237205636501,1.81339177673012,0.9999550406903028
1767708650009403000,6.49740283203125,1.8162988963484763,2.182012615415454,1.258480304670334
1767708650019404300,6.507404296875,1.2571382424116133,2.012665371926874,1.5178490337371826
1767708650029404200,6.517404052734375,1.3571066831171512,1.4273315813355147,1.6797089902102946
1767708650039405000,6.527405029296875,1.8770178612053394,0.7789384002409875,2.0329449204981325
1767708650049405200,6.5374052734375,1.9072212762892244,0.43634171819351614,2.01651868635416
1767708650059406000,6.547406005859375,1.4161691129386424,0.1899936526108533,1.3977572579354047
1767708650069406000,6.557406005859375,0.903888283598423,0.032788335276860744,0.9126303929805755
1767708650079406000,6.567406005859375,0.5166822791695594,-0.12148905711276456,0.48511400547325606
1767708650089407200,6.5774072265625,0.3304746479034424,-0.3322836700867861,-0.08164894016087054
1767708650099408000,6.587407958984375,0.14289108864162117,-0.4374153753070161,-0.7489578341275454
1767708650109409000,6.597408935546875,-0.10843118515703827,-0.477298436351493,-1.7058417948544025
1767708650119409200,6.6074091796875,-0.3483622233042493,-0.4019720137430355,-2.7699750009447333
1767708650129410000,6.61741015625,-0.4668272381544113,-0.42474608254376794,-3.637802375602722
1767708650139410000,6.627409912109375,-0.33385669155716896,-0.510284431358613,-4.216043577584624
1767708650149411000,6.6374111328125,-0.11661449161265044,-0.4697327503375709,-4.632794825449586
1767708650159411000,6.647410888671875,0.04427402601242065,-0.19279818863756953,-4.862525372099876
1767708650169410800,6.657410888671875,0.22295769151449202,0.23677359702959655,-5.082748085692525
1767708650179412000,6.667411865234375,0.36268176749255504,0.6923439665019512,-5.141833311867714
1767708650189411800,6.677411865234375,0.2644844646453857,1.2297639132738112,-4.992712425458431
1767708650199413000,6.6874130859375,0.005238412110134959,1.7114552508220076,-4.722698968258499
1767708650209413000,6.6974130859375,-0.2240870243379846,1.8162609024256466,-4.49725764323473
1767708650219414000,6.7074140625,-0.40060090805292126,1.7039911985516547,-4.16735641130507
1767708650229414000,6.717413818359375,-0.7128432222384959,1.5257900558695197,-3.9466777706384657
1767708650239415000,6.7274150390625,-0.9660241295158862,1.5324115198358892,-3.732907009664178
1767708650249415000,6.737414794921875,-1.1804933941483498,1.667814115885645,-3.344233270770311
1767708650259414800,6.747414794921875,-1.3705658841490744,1.7986445817142724,-2.9902099894970653
1767708650269416200,6.757416259765625,-1.3289409113407133,1.6299867817945777,-2.4559821167647837
1767708650279416000,6.767416015625,-1.1746389690317214,1.28806164233312,-1.850606239619851
1767708650289417000,6.7774169921875,-1.197921571876481,1.0012462495446204,-1.3224129708766936
1767708650299417000,6.7874169921875,-1.3685913692057132,0.6211074070230126,-0.9312351402074098
1767708650309418000,6.79741796875,-1.4402537528812884,0.158501987814717,-0.6513987926512956
1767708650319417900,6.80741796875,-1.303758539289236,-0.18592950844448058,-0.08231587963700294
1767708650329419000,6.8174189453125,-0.902290273817256,-0.35157263671811667,0.6900824513107537
1767708650339419000,6.8274189453125,-0.850668807651475,-0.28025183302182705,1.2054735216259955
1767708650349418800,6.837418701171875,-1.1990799481313674,0.31702019611187277,1.5036615184307098
1767708650359420200,6.847420166015625,-1.799932283437252,1.0413844909265637,2.015454271993041
1767708650369420000,6.857419921875,-2.6662626975357533,1.344635616339743,3.146390146768093
1767708650379421000,6.8674208984375,-3.8585435601115226,0.8061288972444832,4.102638147678971
1767708650389421000,6.877421142578125,-4.862015669012069,-0.0903589556380175,4.744793311166763
1767708650399422000,6.887421875,-5.045393045288324,-0.986888346107304,4.730834343919158
1767708650409421800,6.897421875,-4.220104251152277,-1.5007313101977109,3.6160546541750427
1767708650419422000,6.907421875,-1.8649322866141795,-1.6088243129089475,2.2165566900521516
1767708650429423000,6.917423095703125,1.2235469384551048,-1.330786246946454,1.4201274951756
1767708650439423000,6.927423095703125,4.261164575815201,-0.32722466966416686,2.071753082320094
1767708650449424100,6.937424072265625,7.122292842847108,0.7991773976061493,3.1167373513042924
1767708650459424000,6.947424072265625,7.85180538727045,2.0371609307579694,3.6533833910942075
1767708650469425000,6.9574248046875,6.444215886628627,3.5691555403560398,4.058344247922301
1767708650479425000,6.967425048828125,4.571232395505905,4.537895943093299,4.149485823571681
1767708650489426000,6.977426025390625,2.693930456662178,4.229501317311823,3.720378952002525
1767708650499425800,6.98742578125,1.1769500224530696,2.720363121035695,1.6576123092144728
1767708650509426000,6.997426025390625,0.5334545502722263,0.8766340737089514,-0.5035410580456257
1767708650519427000,7.007427001953125,0.9682324532151222,-0.3962571066949516,-0.8065887698411941
1767708650529427000,7.017427001953125,1.647417662936449,-0.9325329979982226,-0.11100362946093081
1767708650539428000,7.027427978515625,1.6204571752965449,-0.8605159556660801,0.9973504111498593
1767708650549428000,7.037427978515625,0.7975275115072726,-0.11108750835210084,2.1568688218086955
1767708650559428900,7.047428955078125,-0.021487024664878843,0.7433227508500218,3.365498177117109
1767708650569429000,7.057428955078125,-0.11881809347099624,1.3182367081053554,3.913577465069294
1767708650579430000,7.067429931640625,0.34208208358883857,1.3321908530473707,4.213081805169582
1767708650589430000,7.077429931640625,0.9402338546991348,1.0316171301499009,3.82915555306375
1767708650599430100,7.08743017578125,1.6039304033875466,0.6179089032426476,3.0685943749040363
1767708650609431000,7.09743115234375,1.906088472867012,0.04030278429389,2.129172421109676
1767708650619431000,7.107430908203125,1.6859949386119841,-0.4677055188262835,0.9843605811953544
1767708650629432000,7.11743212890625,1.220258418303728,-0.8904055555604398,-0.3346300140172243
1767708650639432000,7.127431884765625,0.7100222465336322,-1.2561359335012734,-1.7645786459833384
1767708650649432800,7.137432861328125,0.38636780003905297,-1.4570162332423031,-2.8470968190699812
1767708650659433000,7.147432861328125,0.3629167818248272,-1.4994439007356761,-3.6888375663131474
1767708650669434000,7.15743408203125,0.4113485120385885,-1.4480112351402639,-4.4613411112010475
1767708650679434000,7.16743408203125,0.37693537030518054,-1.3760555676065385,-5.037861480739712
1767708650689434000,7.17743408203125,0.23291619094908236,-1.2140867439314722,-5.378215717622638
1767708650699435000,7.18743505859375,0.06841945623159408,-1.070866386802867,-5.357312045803666
1767708650709435000,7.197434814453125,-0.023018472015857695,-1.034470473754406,-5.079536137908697
1767708650719436000,7.20743603515625,-0.13240532306306996,-1.1194305842898786,-4.518071883204579
1767708650729436000,7.217435791015625,-0.2747504225939512,-1.2266302914232015,-3.930703371915221
1767708650739436800,7.227436767578125,-0.4728378767460584,-1.2069232089776545,-3.505942420595884
1767708650749437200,7.237437255859375,-0.6209416950672865,-1.3685720799833536,-3.2264351588636635
1767708650759438000,7.24743798828125,-0.8742389952659606,-1.4561131469227373,-2.9083021061390637
1767708650769438000,7.25743798828125,-1.1177414621591568,-1.3207852235443889,-2.7432699493706223
1767708650779438000,7.26743798828125,-1.2206377730101345,-1.3283579968862236,-2.7797067058861256
1767708650789439000,7.27743896484375,-1.375878603604436,-1.2151926593467592,-2.8715006079643963
1767708650799438800,7.28743896484375,-1.384703715094924,-1.1205563734494148,-2.7208430135071278
1767708650809440000,7.29743994140625,-1.556383054792881,-0.9664138594858348,-2.4358406614899635
1767708650819439900,7.30743994140625,-1.988359344318509,-0.706166228692606,-2.1875188116163016
1767708650829441000,7.31744091796875,-2.4152660754948854,-0.6078954587504267,-1.9555852019637823
1767708650839441200,7.327441162109375,-2.494962128022313,-0.46219165077563373,-1.5235744256466626
1767708650849441000,7.33744091796875,-1.76093882817626,-0.37392047946341334,-0.7446236043155193
1767708650859442000,7.34744189453125,-0.40746787121295924,-0.5551243476254866,0.19543781642615793
1767708650869442000,7.357442138671875,0.8722416839689016,-0.7787759031556546,0.8430114978313445
1767708650879443000,7.36744287109375,1.137705807301402,-0.7792297844029963,0.8453677055686711
1767708650889442800,7.37744287109375,-0.8536305070012807,-0.41232886484544723,0.9652484689682721
1767708650899444000,7.38744384765625,-4.474063230130076,0.1751072317874059,1.6162901187449692
1767708650909444000,7.397444091796875,-7.228324529114365,0.5759465882387012,3.059804919248819
1767708650919445000,7.407445068359375,-7.527091787111758,0.145075118149817,4.421062876826524
1767708650929445000,7.417445068359375,-5.665108413431048,-0.934884967951849,5.113905440500378
1767708650939445000,7.427445068359375,-2.6588556361496445,-2.583241884499788,4.300678255558013
1767708650949446000,7.43744580078125,-0.19576865581572056,-3.939215179672837,2.017666102823615
1767708650959446000,7.447446044921875,1.1163836178094149,-3.9374668747007844,1.048884783554077
1767708650969447000,7.457447021484375,2.024493903017044,-2.7949960449546576,1.680180114853382
1767708650979446800,7.46744677734375,2.753162982353568,-1.256631461933255,2.5951269680827855
1767708650989448200,7.4774482421875,3.0959102518528696,-0.4525291020803153,3.647343526408076
1767708650999448000,7.487447998046875,3.0802883198291062,0.14477098410408942,4.611041258803009
1767708651009449000,7.497448974609375,2.970663577505946,0.44863808599114413,5.557953276091814
1767708651019449000,7.507448974609375,2.9336294396191835,0.45185142201445994,6.112746382468939
1767708651029449000,7.517448974609375,3.136406512892246,0.16264800157826392,5.283527263146638
1767708651039449900,7.527449951171875,3.141635645717382,-0.07020326177529058,3.2450849142760037
1767708651049450000,7.537449951171875,3.174786804690957,-0.06813040559056681,0.6768956374794244
1767708651059451000,7.547450927734375,3.1434868265420195,0.27933144850758834,-0.7794318828463553
1767708651069451000,7.557450927734375,2.9984903265863654,0.6988706648569554,-0.9491513206481933
1767708651079452200,7.5674521484375,2.3557132318079472,1.2669812987729907,-0.49707916855514045
1767708651089452000,7.5774521484375,1.3636930757701395,1.691422955010086,0.46473348074555393
1767708651099452200,7.5874521484375,0.980797335755825,1.689194026914239,1.180207562944293
1767708651109452300,7.597452392578125,1.592372067540884,1.043602970693633,1.860658847078681
1767708651119452200,7.6074521484375,2.0982745940208436,0.4411258837301284,2.743652811208367
1767708651129453000,7.617453125,1.3360393451690673,0.27220015358924865,2.918318473240733
1767708651139453200,7.627453125,0.2436287236213684,0.1998559981945902,2.371631516429782
1767708651149454300,7.637454345703125,-0.07420735545065253,0.015605885071260853,1.6263959176957605
1767708651159454500,7.647454345703125,0.10508534532785416,-0.21390078056212514,0.7453636090278625
1767708651169455400,7.657455322265625,0.36083350927736607,-0.3623943653859198,-0.24733517692387103
1767708651179455200,7.667455322265625,0.5043745862603187,-0.5046828119592741,-1.229753391879797
1767708651189456100,7.6774560546875,0.37640754703879353,-0.45097193576619027,-2.0609692379772664
1767708651199456300,7.687456298828125,0.11929624150991439,-0.7549658423706889,-3.361087959459424
1767708651209456000,7.6974560546875,0.30174411838371307,-1.1891964866943656,-4.441573165413737
1767708651219457000,7.70745703125,0.5732277577340602,-0.987677450658381,-4.592620051449537
1767708651229457400,7.71745751953125,0.3627273967325687,-0.6026014439955354,-4.711850826507806
1767708651239458300,7.727458251953125,0.048555064332485194,0.13739585222620515,-5.048960382381082
1767708651249458400,7.73745849609375,0.05559621501564979,0.5595851629592478,-4.908107558101415
1767708651259459300,7.747459228515625,0.22646957209296523,0.9181571935780346,-4.726071659561992
1767708651269459200,7.757459228515625,0.12657229692749677,1.433394973027706,-4.779633153879642
1767708651279459300,7.767459228515625,-0.07148943826146423,1.7462516927845775,-4.558004665142297
1767708651289460200,7.777460205078125,-0.29293548310399053,1.8236361073687672,-4.583555870506167
1767708651299460000,7.787460205078125,-0.5060054023325443,1.7608242618858814,-4.718907759281993
1767708651309461200,7.797461181640625,-0.9330665203530341,1.8065671914070844,-4.501729235690832
1767708651319461400,7.80746142578125,-1.7230477811992166,1.819597791763395,-4.053346001243591
1767708651329462300,7.817462158203125,-2.0295568854950368,1.782544072393328,-3.4598031852334734
1767708651339462400,7.82746240234375,-1.9633855004511773,1.7816218429818749,-2.5643945606887337
1767708651349463300,7.83746337890625,-1.7783317153953015,1.6522019746035337,-1.5666718090951441
1767708651359463200,7.847463134765625,-1.3984298964999615,1.415116096754372,-0.7069687041819095
1767708651369463300,7.85746337890625,-1.1763025183297693,1.0073775188412517,0.07268997315764426
1767708651379464200,7.867464111328125,-0.8095452815592289,0.5829815283767878,0.6159235746443271
1767708651389464300,7.87746435546875,-0.5551261377237737,0.2462844257619232,0.9896867446541786
1767708651399465200,7.88746533203125,-0.6479772937700152,0.08085183496642857,1.360893215918541
1767708651409465300,7.89746533203125,-0.9461234972596168,0.37696262363828714,1.867275634869933
1767708651419466200,7.90746630859375,-1.4336207446075975,0.902429243896529,2.202678386825323
1767708651429466400,7.91746630859375,-1.9445863996960222,1.3529459101758896,2.6598908244162796
1767708651439467300,7.92746728515625,-2.33304781101346,1.616205801462382,3.2757547778278586
1767708651449467100,7.937467041015625,-2.9927333704948422,1.334625240587443,3.8375551326185464
1767708651459467300,7.94746728515625,-3.7831133483350277,0.7794621318541467,4.234685149690509
1767708651469468400,7.957468505859375,-4.477387406116724,0.24970303856637327,4.18548360414803
1767708651479468300,7.96746826171875,-4.652836327481269,-0.02245574183287099,3.6111762344837186
1767708651489469200,7.97746923828125,-4.079667021936178,-0.060378992312774056,2.825985641980171
1767708651499469300,7.98746923828125,-2.4394155973672866,-0.527122607304342,2.1625147187411784
1767708651509470200,7.99747021484375,-0.14833879612088202,-0.9225982447654009,1.6877169400990009
1767708651519470300,8.00747021484375,2.1958090855777264,-0.5346174931043759,1.7920307165324687
1767708651529471200,8.01747119140625,4.559494026917219,0.5702042817270383,2.3224457529783247
1767708651539471000,8.02747119140625,6.434727927315235,1.6209757923431694,2.7186750218182802
1767708651549471500,8.037471435546875,7.276273444247245,2.4481287729159,2.859561163845658
1767708651559472400,8.047472412109375,7.188152093201875,3.044339346830547,3.039646512839198
1767708651569472300,8.05747216796875,5.699902078914642,2.9267861495956775,3.0607699648886917
1767708651579473200,8.06747314453125,4.02942035125494,2.220211413167417,2.0839263351947066
1767708651589473300,8.077473388671875,2.354106965655088,1.0529798708479852,0.6644114189594984
1767708651599474200,8.08747412109375,1.3082242865264415,-0.4064651969764381,-0.06540741493403911
1767708651609474300,8.097474365234374,1.1776643082022666,-1.4599094704657791,-0.305441328933835
1767708651619474200,8.10747412109375,1.1525882460694759,-2.072942438235134,-0.15362287400364874
1767708651629475300,8.117475341796874,0.7846047554396093,-2.427497780558467,0.20320494329631328
1767708651639475500,8.127475341796876,0.3486638000667095,-2.2901237383052706,0.8680185133159161
1767708651649476400,8.137476318359376,0.019102138822339475,-1.6114032234862445,1.5590063890337944
1767708651659476200,8.147476318359375,-0.25178397302627564,-0.7865173841279,2.21100197853446
1767708651669477000,8.15747705078125,-0.013558496687933802,-0.14129844915531575,2.8438141441375016
1767708651679477200,8.167477294921875,0.7881636169649661,0.44748226701952515,3.216723327666521
1767708651689478100,8.17747802734375,1.4269815988540648,0.9507827943075448,3.0268910761624572
1767708651699478300,8.187478271484375,1.6161504180133341,0.927120690625906,2.523793085709214
1767708651709478400,8.197478515625,1.3944739984810353,0.6202566354125738,1.6886568512976168
1767708651719479300,8.207479248046875,1.1028419261258096,0.3175742497980594,0.3883703720331192
1767708651729479400,8.2174794921875,0.7183223843019455,-0.05814757999889552,-1.0166454787284136
1767708651739480300,8.227480224609375,0.25194413202404975,-0.6750414609801024,-2.2592618593126534
1767708651749480200,8.237480224609374,-0.09703764795064926,-1.0031058328714222,-3.331704628586769
1767708651759481000,8.247481201171874,-0.10681560318656265,-0.9209851104803383,-4.267147741878032
1767708651769481200,8.257481201171874,0.06544537232425063,-1.0036568908829242,-5.021744458675384
1767708651779482400,8.267482421875,0.054068274796009064,-1.2809975491657852,-5.561472097867727
1767708651789482200,8.277482177734376,-0.14333170854859054,-1.4795678183987735,-5.758071359288692
1767708651799482400,8.287482421875,-0.46230186968445774,-1.6135373129054904,-5.612864431452751
1767708651809483300,8.297483154296875,-0.7505366277515888,-1.8487790241926907,-5.313967409595847
1767708651819483400,8.3074833984375,-0.8986567396204919,-2.0514098208628595,-4.811378537708521
1767708651829484300,8.317484375,-0.918252324515581,-2.1739428523369133,-4.066860147333145
1767708651839484200,8.327484130859375,-0.7406430833119899,-2.261572620473057,-3.1657460046231747
1767708651849485000,8.337485107421875,-0.5827169226238503,-2.2605910620898007,-2.458881345337629
1767708651859485200,8.347485107421875,-0.7142506048183888,-2.0195218136928976,-2.0221838725090024
1767708651869486300,8.357486328125,-1.2460007623255251,-1.7035777954451738,-1.8894500572770834
1767708651879486200,8.367486328125,-2.0841911236107347,-1.4053895063795148,-1.8588620267897844
1767708651889486300,8.377486328125,-2.5450340266585347,-1.0121639494001864,-1.9085878884673118
1767708651899487200,8.3874873046875,-2.6733096934378144,-0.5739139133673161,-1.9686235472351312
1767708651909487400,8.3974873046875,-2.717492534035444,-0.3093993093119934,-2.0440029056072233
1767708651919488300,8.40748828125,-2.7274598012983797,-0.1017608405476436,-1.9024895715922117
1767708651929488100,8.417488037109376,-2.785673505336046,0.14802593077942727,-1.60578859847486
1767708651939489300,8.4274892578125,-2.5715268967866898,0.26851280684601514,-1.0290998866319656
1767708651949489400,8.437489501953126,-0.9938578928589821,0.20840280420035123,-0.08633680571615696
1767708651959489300,8.4474892578125,0.7856815908908844,-0.15478004468213766,0.4374000681400299
1767708651969490200,8.457490234375,0.6724889269530773,-0.3810809822099283,0.4430208306312561
1767708651979490300,8.467490234375,-1.8620353961288927,-0.6137254800781607,1.1465648210614918
1767708651989491200,8.4774912109375,-5.374340922015905,-0.3224664422864094,2.2613491869807243
1767708651999491300,8.4874912109375,-8.01779206828475,0.06091748310364783,3.785070912143588
1767708652009492200,8.4974921875,-7.923057436579465,-0.1130516480319202,5.103568755403161
1767708652019492000,8.5074921875,-4.960963534498214,-0.8046887814387679,5.149593424475193
1767708652029493200,8.5174931640625,-1.2137445063650607,-2.089182794418186,3.465412257286906
1767708652039493400,8.527493408203124,1.6359727243363855,-2.6086466671302913,2.4979922894984483
1767708652049493200,8.5374931640625,4.181875350522994,-2.122356603614986,3.11254574483335
1767708652059494100,8.547494140625,5.149292980223894,-1.2997364441663026,4.36571742170155
1767708652069494300,8.557494384765626,3.6940193528652188,-0.26784382154326886,5.028811912843585
1767708652079495200,8.5674951171875,2.2930665137588977,0.689472210457921,5.197703667649626
1767708652089495300,8.577495361328126,2.111180837345123,0.6291475056156516,5.33083963394165
1767708652099496400,8.587496337890625,2.5881869396865365,-0.13496396717047318,4.9477270363062615
1767708652109496300,8.597496337890625,3.2318624446094035,-0.5114657135650515,3.525639054712653
1767708652119497200,8.607497314453125,3.3722622644245623,-0.6650055854603648,1.838797143882513
1767708652129497300,8.617497314453125,3.817105634307861,-0.30704777774978426,0.23456804980933665
1767708652139497200,8.627497314453125,4.067307891100644,0.42323089220784604,-0.11736381214261055
1767708652149498400,8.637498291015625,3.632703006637096,1.219216581100598,0.21284663186669348
1767708652159498500,8.64749853515625,2.722123116445541,1.9898795396231113,0.9647580551028251
1767708652169499400,8.65749951171875,1.6338754597961902,2.3905302781671285,1.8663789782911537
1767708652179499300,8.667499267578124,1.526960560953617,2.3218666379161177,2.1164783592313525
1767708652189500400,8.67750048828125,2.302926228994131,1.8041268125176428,2.366573063996434
1767708652199500300,8.687500244140624,2.712664383226633,0.8394540245454758,2.727593656811118
1767708652209500400,8.69750048828125,2.0009657279133797,0.15722067929990588,2.387627542462945
1767708652219501300,8.707501220703126,1.052734444719553,-0.224144691075664,1.7671785993486642
1767708652229501200,8.717501220703125,0.29149288308024407,-0.3711726055273786,0.9589911621391772
1767708652239502300,8.72750244140625,0.03657572659477591,-0.22449991598781197,0.17052900061905382
1767708652249502500,8.73750244140625,0.040514381217956544,-0.3534760226540267,-0.4645183766901493
1767708652259503400,8.74750341796875,0.019398966344445944,-0.7753158258296549,-1.2589900077581404
1767708652269503200,8.757503173828125,0.031013489357754585,-0.9809655319295822,-2.172145885917544
1767708652279504400,8.76750439453125,-0.3267853649314493,-1.267486033424735,-3.0897318554788824
1767708652289504300,8.777504150390625,-0.7466961728058755,-1.4074240809470415,-3.812547532612085
1767708652299504400,8.78750439453125,-0.9090003659151494,-1.3766652239374815,-4.28427364872396
1767708652309505500,8.797505615234375,-0.7729645865283906,-1.065585669920966,-4.6495530680269
1767708652319505400,8.80750537109375,-0.6681200642190873,-0.5782084687560797,-4.951341719672084
1767708652329506300,8.81750634765625,-0.3787875740431249,-0.15470769183197988,-5.151846171838045
1767708652339506400,8.82750634765625,-0.007188523264601826,0.21693740831166505,-4.989644270059466
1767708652349507300,8.83750732421875,0.1382536015667021,0.8669362710371613,-5.032493231704831
1767708652359507200,8.847507080078126,0.0609551117002964,1.530623175114393,-5.304333319810032
1767708652369508400,8.85750830078125,-0.258108353742212,2.036614110530168,-5.207615989854932
1767708652379508200,8.86750830078125,-0.7407120568949729,2.37833978189677,-4.982720023754239
1767708652389508400,8.87750830078125,-1.2400620199263095,2.709506795978546,-4.657538221561908
1767708652399509500,8.887509521484375,-1.743145835723728,2.8907097508251667,-4.35913395165801
1767708652409509400,8.89750927734375,-2.165148574376106,2.7412369822382927,-3.8362832129865883
1767708652419510300,8.90751025390625,-2.253987572171539,2.314079929562658,-3.006649083122611
1767708652429510400,8.917510498046875,-2.0884441048800944,1.6047141011111437,-2.2845447691291567
1767708652439511300,8.92751123046875,-1.326926795039326,0.9124068133577704,-1.4303466913729905
1767708652449511200,8.93751123046875,-0.8439386956788599,0.32689236896988,-0.6295441037178039
1767708652459512300,8.94751220703125,-0.7653836298801004,0.21890520125329493,0.013495441389083861
1767708652469512400,8.957512451171874,-1.1788942883886395,0.297050827734638,0.34636019929945466
1767708652479512600,8.9675126953125,-1.5553789923168717,0.5117568054661155,0.9867162044107913
1767708652489513500,8.977513427734374,-1.8374036436975,0.8694646935362368,1.725227463325858
1767708652499513300,8.987513427734376,-2.213147320000082,1.3254517540507018,2.533231360661983
1767708652509514200,8.99751416015625,-2.4998434703230856,1.7300795795321464,3.240277806255221
1767708652519514400,9.007514404296876,-2.8795161566376684,1.8461825779587029,3.763428989177942
1767708652529515300,9.017515380859376,-2.98147314081192,1.3728927196614444,4.42178008518517
1767708652539515100,9.02751513671875,-3.3333038804769513,0.701240389662981,4.735196630781889
1767708652549516500,9.0375166015625,-3.8541070389688015,0.3907434943726286,4.647826974886655
1767708652559516400,9.047516357421875,-4.298079471236467,0.3292906622832641,3.874295840516686
1767708652569516500,9.0575166015625,-3.6830876244843003,-0.04416888513751328,2.3402608111321923
1767708652579517400,9.067517333984375,-1.2567653174459934,-0.8382219985324889,1.2412503529280423
1767708652589517300,9.077517333984375,1.596970793507993,-1.0267462361779063,1.1016121651351451
1767708652599518200,9.087518310546875,4.85845125452876,-0.4133082678042352,1.697172166186571
1767708652609518300,9.097518310546874,7.965642194330692,0.6940887643426656,2.456379007127881
1767708652619519200,9.107519287109374,9.22273484403491,2.037361129505187,3.4357238059878346
1767708652629519400,9.117519287109374,8.053887464016675,3.575850361819565,4.595279041525721
1767708652639520500,9.1275205078125,5.519847125059366,4.172633182664216,5.427058951246738
1767708652649520400,9.137520263671876,3.5488872438311576,3.222411017914116,5.13260897192657
1767708652659520500,9.1475205078125,2.042225959062576,1.715591766104847,2.6821400656253096
1767708652669521400,9.157521484375,0.721393535375595,-0.49360089798532425,0.746755940169096
1767708652679521300,9.167521240234375,0.3790847303587943,-2.098823460075259,0.19580840330421923
1767708652689522200,9.177522216796875,0.7588952907741069,-2.735545492598414,0.22055939820110795
1767708652699522300,9.187522216796875,1.1452899788200854,-2.8228198714256285,0.44884442221820353
1767708652709523500,9.1975234375,0.9100281015276909,-2.7262296749815342,0.4689537287890911
1767708652719523300,9.2075234375,0.1258230494627729,-1.9049708670139311,0.7621136682987213
1767708652729523500,9.2175234375,-0.7858055095314979,-0.6149677352242171,1.1286077240884302
1767708652739524400,9.2275244140625,-0.4085328700959682,0.1431493377190083,1.5192571469694376
1767708652749524500,9.2375244140625,0.915607947486639,0.8098400267221033,1.8890835620522497
1767708652759525400,9.247525390625,1.5703449446499347,1.4107795288547873,2.2524510102540254
1767708652769525200,9.257525146484374,1.4773054264247416,1.4082577552922069,2.238181077361107
1767708652779526100,9.267526123046874,1.4066355609178542,1.167785449875146,1.4689479324460029
1767708652789526500,9.277526611328126,1.3487690628826619,0.6902659181188792,0.08869593606293201
1767708652799527400,9.28752734375,0.9304313495438545,0.172551994346641,-0.8609194949656724
1767708652809527300,9.29752734375,0.3130805185753852,-0.09815649591274558,-1.5947072324901819
1767708652819527400,9.30752734375,-0.17176767556853592,-0.24204335412606595,-2.419624855226278
1767708652829528300,9.3175283203125,-0.23528182410188017,-0.595900010128133,-3.449816628748178
1767708652839528400,9.327528564453125,-0.13545242654085157,-0.7873624566499143,-4.3169320557445285
1767708652849529300,9.337529296875,-0.19080190025381744,-0.9914533159352839,-4.941283851516246
1767708652859529200,9.347529296875,-0.20955343554019926,-1.2181669259171932,-5.268768669953942
1767708652869530400,9.3575302734375,-0.1856920098941773,-1.5493436576753854,-5.484234544408321
1767708652879530500,9.367530517578125,-0.3995371147463098,-1.9971628284990786,-5.67288255456388
1767708652889531400,9.377531494140625,-0.6144120010375976,-2.172556950936466,-5.541217245346307
1767708652899531300,9.38753125,-0.726477706772089,-2.235438500654697,-5.138793798041343
1767708652909531400,9.397531494140624,-0.8116215763766318,-2.372362461052835,-4.672016828769445
1767708652919532300,9.4075322265625,-0.9437047456800937,-2.4224049874641,-4.134543690505623
1767708652929532400,9.417532470703126,-0.9742588738977909,-2.166267349272966,-3.5431630209654568
1767708652939533300,9.427533203125,-0.9597323358952998,-1.8612772712379693,-2.8642040212154387
1767708652949533400,9.437533447265626,-1.1137116951864212,-1.5748358263283968,-2.231417574575543
1767708652959534300,9.447534423828126,-1.4047171600759027,-1.3738035508960484,-1.5662047761052846
1767708652969534500,9.457534423828125,-1.6108220625974237,-1.0441603853806853,-1.2124708331674336
1767708652979535400,9.467535400390625,-1.8708219291746615,-0.6931523602753877,-0.9353969360619783
1767708652989535200,9.47753515625,-2.3224738100290296,-0.3287654328327626,-0.5094429755657911
1767708652999535400,9.487535400390625,-2.6439491589188573,-0.049246809456311165,0.013545125749707222
1767708653009536300,9.497536376953125,-2.330378884065151,0.19280754098780453,0.5989817921936512
1767708653019536400,9.507536376953125,-1.0349369222223759,0.28553068674020465,1.0491074863940477
1767708653029537500,9.51753759765625,0.1366062727510929,0.26930899872500447,1.1263263351529835
1767708653039537400,9.527537353515624,-0.4115408562729135,0.3874427357941866,1.0199386750549078
1767708653049538300,9.537538330078124,-2.753731722152233,0.5554202252995223,1.1891367193311453
1767708653059538400,9.547538330078124,-6.358984411805868,0.6790078073278069,2.2338830879062415
1767708653069538300,9.557538330078126,-8.815464541220665,0.5532171622972936,3.797558637794852
1767708653079539200,9.567539306640626,-8.070580240142345,-0.30415293309111147,4.485263254058361
1767708653089539300,9.577539306640626,-4.473798441714048,-2.1086086487695574,3.4328578951627016
1767708653099541000,9.587541015625,-1.2087784083902835,-3.359206383496523,2.355750641208887
1767708653109540900,9.597540771484375,-0.0023684826970100403,-3.3414053538680073,1.6112778435409068
1767708653119541800,9.607541748046875,1.2704162416577338,-2.423605887686461,1.9663935962259769
1767708653129542000,9.6175419921875,3.4175089348614214,-1.00915000840649,3.175114721471071
1767708653139542800,9.627542724609375,3.97214538937211,-0.04225472207926213,4.384404001992941
1767708653149543000,9.63754296875,3.3409295530498024,1.032241691789031,5.245588285374641
1767708653159542800,9.647542724609375,3.599288228291273,1.663262590061128,5.914124090787768
1767708653169544000,9.6575439453125,3.7619162465274334,1.361083185532689,6.17227350719273
1767708653179544000,9.6675439453125,3.8408758014738558,0.8931590189870446,5.236729856136441
1767708653189545000,9.677544921875,4.386004422926902,0.5468943524839356,3.057293228688836
1767708653199544800,9.687544921875,3.6359400888621805,0.446120879005827,0.9347451941549777
1767708653209545700,9.697545654296874,2.896826187878847,0.5965243891041726,-0.5145172100901604
1767708653219545900,9.7075458984375,2.4099089323759078,0.8674800955902785,-0.5740647930800914
1767708653229546800,9.717546630859376,1.202787059020996,1.4802135689564049,0.5311807601213455
1767708653239547000,9.727546875,0.410687417781353,1.8017783496953546,1.3575789768040178
1767708653249547000,9.737547119140626,1.3330559454441069,1.5833375510834156,1.1935013442814348
1767708653259548000,9.7475478515625,2.6706255689203737,1.0339633279498666,1.401667709377408
1767708653269548000,9.757548095703125,2.6700550755560397,0.5578230121249332,2.3415999507814647
1767708653279549000,9.767548828125,1.7296505404651163,0.402096261177212,2.4890450129330155
1767708653289548800,9.777548828125,0.7546481547236442,0.268500276158005,1.7256980034470557
1767708653299549700,9.7875498046875,0.45436640051007265,0.1378402349928394,0.8930039014905691
1767708653309549800,9.7975498046875,0.4315349024336785,0.054762321474775666,0.4228951574474573
1767708653319551000,9.807551025390625,0.556232126204297,-0.14786953464131802,0.14804419708848
1767708653329551000,9.817551025390625,0.5429880292277783,-0.4892029918199405,-0.5585732094377279
1767708653339551000,9.827551025390624,0.2455015317559242,-0.714914694750309,-1.3799749330073594
1767708653349551900,9.8375517578125,-0.03135141607522964,-0.9829846897322684,-2.159400970634818
1767708653359552000,9.847552001953124,-0.13868242143802345,-1.2786829886130988,-3.0648458360254764
1767708653369553000,9.857552978515624,-0.251792083267495,-1.385572899144888,-4.134503358495235
1767708653379552800,9.867552734375,-0.24524200403690335,-1.2983578492894767,-4.779374210682511
1767708653389553700,9.8775537109375,-0.05651040725111961,-1.1087769421979785,-4.857894789689779
1767708653399553800,9.8875537109375,-0.02386485971212387,-0.4998562685856595,-4.9367742651373145
1767708653409555000,9.897554931640625,0.10821611763425171,0.1963827325934544,-4.880072134706378
1767708653419555000,9.90755517578125,0.20031221752949058,0.9261424932435154,-4.88486112254858
1767708653429555000,9.917554931640625,0.1194657528579235,1.425779383457452,-5.095868848550319
1767708653439555800,9.927555908203125,0.0025203122578561304,1.8982890511624515,-5.047884277582169
1767708653449556000,9.937555908203125,-0.2771886825915426,2.1849600670441984,-4.873302786701918
1767708653459556900,9.947556884765625,-0.6273042889017612,2.210675815320015,-4.629135133898258
1767708653469556700,9.957556640625,-0.9858195478320121,2.2366377934418615,-4.350598178502917
1767708653479558000,9.967557861328125,-1.3378466868519783,2.1328867654576897,-3.8727234766334293
1767708653489558000,9.97755810546875,-1.6066108746431766,1.8714979287400841,-3.263981922447681
1767708653499559000,9.987558837890624,-1.6110346824347972,1.7710297218188642,-2.448704234716296
1767708653509559000,9.99755908203125,-1.519524127342552,1.6035203612819313,-1.6261474958926438
1767708653519559000,10.007558837890626,-1.489637961514294,1.3781741671957075,-0.8958616290092468
1767708653529559800,10.017559814453126,-1.4323733748950063,1.2953756186082959,-0.43258360776901245
1767708653539560000,10.027559814453125,-1.0612440605200826,1.3498825770825147,0.24441022938787935
1767708653549560800,10.037560791015625,-0.5998034838400781,1.1598258691728114,0.9711755209296942
1767708653559560700,10.047560791015625,-0.3569054125808179,0.6924898777786642,1.6433581584125756
1767708653569561900,10.057561767578125,-0.9869779240868986,0.5945207576641812,2.2320763307452203
1767708653579562000,10.06756201171875,-2.2106161940872666,0.8574526956379414,2.6776924385666847
1767708653589561900,10.077561767578125,-3.435031732070446,1.0478769947510211,3.187142428395152
1767708653599563000,10.08756298828125,-4.079334721241891,0.946101723819226,3.801838507071137
1767708653609563000,10.09756298828125,-4.473922360354662,0.47071850997190917,4.417653945165872
1767708653619563800,10.107563720703125,-4.759704756833613,-0.05332285412303172,4.6087171997696155
1767708653629564000,10.11756396484375,-4.910768301743269,-0.2100292180920951,3.8193542900174853
1767708653639565000,10.12756494140625,-3.876722190880775,-0.25559872727515176,2.617375624769926
1767708653649565000,10.13756494140625,-1.2170679516993463,-0.7480348740637301,1.7363076602667569
1767708653659565800,10.14756591796875,1.6161013181746005,-0.5114877792663872,1.5628648180276155
1767708653669566000,10.15756591796875,4.324209937793016,0.3483480121158063,2.1430665064275263
1767708653679565800,10.16756591796875,6.491520074117183,1.5766468212731182,2.723756855127215
1767708653689567000,10.17756689453125,7.578277199947833,2.705434724234044,3.2508354406267403
1767708653699566800,10.18756689453125,7.555714655005931,3.575246842968464,3.782805889821052
1767708653709567700,10.197567626953125,6.295604703307151,3.78168156196624,4.154174273648858
1767708653719568000,10.20756787109375,4.639842405873536,2.8758085342913864,3.6735961580395697
1767708653729569000,10.217569091796875,3.304233268815279,1.837971652843803,2.1366601465165616
1767708653739569000,10.22756884765625,1.721187832546234,0.25209753248747435,0.8530231887578964
1767708653749569800,10.23756982421875,1.057693528431654,-1.3684057835057377,0.42421208526492116
1767708653759570000,10.24756982421875,1.5041805738687515,-2.468395023614168,0.6272960325300693
1767708653769569800,10.25756982421875,1.8134043439507483,-3.1675346416056156,0.703362788644433
1767708653779571000,10.267571044921874,1.3825707947194577,-3.0483716710865494,0.5582704270988702
1767708653789570800,10.27757080078125,0.7421873170793056,-1.8977400389775632,0.6292857450425624
1767708653799572000,10.287572021484374,0.07797284546401351,-0.6030068464586511,1.0515046106636523
1767708653809572000,10.297572021484376,0.22724691314101217,0.3381210710033774,1.7539502844631671
1767708653819573000,10.307572998046876,1.1670061360657213,0.5735124564269557,2.2795523676693437
1767708653829572900,10.31757275390625,1.8969278458118437,0.7393462484344839,2.7953666318327186
1767708653839573800,10.32757373046875,1.8829460822105406,0.7330508746173232,2.838947414883971
1767708653849574000,10.337573974609375,1.4779776265978812,0.16070990965515375,1.9542770419746636
1767708653859573800,10.34757373046875,1.0980114372294396,-0.30069800686426457,0.6894248641848564
1767708653869575000,10.357574951171875,0.7111315960150212,-0.5776596027016639,-0.4420639682978391
1767708653879574800,10.36757470703125,0.19695472379513085,-0.8381756751727313,-1.363882460862398
1767708653889576000,10.377575927734375,-0.19589776208810508,-0.9636373074445873,-2.164956266674399
1767708653899576000,10.387576171875,-0.40581367426514625,-0.8775840679101645,-3.017286796993017
1767708653909577000,10.397576904296875,-0.2816752534210682,-0.918625907068327,-3.838491536685824
1767708653919576800,10.407576904296874,-0.15266425810456274,-0.9932438526138663,-4.6718484864652154
1767708653929577700,10.41757763671875,-0.11903788283467293,-1.1176844712749123,-5.416733956587314
1767708653939577900,10.427577880859374,-0.11834697796106337,-1.3560001831799744,-5.839915529760718
1767708653949577700,10.43757763671875,-0.14813888963460922,-1.6332897688627241,-5.852760398286581
1767708653959579000,10.447578857421876,-0.33254853156805037,-1.8825046220533548,-5.608616126358509
1767708653969579000,10.4575791015625,-0.6446446422159672,-2.057584563975036,-5.171970675978065
1767708653979580000,10.467579833984376,-0.9163186530392616,-2.1436993975035845,-4.621899921947717
1767708653989580000,10.477580078125,-1.1653075154542922,-2.143001624497771,-4.127378621181846
1767708653999581000,10.487580810546875,-1.395203481799364,-2.023637140057236,-3.5022675314754244
1767708654009580800,10.497580810546875,-1.535819574713707,-1.9885323627978562,-2.81755742085278
1767708654019581700,10.507581787109375,-1.4661574249446392,-2.0070760274872184,-2.1319319489508866
1767708654029581800,10.517581787109375,-1.205149623433873,-1.7272278433628379,-1.3716004878938197
1767708654039581700,10.527581787109375,-1.2395897262394429,-1.2786192757271229,-0.9727473002910614
1767708654049582800,10.537582763671875,-1.767398964101076,-0.9434775127954781,-1.0909767893522977
1767708654059583000,10.5475830078125,-2.268710655659437,-0.5596120509661734,-0.9117401661425828
1767708654069584000,10.557583984375,-2.52406138125658,-0.04329721686951816,-0.3244792068809271
1767708654079584000,10.567583984375,-2.402598901623487,0.4461769565746188,0.4242857350230217
1767708654089585000,10.5775849609375,-1.4483493810534476,0.6418553037583827,1.1001719031989574
1767708654099584500,10.58758447265625,-0.11940149198267608,0.5871818296108394,1.3909920015841721
1767708654109585400,10.59758544921875,0.2951811796715483,0.3789357503421604,1.1773223628968
1767708654119585500,10.60758544921875,-1.6696400161385536,0.44133170850053427,0.9103227005600929
1767708654129585400,10.61758544921875,-4.916048872494697,0.755562712285295,1.2833078719347715
1767708654139586600,10.627586669921875,-7.297082423520088,0.5320097582913935,2.4346464832693337
1767708654149586700,10.637586669921875,-7.368935361331701,0.16262334206104279,3.676481942608952
1767708654159587600,10.647587646484375,-5.898377655601501,-0.47187326949760316,4.419014712125063
1767708654169587700,10.657587646484375,-3.6932068674385548,-1.8904853916741906,3.923504400321841
1767708654179588600,10.667588623046875,-1.7324024695217608,-2.933620671790838,2.6479180625498295
1767708654189588500,10.67758837890625,-0.49194885646197944,-2.8764000704437493,1.9159739070653914
1767708654199588600,10.687588623046874,1.016532666003704,-2.1898538304351267,2.4837439839154483
1767708654209589800,10.69758984375,2.698564546203613,-1.3709995993912218,3.2094027755200862
1767708654219589600,10.707589599609374,3.7574972610414026,-0.5488667120028287,4.18024161184132
1767708654229590500,10.717590576171874,3.6091327459573743,0.4276533482925966,4.646289682316779
1767708654239590700,10.727590576171876,3.547556872010231,0.8598898596569895,4.857622402489185
1767708654249591600,10.737591552734376,3.7673768500208853,0.6661743369787931,5.271982371303439
1767708654259591700,10.747591796875,3.6663153533816337,0.41916850160714236,4.381033648777008
1767708654269592600,10.757592529296875,3.4959318987131116,0.13124587822910397,2.5018483804047107
1767708654279592400,10.767592529296875,3.449524367803335,-0.05689831059016287,0.4553320306718349
1767708654289592600,10.777592529296875,3.4201007049202916,0.18533720510713755,-1.0344517690539359
1767708654299593700,10.78759375,2.8216484895586964,0.46278822842929507,-1.154386308467388
1767708654309593600,10.797593505859375,2.0584429343700408,0.9949965415000915,-0.32883681756854055
1767708654319594500,10.807594482421875,1.2754770321786404,1.5180334503933786,0.6721119103342295
1767708654329594600,10.8175947265625,0.9707400521218776,1.6479795346029102,1.2550368862181902
1767708654339595500,10.827595458984375,1.4769570513784884,1.3274587099589408,1.6006623415023087
1767708654349595600,10.837595703125,2.070706203615665,0.46931010447870936,2.0903537378937003
1767708654359596500,10.847596435546874,1.8019255030810832,0.0061589244885370134,2.4681647219896314
1767708654369596700,10.8575966796875,0.9946703782856464,-0.15902034913301466,2.3551187730461356
1767708654379596800,10.8675966796875,0.3902886998098343,-0.5394035948697478,1.7942670972824095
1767708654389597700,10.87759765625,0.32642617623023684,-0.9187371854230761,0.9756903680056332
1767708654399597600,10.88759765625,0.6143955613594502,-1.0762481529064476,0.12676058604121207
1767708654409598500,10.897598388671875,0.8092717253148556,-1.1882082793746143,-0.8172831823348998
1767708654419598600,10.9075986328125,0.766944084129855,-1.2841907922491431,-1.7246616461366413
1767708654429599500,10.917599609375,0.650079526746273,-1.2711401720181106,-2.4536457827717064
1767708654439599600,10.927599609375,0.4973252522706985,-1.1558772776775061,-3.2404502402126787
1767708654449600800,10.937600830078125,0.30750527572631836,-0.829841927395761,-3.9873207466721534
1767708654459600600,10.9476005859375,0.1520610315144062,-0.449862111360766,-4.556613503044844
1767708654469600800,10.957600830078125,0.00844407628364861,-0.22840861386414615,-4.895030049863458
1767708654479601700,10.9676015625,0.14064422303028404,-0.11283124674689024,-5.0454853997468945
1767708654489601500,10.9776015625,0.16748422609567643,0.3130088781112805,-5.142649888947606
1767708654499602400,10.9876025390625,0.0017254355531185865,0.542602865835093,-5.166691274270415
1767708654509602600,10.9976025390625,-0.044629488386586307,0.8096758491363376,-5.1202837433606385
1767708654519603500,11.007603515625,-0.050108577384799714,1.0698119093138725,-5.030712778028845
1767708654529603800,11.017603759765626,-0.1496631765924394,1.347712101175636,-4.9682139440178865
1767708654539603700,11.027603759765626,-0.45228433353900904,1.562887906642258,-4.765147532409429
1767708654549604600,11.0376044921875,-0.8861363538086414,1.5993828230857847,-4.381173349508643
1767708654559604700,11.047604736328125,-1.2023241176843642,1.6422221401199697,-3.654835343468189
1767708654569605600,11.057605712890625,-1.3786102205254136,1.538255715819448,-2.7589678692400454
1767708654579605500,11.06760546875,-1.6854279523789881,1.4755631128020583,-2.0557395206302402
1767708654589606400,11.0776064453125,-1.8868715850912032,1.4084703751295804,-1.4589479319572447
1767708654599606500,11.0876064453125,-1.9689760139346122,1.2961945337757468,-0.8319979363858699
1767708654609607700,11.097607666015625,-1.92205644184947,1.1332521158281712,-0.13411328689157961
1767708654619607800,11.10760791015625,-1.6413830589473246,0.7734448443260044,0.6048463003128767
1767708654629607700,11.117607666015624,-1.1019102712988853,0.45487745530474927,1.292365038615465
1767708654639608600,11.127608642578124,-0.5311373593710362,0.2893632871730253,2.0568618026584384
1767708654649608700,11.137608642578124,-0.7497861016452312,0.31997130100242793,2.583990072518587
1767708654659609600,11.147609619140624,-1.827842034626007,0.9576426701396703,2.8118741145193575
1767708654669609500,11.157609375,-2.8799241529166695,1.8133590435042977,2.8934722012758254
1767708654679610400,11.1676103515625,-3.48064197512269,1.8991320778578518,3.0761902368605134
1767708654689610800,11.17761083984375,-3.743016315746307,1.2753751792393624,3.6315666960835453
1767708654699611600,11.187611572265626,-4.002310226011276,0.3650313993586227,4.118357110336422
1767708654709611800,11.19761181640625,-4.0173219171822065,-0.33469785508904604,4.0986224822968245
1767708654719611600,11.207611572265625,-3.5610675109684466,-0.804653125603497,3.4156139148950575
1767708654729612500,11.217612548828125,-1.8481671759046614,-0.9216891670964658,2.650971604901552
1767708654739612700,11.22761279296875,1.3709483075954019,-0.9201992207996547,1.990755884066224
1767708654749613600,11.237613525390625,4.64750081167221,-0.5382127045847476,1.713386803406477
1767708654759613400,11.247613525390625,6.579830810254812,0.6013107831304892,2.3234423628002405
1767708654769614600,11.257614501953125,7.044215915954113,2.13902672951743,3.0842671603322027
1767708654779614700,11.26761474609375,6.529691691601276,3.1008076685056087,3.8574715469658374
1767708654789615600,11.27761572265625,5.448966831672191,3.5533912772521377,4.352499043688177
1767708654799615700,11.28761572265625,3.815776431530714,3.095644878914952,4.103844600859285
1767708654809615600,11.29761572265625,2.311331653767824,2.2298123313359914,2.646820330440998
1767708654819616500,11.307616455078126,1.196944178211689,0.5776545612003654,1.1314905860483646
1767708654829616600,11.31761669921875,0.9010440731484443,-1.0685157320234924,0.49796004304289815
1767708654839617500,11.327617431640626,1.174103400850296,-2.0766408543616532,0.4285357936829328
1767708654849617700,11.33761767578125,1.5258943930268287,-2.658345933061838,0.470486929705739
1767708654859618600,11.34761865234375,1.420923613989353,-2.736984293229878,0.4876274495989084
1767708654869618700,11.35761865234375,0.9382277755737304,-2.081546162059903,0.6608008272469044
1767708654879619600,11.36761962890625,0.4073053741276264,-0.8913922285102307,1.0955220315665006
1767708654889619700,11.37761962890625,0.03561258065104484,0.025908275173231958,1.943144238063693
1767708654899619600,11.38761962890625,0.4315688412358984,0.40905433668680485,2.7683447693943974
1767708654909620500,11.397620361328125,1.2376654801785945,0.7917870681591331,3.430575921705365
1767708654919620600,11.40762060546875,1.6333634186208248,1.0377493492946028,3.386214217409491
1767708654929621800,11.417621826171874,1.7190052278101444,0.3850355285219848,2.6264906591176986
1767708654939621600,11.42762158203125,1.716823792117834,-0.42966545529998834,1.4327876547843217
1767708654949622500,11.43762255859375,1.2665092973470686,-1.1397213849075138,-0.07780103256106376
1767708654959622700,11.44762255859375,0.550176515959762,-1.53185037882179,-1.572388433176279
1767708654969622500,11.45762255859375,0.014741605525277554,-1.5350427451223134,-2.883813561570644
1767708654979623700,11.467623779296876,-0.2066939544558525,-1.4057878580473362,-4.013182917681336
1767708654989623600,11.47762353515625,-0.24378186835646629,-1.307178869126737,-5.114998496434092
1767708654999624400,11.48762451171875,-0.073140073279012,-1.3915993198275565,-6.164795134136081
1767708655009624800,11.497624755859375,0.14779050545520148,-1.506399857353419,-6.783831872364878
1767708655019625700,11.507625732421875,0.24245734175443648,-1.5145388862758875,-6.905624022343754
1767708655029625600,11.51762548828125,0.04120527695841156,-1.706066543520987,-6.693402828899026
1767708655039626500,11.52762646484375,-0.35226562395095823,-1.731247015876323,-6.2402662624448535
1767708655049626600,11.537626708984375,-0.6480535738766193,-1.716473371244967,-5.825407111936808
1767708655059626500,11.54762646484375,-0.794878458303213,-1.7648697378844023,-5.157475702157616
1767708655069627600,11.557627685546874,-0.9757610951542853,-1.6194713791295885,-4.174540185329318
1767708655079627500,11.56762744140625,-1.238528234487772,-1.6269868693262337,-3.1270769590109584
1767708655089628700,11.577628662109374,-1.4533774383485316,-1.6303471395395694,-2.0551386321276426
1767708655099628800,11.58762890625,-1.6125778202235699,-1.6275027098938821,-1.192417640697956
1767708655109630000,11.5976298828125,-1.8792238468170166,-1.483185862765461,-0.5088672215044499
1767708655119629800,11.6076298828125,-2.2702339197039603,-1.1311323471952228,-0.059573301953077314
1767708655129630700,11.617630615234376,-2.636467278730869,-0.6999851289048791,0.1868172875970602
1767708655139630800,11.627630859375,-2.971795796406269,-0.6534751605339348,0.15893734702467918
1767708655149630700,11.637630615234375,-3.112706488353014,-0.896655701996386,0.14686638548076153
1767708655159631600,11.647631591796875,-2.7185926042318345,-0.8924312161691487,0.37572014929652214
1767708655169631700,11.6576318359375,-1.9190379708111285,-0.848183201380819,0.6622568712741136
1767708655179632600,11.667632568359375,-0.43379122999310493,-0.7031972958844155,0.8268395307093859
1767708655189632800,11.6776328125,0.4556418272733688,-0.38221886366605756,0.5832575688391923
1767708655199634000,11.687634033203125,-0.8820786028504372,0.12750168673209844,0.2789426135867834
1767708655209633800,11.6976337890625,-4.111968870604038,0.6940501128327101,0.9295984789162873
1767708655219634000,11.707634033203124,-7.219930210256576,1.204271452359855,3.1514211266726253
1767708655229634800,11.717634765625,-7.689035914736985,0.965231079442054,5.049826059299707
1767708655239634700,11.727634765625,-4.816916298091411,-0.5138273646624758,5.169843016299605
1767708655249635600,11.737635498046876,-0.8480933311402797,-2.3954966684028505,3.6270138550847766
1767708655259635700,11.7476357421875,1.2832722160995005,-2.7762504279524087,2.3796646007597446
1767708655269636900,11.757636962890626,2.151229939138889,-1.5601014907941222,2.562324184155464
1767708655279636700,11.76763671875,2.727203780710697,-0.13046462819091975,3.214477594566345
1767708655289638000,11.777637939453125,2.030259626936912,0.68768357347548,3.7260236798912283
1767708655299637800,11.7876376953125,1.5868763927340506,0.8283747774526476,4.175049888417124
1767708655309638000,11.797637939453125,2.5009645833075047,0.2010185757005587,4.7154058886408805
1767708655319638800,11.807638671875,2.9600995133936405,-0.5191688352882862,4.887222006461024
1767708655329638700,11.817638671875,2.9077321972966192,-0.6717848703369498,4.180806259986758
1767708655339639600,11.8276396484375,2.7540286592721936,-0.8467118867192417,2.8121254589319227
1767708655349639700,11.8376396484375,2.873162988218665,-0.6703698159072548,1.6235802757531403
1767708655359640800,11.847640869140625,3.4460166519433257,-0.20510264841010792,0.615869798630476
1767708655369640700,11.857640625,3.344934112516045,0.302714497785829,0.15960954719781875
1767708655379641900,11.867641845703124,2.807828053998947,0.987638653017953,0.3622586101770401
1767708655389641700,11.877641845703126,2.124835268688202,1.3467571385383605,0.8208423361212015
1767708655399641900,11.887641845703126,1.6818869187712668,1.3498317236781119,0.9884761998206376
1767708655409642800,11.897642822265626,1.880071403557062,1.0251334672190249,1.3029834632635116
1767708655419642600,11.907642578125,1.907294926047325,0.5464108432833105,1.9398089561611414
1767708655429643800,11.917643798828125,1.3840531422317026,0.39433253184054046,2.370551319977641
1767708655439644000,11.927643798828125,0.7900783645451068,0.36949418745376167,2.398753332111239
1767708655449644800,11.937644775390625,0.530180022113584,0.19515996759915724,2.15342949500978
1767708655459644700,11.947644775390625,0.5306780347635969,0.12032974927611648,1.661629143640399
1767708655469644800,11.957644775390625,0.8315560378372668,0.08163005279731005,0.8031903595745563
1767708655479645700,11.967645751953125,1.2108359254419803,-0.13867591863200068,-0.3665624448508024
1767708655489645800,11.977645751953125,1.1032687001705168,-0.17808862221837043,-1.5134060828536748
1767708655499646700,11.987646728515625,0.7087970886528492,-0.35887156155463307,-2.800058004519343
1767708655509646600,11.997646484375,0.48164136092662807,-0.6199123520195484,-3.9874990258485075
1767708655519647700,12.007647705078124,0.40541970651149745,-0.9394450424090027,-5.0672354592621325
1767708655529647900,12.01764794921875,0.49983051308989523,-1.0336683635912836,-5.767748119172453
1767708655539648800,12.027648681640626,0.635856940126419,-0.8536674780108034,-5.92186023799777
1767708655549648600,12.037648681640626,0.6191676711320877,-0.6034445437561721,-5.861056517466903
1767708655559648800,12.047648681640625,0.46636312777400013,-0.13877382604852317,-5.498565267577767
1767708655569649700,12.057649658203125,0.08009820358753204,0.2990055967979133,-5.261432920238375
1767708655579649800,12.06764990234375,-0.3136941934943199,0.7907678811792284,-4.9106373688399785
1767708655589651000,12.07765087890625,-0.6232698457539081,1.1589910257838665,-4.534973918166757
1767708655599650800,12.08765087890625,-0.8380968377828597,1.3862258100956677,-4.160271421480179
1767708655609651700,12.097651611328125,-1.0459399622738361,1.7384144232876597,-3.7524452383488414
1767708655619651800,12.10765185546875,-1.286738430905342,2.0676132060363885,-3.435971643269062
1767708655629652700,12.11765283203125,-1.4228852694511414,2.333504176478833,-3.0476141307175157
1767708655639652600,12.127652587890625,-1.4502058225750922,2.4249676775589584,-2.573900055658817
1767708655649652700,12.13765283203125,-1.5413888992786406,2.404072335176915,-2.149806043815613
1767708655659653600,12.147653564453124,-1.5853320859014988,2.2500014251448213,-1.6743536006569861
1767708655669653800,12.15765380859375,-1.376488259935379,1.8140721602097152,-0.9616887306600809
1767708655679655000,12.167655029296874,-1.396333947134018,1.3727905744612217,-0.2995569470703602
1767708655689654800,12.17765478515625,-1.5767665021300314,1.1160042631030083,0.2011602857261896
1767708655699655700,12.18765576171875,-1.385031631875038,0.7719193152591586,0.695291125869751
1767708655709655800,12.19765576171875,-1.141497600799799,0.38130083550568666,1.1604226660221815
1767708655719655700,12.20765576171875,-1.436802735644579,0.3344443917846307,1.385600371673703
1767708655729656600,12.217656494140625,-2.0484487791001795,0.6811097480431199,1.7309809122860431
1767708655739656700,12.22765673828125,-2.6580443197667596,0.9811093243144452,2.459823594623804
1767708655749657900,12.237657958984375,-3.1241444126904008,0.8385553952053189,3.4378093800902363
1767708655759658000,12.247657958984375,-3.4274095666289326,0.4680196262767538,4.112828702303767
1767708655769659000,12.257658935546875,-3.3329064055919644,0.1833885187247768,4.151041820842027
1767708655779658800,12.26765869140625,-2.614751121485233,0.17863876691441982,3.5731729593038555
1767708655789659600,12.27765966796875,-0.6803320416688918,-0.1811838117547333,2.7713579797357317
1767708655799659800,12.28765966796875,2.166695219296217,-0.9883817995354532,2.0688018312990666
1767708655809659600,12.29765966796875,4.6419127824068065,-1.0297228408358992,1.719947477096319
1767708655819660500,12.30766064453125,4.6455216205537315,0.37301388601250945,2.693137260457873
1767708655829660700,12.31766064453125,3.6459365822196004,2.321566485925764,4.273450056892633
1767708655839661800,12.327661865234376,3.6371862895309923,3.5112732602298258,4.947335406640172
1767708655849662000,12.337661865234375,3.1492461207211018,3.8627246451884507,4.942403210934996
1767708655859662800,12.347662841796875,2.249525478196144,3.319196152408421,4.002024394807219
1767708655869662700,12.357662841796875,2.0999638622820376,1.8930247008934615,2.5615268962979316
1767708655879663600,12.36766357421875,1.6953998958170413,0.24648579355292022,1.1362760667592287
1767708655889663700,12.377663818359375,0.9522656532764434,-0.897764028564468,0.6829460235595702
1767708655899663600,12.38766357421875,0.7749369095146655,-1.193181099351123,0.864221459120512
1767708655909664800,12.397664794921875,0.3530260869294405,-1.1073282777596265,0.983783073568344
1767708655919665000,12.407664794921875,-0.34711773966848847,-0.7350585611779242,1.3550363065838813
1767708655929665800,12.417665771484375,-0.8055582577496767,0.08739259837940334,2.010353733983636
1767708655939666000,12.427666015625,-0.7993395293653011,0.7673766303282231,2.5011013614296913
1767708655949666800,12.437666748046874,-0.26312369768619537,0.7919717770762741,2.632023158803582
1767708655959666700,12.447666748046874,0.5786626422643661,0.6051994245994836,2.418407296130061
1767708655969667600,12.45766748046875,1.2345873879075049,0.42077465816214676,1.7891805877983569
1767708655979667700,12.467667724609376,1.5010755935907363,-0.1164893673956394,1.2298527606010436
1767708655989667600,12.47766748046875,1.6010335129022597,-0.8067163417436182,0.2996060469090938
1767708655999668700,12.487668701171875,1.4775579398810863,-1.3815584028065204,-0.8902776913970708
1767708656009668900,12.4976689453125,1.1276549534082412,-1.7904482696466146,-2.0470973644912243
1767708656019669800,12.507669677734375,0.7130021391272544,-1.876593498313427,-3.1241841601788995
1767708656029670000,12.517669921875,0.29436873077750203,-1.806895984970033,-3.914584011763334
1767708656039670800,12.5276708984375,0.13322773622870446,-1.6312074096307156,-4.579753555613756
1767708656049670700,12.537670654296875,0.1260498074233532,-1.6514230991855263,-5.297470448303223
1767708656059670800,12.5476708984375,0.2008124952018261,-1.749844748840481,-5.674437967312335
1767708656069672000,12.557671875,0.26609248436391353,-1.7721502502813935,-5.741524713635444
1767708656079671800,12.567671875,0.4179097702503204,-1.8804718010514974,-5.506238286423683
1767708656089672700,12.577672607421874,0.40269349641799923,-1.998345170151442,-5.518796154701709
1767708656099672000,12.587672119140626,-0.019838088414072988,-1.962990948175639,-5.272077063849568
1767708656109673000,12.5976728515625,-0.5848293482005595,-1.8556451105698941,-4.415930774635076
1767708656119673000,12.607673095703126,-0.9364508290290832,-1.7111795026205479,-3.4197079062104225
1767708656129674000,12.617674072265626,-1.1456745942234992,-1.4896565200842915,-2.630080208042264
