time,seconds_elapsed,z,y,x
1767708643575376600,0.063376708984375,0.03930852189660072,-0.021207816898822784,0.05567098408937454
1767708643585378000,0.0733779296875,0.04080016165971756,-0.03068946860730648,0.051896754652261734
1767708643595378000,0.0833779296875,0.03905152902007103,-0.038592930883169174,0.05770430713891983
1767708643605377800,0.093377685546875,0.03573775663971901,-0.04701331630349159,0.07068055868148804
1767708643615379000,0.10337890625,0.023565247654914856,-0.059363991022109985,0.08760149031877518
1767708643625378800,0.11337890625,0.012870791368186474,-0.07340817153453827,0.09255203604698181
1767708643635379700,0.123379638671875,-0.0029547770973294973,-0.0876409038901329,0.10185366123914719
1767708643645379800,0.1333798828125,-0.023479493334889412,-0.10404011607170105,0.11305171996355057
1767708643655381000,0.143381103515625,-0.03413186967372894,-0.11122506111860275,0.13616237044334412
1767708643665380900,0.153380859375,-0.038541533052921295,-0.1069653332233429,0.17036481201648712
1767708643675381000,0.163381103515625,-0.03574201837182045,-0.08344482630491257,0.2007562667131424
1767708643685382000,0.1733818359375,-0.027966387569904327,-0.037640850991010666,0.20967359840869904
1767708643695381800,0.1833818359375,-0.0244281105697155,0.022594524547457695,0.2027065008878708
1767708643705383000,0.1933828125,-0.024986842647194862,0.055030763149261475,0.20092138648033142
1767708643715382800,0.2033828125,-0.022430473938584328,0.053705837577581406,0.21313437819480896
1767708643725383000,0.2133828125,-0.01519839372485876,0.01606232300400734,0.23045878112316132
1767708643735383800,0.2233837890625,-0.010403105989098549,-0.037085048854351044,0.2362588793039322
1767708643745383700,0.2333837890625,-0.013228453695774078,-0.08417719602584839,0.2309863418340683
1767708643755384800,0.243384765625,-0.024216389283537865,-0.10272344946861267,0.2213752567768097
1767708643765385000,0.253385009765625,-0.038848597556352615,-0.11631542444229126,0.20330198109149933
1767708643775385900,0.2633857421875,-0.050878893584012985,-0.11331936717033386,0.177266925573349
1767708643785385700,0.2733857421875,-0.05567764490842819,-0.08762279152870178,0.15713129937648773
1767708643795385900,0.2833857421875,-0.06118825450539589,-0.06753350049257278,0.13667289912700653
1767708643805386800,0.29338671875,-0.06684534251689911,-0.061653777956962585,0.11216728389263153
1767708643815387000,0.303386962890625,-0.08347252011299133,-0.0669231042265892,0.08805608749389648
1767708643825388000,0.313387939453125,-0.09803042560815811,-0.08720520883798599,0.07765857875347137
1767708643835388000,0.323387939453125,-0.09693852812051773,-0.1081797331571579,0.08929818868637085
1767708643845388000,0.333387939453125,-0.10135964304208755,-0.11544004082679749,0.0970759466290474
1767708643855389000,0.343388916015625,-0.10673576593399048,-0.10945325344800949,0.08537454903125763
1767708643865388800,0.353388916015625,-0.10361001640558243,-0.10983781516551971,0.07951240241527557
1767708643875389700,0.3633896484375,-0.10170905292034149,-0.11693647503852844,0.0867420881986618
1767708643885389800,0.373389892578125,-0.10204354673624039,-0.14348392188549042,0.1005774736404419
1767708643895390700,0.383390625,-0.10379031300544739,-0.17794203758239746,0.11290977150201797
1767708643905390800,0.393390869140625,-0.09688020497560501,-0.20223645865917206,0.12115545570850372
1767708643915391000,0.403390869140625,-0.0866273045539856,-0.2344132959842682,0.11911307275295258
1767708643925392000,0.413391845703125,-0.07929082959890366,-0.22644779086112976,0.11237261444330215
1767708643935392000,0.42339208984375,-0.07026057690382004,-0.24565264582633972,0.10013911873102188
1767708643945393000,0.433392822265625,-0.06458725035190582,-0.24481187760829926,0.0857178345322609
1767708643955392800,0.443392822265625,-0.06223195046186447,-0.2620531916618347,0.059177037328481674
1767708643965393700,0.4533935546875,-0.06396140903234482,-0.2705257534980774,0.028378644958138466
1767708643975393800,0.463393798828125,-0.06525703519582748,-0.2936753034591675,0.000550475378986448
1767708643985393700,0.4733935546875,-0.06491215527057648,-0.29909589886665344,-0.02129889652132988
1767708643995395000,0.48339501953125,-0.0609445758163929,-0.3016621172428131,-0.03856044262647629
1767708644005395000,0.49339501953125,-0.041723743081092834,-0.2787536084651947,-0.05878768116235733
1767708644015395800,0.503395751953125,-0.021524466574192047,-0.25501206517219543,-0.08812399953603745
1767708644025396000,0.51339599609375,0.005286108236759901,-0.25520408153533936,-0.11507146060466766
1767708644035395800,0.523395751953125,0.03748372569680214,-0.2421433925628662,-0.1332363486289978
1767708644045396700,0.533396728515625,0.07608465105295181,-0.21843832731246948,-0.1446557193994522
1767708644055396900,0.54339697265625,0.1302568018436432,-0.20035865902900696,-0.1629961133003235
1767708644065397800,0.553397705078125,0.18803781270980835,-0.17398405075073242,-0.19065463542938232
1767708644075398000,0.56339794921875,0.24732084572315216,-0.15286491811275482,-0.20627887547016144
1767708644085398800,0.573398681640625,0.29734674096107483,-0.139461487531662,-0.2222362607717514
1767708644095398700,0.583398681640625,0.33810266852378845,-0.11451832205057144,-0.23339703679084778
1767708644105398500,0.5933984375,0.3780359923839569,-0.10167815536260605,-0.24935869872570038
1767708644115400000,0.60339990234375,0.4083954691886902,-0.057854246348142624,-0.27484995126724243
1767708644125399800,0.61339990234375,0.43911024928092957,0.013999971561133862,-0.29954010248184204
1767708644135400700,0.623400634765625,0.45936280488967896,0.08671864867210388,-0.31858065724372864
1767708644145400800,0.63340087890625,0.47270816564559937,0.16149835288524628,-0.3354155421257019
1767708644155401700,0.643401611328125,0.4785018563270569,0.2337067723274231,-0.3468511700630188
1767708644165401600,0.653401611328125,0.4815133810043335,0.26305294036865234,-0.3489246964454651
1767708644175401700,0.663401611328125,0.48271870613098145,0.2557055354118347,-0.35161688923835754
1767708644185403000,0.67340283203125,0.4831831753253937,0.2185954600572586,-0.370896577835083
1767708644195402800,0.68340283203125,0.4728149473667145,0.16194549202919006,-0.397830992937088
1767708644205404000,0.69340380859375,0.44594046473503113,0.09240423142910004,-0.42203274369239807
1767708644215403800,0.70340380859375,0.4184238910675049,0.03237844631075859,-0.46554505825042725
1767708644225404700,0.71340478515625,0.4055861234664917,-0.009669671766459942,-0.5462971329689026
1767708644235404800,0.72340478515625,0.41309329867362976,-0.03557610511779785,-0.6418614983558655
1767708644245404700,0.73340478515625,0.41783586144447327,-0.04572780802845955,-0.728871762752533
1767708644255405600,0.743405517578125,0.41697752475738525,-0.06857426464557648,-0.8058736324310303
1767708644265405700,0.75340576171875,0.40417012572288513,-0.09014827013015747,-0.880768895149231
1767708644275406800,0.76340673828125,0.40115541219711304,-0.0856776237487793,-0.9315188527107239
1767708644285406700,0.77340673828125,0.40089336037635803,-0.0812716856598854,-0.9634994268417358
1767708644295406800,0.78340673828125,0.39229854941368103,-0.0789177194237709,-0.9749404191970825
1767708644305407700,0.79340771484375,0.3725147247314453,-0.08893866091966629,-0.9580628871917725
1767708644315408000,0.803407958984375,0.35238999128341675,-0.1038997694849968,-0.9060273766517639
1767708644325408800,0.81340869140625,0.34510093927383423,-0.08541050553321838,-0.8217087388038635
1767708644335408600,0.82340869140625,0.34337228536605835,-0.05240142345428467,-0.7227762937545776
1767708644345409800,0.833409912109375,0.34423860907554626,-0.0156133146956563,-0.6256386041641235
1767708644355410000,0.843409912109375,0.33170071244239807,0.059599414467811584,-0.5256454348564148
1767708644365409800,0.853409912109375,0.30370181798934937,0.10996245592832565,-0.4176049530506134
1767708644375410700,0.86341064453125,0.26489609479904175,0.1381959617137909,-0.30152443051338196
1767708644385410800,0.873410888671875,0.23499652743339539,0.13657622039318085,-0.21270693838596344
1767708644395411700,0.88341162109375,0.2165038138628006,0.10493680089712143,-0.15428197383880615
1767708644405411800,0.893411865234375,0.21029917895793915,0.05277133733034134,-0.11601129174232483
1767708644415411700,0.90341162109375,0.22299952805042267,-0.001984054921194911,-0.09077171236276627
1767708644425412600,0.91341259765625,0.24382837116718292,-0.05155986174941063,-0.06573773175477982
1767708644435413000,0.9234130859375,0.2489592283964157,-0.1208270862698555,-0.03642352297902107
1767708644445414000,0.933413818359375,0.22184450924396515,-0.18955448269844055,-0.007115167565643787
1767708644455413800,0.943413818359375,0.18008321523666382,-0.22504723072052002,0.01583089493215084
1767708644465414700,0.95341455078125,0.14786934852600098,-0.22771625220775604,0.023938888683915138
1767708644475414800,0.963414794921875,0.1086958572268486,-0.200055330991745,0.021615546196699142
1767708644485414700,0.97341455078125,0.06856387853622437,-0.1692739725112915,0.021461615338921547
1767708644495415800,0.983415771484375,0.038062162697315216,-0.15479783713817596,0.033370740711688995
1767708644505415700,0.993415771484375,0.017297497019171715,-0.13584651052951813,0.05432289466261864
1767708644515416800,1.003416748046875,-0.0028272117488086224,-0.1326209008693695,0.08900710195302963
1767708644525417000,1.0134169921875,-0.016998425126075745,-0.13354501128196716,0.13296763598918915
1767708644535417900,1.02341796875,-0.025962624698877335,-0.1594248116016388,0.18327847123146057
1767708644545417700,1.033417724609375,-0.034509241580963135,-0.1579776555299759,0.24028849601745605
1767708644555417900,1.04341796875,-0.060615941882133484,-0.14925579726696014,0.29267340898513794
1767708644565418800,1.053418701171875,-0.09926000982522964,-0.13236363232135773,0.3316863179206848
1767708644575418600,1.063418701171875,-0.13984844088554382,-0.18242786824703217,0.3592599034309387
1767708644585419800,1.073419677734375,-0.18579809367656708,-0.2691606283187866,0.4095507562160492
1767708644595420000,1.083419921875,-0.22701211273670197,-0.31083163619041443,0.47508981823921204
1767708644605419800,1.093419677734375,-0.2599647343158722,-0.31057438254356384,0.5306186079978943
1767708644615421000,1.1034208984375,-0.2904944121837616,-0.2828354239463806,0.5629240870475769
1767708644625420800,1.1134208984375,-0.32551339268684387,-0.2490905076265335,0.5698165893554688
1767708644635421700,1.123421630859375,-0.35468271374702454,-0.22250151634216309,0.5627054572105408
1767708644645421800,1.133421875,-0.3839340806007385,-0.20923525094985962,0.5529348254203796
1767708644655422700,1.143422607421875,-0.40076765418052673,-0.2113841474056244,0.5497384667396545
1767708644665422600,1.153422607421875,-0.4094066917896271,-0.25382694602012634,0.5682027339935303
1767708644675422700,1.163422607421875,-0.4285276532173157,-0.2782779633998871,0.609553337097168
1767708644685423900,1.173423828125,-0.45598670840263367,-0.27501532435417175,0.6536494493484497
1767708644695423700,1.183423828125,-0.47940441966056824,-0.24063551425933838,0.6806509494781494
1767708644705425000,1.1934248046875,-0.47993332147598267,-0.18907006084918976,0.69501793384552
1767708644715424800,1.2034248046875,-0.472739040851593,-0.14289696514606476,0.7065014839172363
1767708644725424600,1.213424560546875,-0.4701049327850342,-0.08716552704572678,0.740588366985321
1767708644735425800,1.22342578125,-0.46506649255752563,-0.0020591560751199722,0.7869880795478821
1767708644745425700,1.23342578125,-0.4477205276489258,0.12348518520593643,0.8244819045066833
1767708644755426800,1.2434267578125,-0.39392679929733276,0.2956859767436981,0.8337100148200989
1767708644765427000,1.253427001953125,-0.3398723602294922,0.3961808979511261,0.7995080947875977
1767708644775427800,1.263427734375,-0.3090534508228302,0.3730183243751526,0.7273481488227844
1767708644785427700,1.273427734375,-0.2931823432445526,0.302604079246521,0.6475127339363098
1767708644795427800,1.283427734375,-0.2648178040981293,0.2426920086145401,0.5827915072441101
1767708644805428700,1.2934287109375,-0.22632554173469543,0.16118648648262024,0.5371843576431274
1767708644815428600,1.3034287109375,-0.20463037490844727,0.06464610248804092,0.4956235885620117
1767708644825429800,1.3134296875,-0.18186460435390472,-0.014446317218244076,0.4670169949531555
1767708644835429600,1.3234296875,-0.15673395991325378,-0.016500946134328842,0.4529951810836792
1767708644845430800,1.3334306640625,-0.13572268187999725,0.017353158444166183,0.4798488914966583
1767708644855431000,1.343430908203125,-0.14889679849147797,0.04358982294797897,0.5311363339424133
1767708644865430800,1.3534306640625,-0.19542914628982544,0.01769217848777771,0.5728052258491516
1767708644875431700,1.363431640625,-0.24127227067947388,-0.011024155654013157,0.600957989692688
1767708644885431800,1.373431884765625,-0.2752012014389038,0.0065740132704377174,0.6035508513450623
1767708644895432700,1.3834326171875,-0.27113428711891174,0.05408560484647751,0.6036808490753174
1767708644905432600,1.3934326171875,-0.245016947388649,0.08122241497039795,0.6141536831855774
1767708644915432700,1.4034326171875,-0.21739090979099274,0.06831514090299606,0.6259435415267944
1767708644925433900,1.413433837890625,-0.19849126040935516,0.04776619002223015,0.6267744302749634
1767708644935434000,1.42343408203125,-0.20583891868591309,0.038966309279203415,0.6293390393257141
1767708644945435000,1.433434814453125,-0.2267702966928482,0.023748738691210747,0.624930202960968
1767708644955434800,1.443434814453125,-0.24676556885242462,0.006674946751445532,0.594374418258667
1767708644965435600,1.453435546875,-0.2607753872871399,-0.00905341561883688,0.536838173866272
1767708644975435800,1.463435791015625,-0.2616875469684601,-0.022584138438105583,0.4563206732273102
1767708644985435600,1.473435546875,-0.25570234656333923,-0.03206925466656685,0.39422905445098877
1767708644995436500,1.4834365234375,-0.2573407292366028,-0.03611459583044052,0.36424720287323
1767708645005436700,1.493436767578125,-0.252475380897522,-0.025258485227823257,0.33949071168899536
1767708645015437800,1.503437744140625,-0.24328775703907013,0.0047177900560200214,0.32286781072616577
1767708645025438000,1.51343798828125,-0.23008646070957184,0.011033209972083569,0.2977491319179535
1767708645035438800,1.52343896484375,-0.21878667175769806,0.013584252446889877,0.26638028025627136
1767708645045438700,1.533438720703125,-0.21043314039707184,-0.007486145943403244,0.2326393723487854
1767708645055438800,1.54343896484375,-0.2026660293340683,-0.05255189165472984,0.20433689653873444
1767708645065439700,1.553439697265625,-0.1981588900089264,-0.08823318779468536,0.19588108360767365
1767708645075439600,1.563439697265625,-0.18698479235172272,-0.0889703556895256,0.1977144032716751
1767708645085440800,1.573440673828125,-0.1739683300256729,-0.07177192717790604,0.17964433133602142
1767708645095441000,1.58344091796875,-0.15831346809864044,-0.05627072975039482,0.15014448761940002
1767708645105440800,1.593440673828125,-0.15011972188949585,-0.05167225003242493,0.13681776821613312
1767708645115442000,1.60344189453125,-0.1451558619737625,-0.04501887410879135,0.13298387825489044
1767708645125441800,1.61344189453125,-0.1471274048089981,-0.05498575419187546,0.1196020320057869
1767708645135442700,1.623442626953125,-0.15413284301757812,-0.05580361187458038,0.11883503943681717
1767708645145442800,1.63344287109375,-0.13979758322238922,-0.02346564456820488,0.14692392945289612
1767708645155443700,1.643443603515625,-0.11066126823425293,-0.006729275453835726,0.1891840398311615
1767708645165443600,1.653443603515625,-0.06877294182777405,0.0059718722477555275,0.22400008141994476
1767708645175443700,1.663443603515625,-0.017372598871588707,0.025494175031781197,0.23811297118663788
1767708645185444900,1.67344482421875,0.030489198863506317,0.04024862125515938,0.24016998708248138
1767708645195444700,1.68344482421875,0.07092876732349396,0.03790690377354622,0.23887090384960175
1767708645205446000,1.69344580078125,0.11742090433835983,0.018492724746465683,0.2310987263917923
1767708645215445800,1.70344580078125,0.17597022652626038,0.00549197057262063,0.22038669884204865
1767708645225445600,1.713445556640625,0.227289617061615,0.00857244897633791,0.21300335228443146
1767708645235446800,1.72344677734375,0.26085343956947327,-0.010381268337368965,0.20765838027000427
1767708645245446700,1.73344677734375,0.294048935174942,-0.021577464416623116,0.19010788202285767
1767708645255447800,1.74344775390625,0.3117016851902008,-0.017903100699186325,0.1653713881969452
1767708645265448000,1.753447998046875,0.32052794098854065,0.034024812281131744,0.14333797991275787
1767708645275448800,1.76344873046875,0.30810561776161194,0.13230237364768982,0.13564811646938324
1767708645285448700,1.77344873046875,0.2771413326263428,0.22830906510353088,0.1404753476381302
1767708645295448800,1.78344873046875,0.23695901036262512,0.2506343424320221,0.17835988104343414
1767708645305449700,1.79344970703125,0.2153426706790924,0.22006259858608246,0.2701084613800049
1767708645315449600,1.80344970703125,0.16353939473628998,0.2025160938501358,0.3962506651878357
1767708645325450800,1.81345068359375,0.06976230442523956,0.14753086864948273,0.4792422354221344
1767708645335450600,1.82345068359375,0.0016399745363742113,0.03122236765921116,0.4751705229282379
1767708645345451800,1.83345166015625,-0.024878185242414474,-0.11020586639642715,0.45468682050704956
1767708645355452000,1.843451904296875,-0.04267103224992752,-0.18311549723148346,0.4444639980792999
1767708645365451800,1.85345166015625,-0.0584380105137825,-0.19633355736732483,0.42249664664268494
1767708645375452700,1.86345263671875,-0.06350786983966827,-0.15950150787830353,0.35631898045539856
1767708645385452800,1.873452880859375,-0.06594199687242508,-0.12185027450323105,0.23936305940151215
1767708645395453700,1.88345361328125,-0.047094542533159256,-0.05884787067770958,0.1108921617269516
1767708645405453600,1.89345361328125,0.018732141703367233,0.04500102996826172,0.021329523995518684
1767708645415453700,1.90345361328125,0.08736073970794678,0.14493800699710846,0.007397462613880634
1767708645425454800,1.913454833984375,0.1188259869813919,0.20253552496433258,0.03327246755361557
1767708645435454700,1.923454833984375,0.1332685798406601,0.24661937355995178,0.05299956724047661
1767708645445456000,1.933455810546875,0.1483505815267563,0.2698003351688385,0.062423694878816605
1767708645455455700,1.943455810546875,0.16307733952999115,0.2465224266052246,0.06674813479185104
1767708645465456600,1.95345654296875,0.164356991648674,0.20846585929393768,0.08184400200843811
1767708645475456800,1.963456787109375,0.15857499837875366,0.1375512033700943,0.10225526243448257
1767708645485456600,1.97345654296875,0.14997538924217224,0.05254390090703964,0.1183205172419548
1767708645495457500,1.98345751953125,0.14261147379875183,-0.02672588638961315,0.1242428570985794
1767708645505458000,1.9934580078125,0.12844718992710114,-0.07805591821670532,0.11610530316829681
1767708645515458800,2.003458740234375,0.12014824897050858,-0.09523650258779526,0.09196534007787704
1767708645525458700,2.013458740234375,0.10161557048559189,-0.09269344806671143,0.06088971719145775
1767708645535459800,2.0234599609375,0.08675486594438553,-0.08506695926189423,0.022232867777347565
1767708645545459700,2.033459716796875,0.07791130989789963,-0.06150037795305252,-0.009093363769352436
1767708645555459800,2.0434599609375,0.06180024892091751,-0.03273317962884903,-0.03243384137749672
1767708645565460700,2.053460693359375,0.04634859040379524,-0.01721280813217163,-0.05721402168273926
1767708645575460600,2.063460693359375,0.03339284285902977,-0.004429901950061321,-0.08120084553956985
1767708645585461800,2.073461669921875,0.026678482070565224,0.007673099637031555,-0.0961957722902298
1767708645595462000,2.0834619140625,0.023374564945697784,0.02184910513460636,-0.09237493574619293
1767708645605461800,2.093461669921875,0.020068250596523285,0.02545475959777832,-0.07792729139328003
1767708645615462700,2.103462646484375,0.01979927159845829,0.03544427827000618,-0.06529431790113449
1767708645625462800,2.113462890625,0.02081207185983658,0.025678465142846107,-0.054488010704517365
1767708645635463700,2.123463623046875,0.028717665001749992,0.01050297450274229,-0.04159457981586456
1767708645645463800,2.1334638671875,0.03949148207902908,-0.004746552091091871,-0.02581907995045185
1767708645655464700,2.143464599609375,0.0434955470263958,-0.01053253561258316,-0.0070858728140592575
1767708645665464800,2.15346484375,0.04939178377389908,-0.014915832318365574,0.004113784991204739
1767708645675465000,2.16346484375,0.05277213454246521,-0.016506537795066833,0.008283495903015137
1767708645685465900,2.1734658203125,0.05282672867178917,-0.01110538188368082,0.007737548090517521
1767708645695465700,2.1834658203125,0.03947683423757553,-0.003366768127307296,-0.000287088769255206
1767708645705466600,2.193466552734375,0.02744653820991516,-0.00036432043998502195,-0.013189838267862797
1767708645715466800,2.203466796875,0.016410931944847107,-0.0017259946325793862,-0.022414760664105415
1767708645725467600,2.213467529296875,0.012132562696933746,0.005502623505890369,-0.02562892995774746
1767708645735467800,2.2234677734375,0.010159427300095558,0.004779042676091194,-0.030236998572945595
1767708645745467600,2.233467529296875,0.010338391177356243,0.007348992861807346,-0.04202201962471008
1767708645755468800,2.24346875,0.015984559431672096,0.018208831548690796,-0.056412141770124435
1767708645765469000,2.253468994140625,0.021468274295330048,0.026992734521627426,-0.07128030806779861
1767708645775469800,2.2634697265625,0.026864103972911835,0.036792367696762085,-0.08565258979797363
1767708645785469700,2.2734697265625,0.035179559141397476,0.04767271503806114,-0.0968375951051712
1767708645795469800,2.2834697265625,0.04084516689181328,0.05258810892701149,-0.10739196836948395
1767708645805470700,2.293470703125,0.04800401255488396,0.05054333433508873,-0.1221967488527298
1767708645815470600,2.303470703125,0.05487416684627533,0.03491457551717758,-0.14164288341999054
1767708645825472000,2.313471923828125,0.06594838947057724,0.0019912454299628735,-0.15818165242671967
1767708645835472000,2.323471923828125,0.08028046041727066,-0.031685225665569305,-0.17037999629974365
1767708645845472800,2.33347265625,0.09648259729146957,-0.06743896007537842,-0.1811079978942871
1767708645855473000,2.343472900390625,0.11290604621171951,-0.10977976024150848,-0.19565153121948242
1767708645865472800,2.35347265625,0.1336294263601303,-0.14955194294452667,-0.23317839205265045
1767708645875473700,2.3634736328125,0.1617574691772461,-0.1814001500606537,-0.29579275846481323
1767708645885473800,2.373473876953125,0.1962834894657135,-0.19943055510520935,-0.36483415961265564
1767708645895474700,2.383474609375,0.2309352159500122,-0.19403551518917084,-0.43807029724121094
1767708645905474600,2.393474609375,0.2511712312698364,-0.20690657198429108,-0.5098206400871277
1767708645915476000,2.40347607421875,0.24121075868606567,-0.24468857049942017,-0.5759307146072388
1767708645925475800,2.413475830078125,0.21922582387924194,-0.2806423008441925,-0.6441028118133545
1767708645935475700,2.423475830078125,0.20610415935516357,-0.3332842290401459,-0.7216356992721558
1767708645945476900,2.433476806640625,0.1812795102596283,-0.3939225375652313,-0.7974742650985718
1767708645955476700,2.443476806640625,0.16144481301307678,-0.4663618505001068,-0.859558641910553
1767708645965477600,2.4534775390625,0.13654638826847076,-0.5141234993934631,-0.8922825455665588
1767708645975477800,2.463477783203125,0.11603419482707977,-0.5011400580406189,-0.8995601534843445
1767708645985479000,2.47347900390625,0.10827533900737762,-0.4284147322177887,-0.872253954410553
1767708645995478800,2.483478759765625,0.0934404656291008,-0.3389231860637665,-0.8088361024856567
1767708646005479000,2.49347900390625,0.054064299911260605,-0.2618827521800995,-0.752558708190918
1767708646015479800,2.503479736328125,0.0015875103417783976,-0.20944616198539734,-0.7285793423652649
1767708646025479700,2.513479736328125,-0.048655953258275986,-0.1743241250514984,-0.7267167568206787
1767708646035480800,2.523480712890625,-0.07224942743778229,-0.15440315008163452,-0.721841037273407
1767708646045480700,2.533480712890625,-0.06950663775205612,-0.15287476778030396,-0.6948549151420593
1767708646055481600,2.543481689453125,-0.03515905141830444,-0.16722388565540314,-0.646313488483429
1767708646065481700,2.553481689453125,0.01338531356304884,-0.20255842804908752,-0.5841875672340393
1767708646075481600,2.563481689453125,0.06298908591270447,-0.24882179498672485,-0.5167261958122253
1767708646085482200,2.573482177734375,0.11829069256782532,-0.2840823233127594,-0.445578008890152
1767708646095482000,2.583482177734375,0.17254939675331116,-0.28460270166397095,-0.3691069483757019
1767708646105483300,2.593483154296875,0.2128845751285553,-0.25959187746047974,-0.3112473487854004
1767708646115483400,2.6034833984375,0.23853667080402374,-0.22601689398288727,-0.277351975440979
1767708646125483300,2.613483154296875,0.25235608220100403,-0.19061627984046936,-0.2656551003456116
1767708646135484200,2.623484130859375,0.2592898905277252,-0.13810354471206665,-0.25702914595603943
1767708646145484300,2.633484375,0.25321441888809204,-0.08676179498434067,-0.24482865631580353
1767708646155485200,2.643485107421875,0.24443957209587097,-0.023930100724101067,-0.2374945729970932
1767708646165485000,2.653485107421875,0.246062234044075,0.06598727405071259,-0.239787295460701
1767708646175486200,2.663486328125,0.2458856701850891,0.17359495162963867,-0.24160170555114746
1767708646185486300,2.673486328125,0.245463028550148,0.24576103687286377,-0.23621945083141327
1767708646195486200,2.683486328125,0.2258051633834839,0.2832125425338745,-0.22127379477024078
1767708646205487400,2.6934873046875,0.18541380763053894,0.29293814301490784,-0.21458260715007782
1767708646215487200,2.7034873046875,0.14450044929981232,0.3024357557296753,-0.21278390288352966
1767708646225488100,2.713488037109375,0.1094745621085167,0.3425464332103729,-0.21318630874156952
1767708646235488300,2.72348828125,0.0804988369345665,0.4002544581890106,-0.21266458928585052
1767708646245489200,2.7334892578125,0.059717390686273575,0.4380660355091095,-0.21188828349113464
1767708646255489000,2.743489013671875,0.04194026067852974,0.4666196405887604,-0.19166770577430725
1767708646265489400,2.753489501953125,0.023429691791534424,0.4996145963668823,-0.15715153515338898
1767708646275490300,2.763490234375,-0.0007534082396887243,0.520553708076477,-0.12121963500976562
1767708646285490200,2.773490234375,-0.0261213481426239,0.5369702577590942,-0.095516137778759
1767708646295491300,2.7834912109375,-0.04423350840806961,0.5641813278198242,-0.07921332865953445
1767708646305491200,2.7934912109375,-0.06280692666769028,0.5912848711013794,-0.07089813798666
1767708646315492000,2.8034921875,-0.08222110569477081,0.5958625674247742,-0.06396060436964035
1767708646325492200,2.8134921875,-0.0923943817615509,0.5850597620010376,-0.06187988072633743
1767708646335492000,2.8234921875,-0.09039860218763351,0.565160870552063,-0.05369571968913078
1767708646345493200,2.8334931640625,-0.07485613226890564,0.5419559478759766,-0.03961159288883209
1767708646355493400,2.843493408203125,-0.06047053262591362,0.5183984041213989,-0.013295832090079784
1767708646365494300,2.853494384765625,-0.04736991226673126,0.4880106747150421,0.009020659141242504
1767708646375494100,2.863494140625,-0.03807414695620537,0.44907447695732117,0.030493726953864098
1767708646385495300,2.873495361328125,-0.04972414672374725,0.40129098296165466,0.06155204400420189
1767708646395495200,2.8834951171875,-0.08311725407838821,0.343438059091568,0.1076902449131012
1767708646405495000,2.8934951171875,-0.12479812651872635,0.2631179094314575,0.15415628254413605
1767708646415496200,2.90349609375,-0.16800524294376373,0.1674659550189972,0.19115078449249268
1767708646425496300,2.913496337890625,-0.2022247463464737,0.07695816457271576,0.20783522725105286
1767708646435497200,2.923497314453125,-0.23043186962604523,-0.013222594745457172,0.2153104543685913
1767708646445497300,2.933497314453125,-0.24165071547031403,-0.07537518441677094,0.2149096429347992
1767708646455498200,2.943498291015625,-0.22562620043754578,-0.073623888194561,0.21837174892425537
1767708646465498000,2.953498046875,-0.17345966398715973,-0.024686170741915703,0.22719533741474152
1767708646475498200,2.963498291015625,-0.08189193904399872,0.07464946806430817,0.2549915611743927
1767708646485499100,2.9734990234375,0.012468653731048107,0.13301530480384827,0.30101069808006287
1767708646495499000,2.9834990234375,0.06789569556713104,0.10558687895536423,0.3116481602191925
1767708646505500400,2.99350048828125,0.08968940377235413,0.027730165049433708,0.2605644762516022
1767708646515500300,3.003500244140625,0.1139148473739624,-0.051237355917692184,0.16001524031162262
1767708646525501200,3.013501220703125,0.15384602546691895,-0.10702472180128098,0.058511778712272644
1767708646535501300,3.023501220703125,0.15434695780277252,-0.13913072645664215,0.004029895178973675
1767708646545501200,3.033501220703125,0.06440908461809158,-0.11402936279773712,0.05759751424193382
1767708646555502000,3.043502197265625,-0.1295553296804428,-0.11375639587640762,0.19706885516643524
1767708646565502200,3.053502197265625,-0.2665829658508301,-0.1542510837316513,0.33999353647232056
1767708646575503000,3.063503173828125,-0.3394278585910797,-0.1448754221200943,0.42638513445854187
1767708646585503200,3.073503173828125,-0.37305933237075806,-0.05107862874865532,0.452224463224411
1767708646595504400,3.08350439453125,-0.36014458537101746,0.06623281538486481,0.42972180247306824
1767708646605504300,3.093504150390625,-0.3198520243167877,0.17146043479442596,0.39361679553985596
1767708646615504400,3.10350439453125,-0.28083139657974243,0.24189278483390808,0.3365463316440582
1767708646625505300,3.11350537109375,-0.25273770093917847,0.23677872121334076,0.24689394235610962
1767708646635505200,3.123505126953125,-0.252321720123291,0.18966899812221527,0.14482749998569489
1767708646645506000,3.133506103515625,-0.28556543588638306,0.1703437715768814,0.05710989236831665
1767708646655506200,3.143506103515625,-0.3319835364818573,0.16735704243183136,-0.029019933193922043
1767708646665507300,3.15350732421875,-0.3812171220779419,0.18598930537700653,-0.11762383580207825
1767708646675507200,3.163507080078125,-0.4142131507396698,0.24203899502754211,-0.18708918988704681
1767708646685507300,3.17350732421875,-0.4166182577610016,0.2891945242881775,-0.2197912186384201
1767708646695508200,3.18350830078125,-0.402728796005249,0.31154218316078186,-0.21784284710884094
1767708646705508400,3.19350830078125,-0.39369189739227295,0.3368973433971405,-0.18760797381401062
1767708646715509200,3.20350927734375,-0.3945843279361725,0.38113537430763245,-0.15348409116268158
1767708646725509000,3.213509033203125,-0.3944719433784485,0.447928786277771,-0.1325652301311493
1767708646735510000,3.223510009765625,-0.3847295641899109,0.48239487409591675,-0.13036465644836426
1767708646745510400,3.233510498046875,-0.38185974955558777,0.48578721284866333,-0.13273754715919495
1767708646755510300,3.24351025390625,-0.38513249158859253,0.4772360622882843,-0.12360475957393646
1767708646765511200,3.25351123046875,-0.3824392557144165,0.4292701482772827,-0.12144866585731506
1767708646775511300,3.26351123046875,-0.38559696078300476,0.3820059597492218,-0.14713166654109955
1767708646785512200,3.27351220703125,-0.3776727318763733,0.36587706208229065,-0.20265457034111023
1767708646795512300,3.28351220703125,-0.34788286685943604,0.3968866467475891,-0.2773013710975647
1767708646805513200,3.29351318359375,-0.2933975160121918,0.41917142271995544,-0.3420689105987549
1767708646815513000,3.30351318359375,-0.2266043871641159,0.395511656999588,-0.37275439500808716
1767708646825513200,3.31351318359375,-0.16190101206302643,0.3531327545642853,-0.3511388599872589
1767708646835514400,3.323514404296875,-0.11080534011125565,0.29906898736953735,-0.2934585213661194
1767708646845514200,3.33351416015625,-0.08350607752799988,0.22483764588832855,-0.22866752743721008
1767708646855515100,3.34351513671875,-0.07402815669775009,0.15792758762836456,-0.16721002757549286
1767708646865515300,3.353515380859375,-0.07575707882642746,0.13875602185726166,-0.10355328768491745
1767708646875516200,3.36351611328125,-0.08328902721405029,0.1439473181962967,-0.03714683651924133
1767708646885516300,3.373516357421875,-0.092592254281044,0.15474936366081238,0.01811562106013298
1767708646895516200,3.38351611328125,-0.10851076245307922,0.18719466030597687,0.043525904417037964
1767708646905517300,3.393517333984375,-0.12156131863594055,0.22120562195777893,0.050452787429094315
1767708646915517400,3.403517333984375,-0.12618376314640045,0.24849343299865723,0.042379945516586304
1767708646925518300,3.413518310546875,-0.1258585900068283,0.2644590735435486,0.02021712064743042
1767708646935518200,3.423518310546875,-0.12319197505712509,0.2609138786792755,-0.008184692822396755
1767708646945519000,3.43351904296875,-0.10758958011865616,0.2605021595954895,-0.06334888190031052
1767708646955519200,3.443519287109375,-0.05986279994249344,0.2548847496509552,-0.16242752969264984
1767708646965519000,3.45351904296875,0.0037060549948364496,0.24905508756637573,-0.27093908190727234
1767708646975520300,3.463520263671875,0.09166254103183746,0.2021978348493576,-0.3654717206954956
1767708646985520000,3.47352001953125,0.19774556159973145,0.11565282940864563,-0.4259755313396454
1767708646995521300,3.483521240234375,0.3151262700557709,0.01859472319483757,-0.44000720977783203
1767708647005521400,3.493521484375,0.4178640842437744,-0.09301143139600754,-0.4063025116920471
1767708647015522300,3.503522216796875,0.4650995135307312,-0.15356692671775818,-0.3588617444038391
1767708647025522200,3.513522216796875,0.4345701038837433,-0.17743949592113495,-0.29991614818573
1767708647035523000,3.523523193359375,0.3496256470680237,-0.2059827297925949,-0.2806234061717987
1767708647045523200,3.533523193359375,0.17293129861354828,-0.2069433331489563,-0.3594018518924713
1767708647055523000,3.543523193359375,-0.03616998717188835,-0.24454423785209656,-0.5258795022964478
1767708647065524200,3.553524169921875,-0.1805143803358078,-0.31039753556251526,-0.7241848707199097
1767708647075524400,3.5635244140625,-0.2601032257080078,-0.34816303849220276,-0.8479717969894409
1767708647085525800,3.57352587890625,-0.20928238332271576,-0.3487318754196167,-0.8940370082855225
1767708647095525600,3.583525634765625,-0.07634643465280533,-0.22454042732715607,-0.8296977281570435
1767708647105526800,3.59352685546875,0.09784320741891861,-0.04843224585056305,-0.671633780002594
1767708647115526700,3.603526611328125,0.22010892629623413,0.060138437896966934,-0.47588637471199036
1767708647125526800,3.61352685546875,0.25307753682136536,0.09721443057060242,-0.29164543747901917
1767708647135527700,3.623527587890625,0.19374389946460724,-0.034928690642118454,-0.19504618644714355
1767708647145527600,3.633527587890625,0.08844650536775589,-0.2001914083957672,-0.20356883108615875
1767708647155528400,3.643528564453125,-0.023380689322948456,-0.27331462502479553,-0.25025591254234314
1767708647165528600,3.653528564453125,-0.12400317192077637,-0.2931021749973297,-0.1937532275915146
1767708647175529700,3.66352978515625,-0.1899009644985199,-0.33934956789016724,-0.04338635504245758
1767708647185529600,3.673529541015625,-0.1892721951007843,-0.473742812871933,0.016773920506238937
1767708647195529700,3.68352978515625,-0.08582942187786102,-0.5922002196311951,-0.010674482211470604
1767708647205530600,3.693530517578125,0.09857770800590515,-0.5888129472732544,-0.011335745453834534
1767708647215530800,3.70353076171875,0.29979416728019714,-0.5214935541152954,0.02316763624548912
1767708647225531600,3.71353173828125,0.4581369459629059,-0.4717739224433899,0.05061577260494232
1767708647235531500,3.723531494140625,0.49135029315948486,-0.4385131597518921,0.016695355996489525
1767708647245532700,3.73353271484375,0.41600412130355835,-0.3581475019454956,-0.08106023073196411
1767708647255532800,3.74353271484375,0.354462206363678,-0.25148576498031616,-0.16011936962604523
1767708647265533700,3.75353369140625,0.2727079689502716,-0.1355961710214615,-0.12958702445030212
1767708647275533600,3.763533447265625,0.15874063968658447,-0.0735573098063469,-0.05887024104595184
1767708647285533700,3.77353369140625,0.07984369993209839,-0.0669420138001442,-0.020723121240735054
1767708647295534600,3.78353466796875,0.03285328671336174,-0.07295889407396317,-0.010721620172262192
1767708647305534700,3.79353466796875,-0.019902069121599197,-0.07501272857189178,-0.0001531317684566602
1767708647315535600,3.80353564453125,-0.07683166116476059,-0.07288059592247009,0.021439511328935623
1767708647325535500,3.813535400390625,-0.11973652243614197,-0.057799648493528366,0.044071320444345474
1767708647335536600,3.82353662109375,-0.1400417983531952,-0.05980048328638077,0.0699487254023552
1767708647345536800,3.833536865234375,-0.1301308423280716,-0.08019683510065079,0.13541029393672943
1767708647355536600,3.84353662109375,-0.09998118877410889,-0.13527074456214905,0.25112757086753845
1767708647365537500,3.85353759765625,-0.06154485419392586,-0.194301575422287,0.40510356426239014
1767708647375537700,3.86353759765625,-0.004862665664404631,-0.1925169825553894,0.5594683289527893
1767708647385538600,3.87353857421875,0.09612946212291718,-0.1674656867980957,0.6918402314186096
1767708647395538700,3.88353857421875,0.22829149663448334,-0.1276349276304245,0.7970548272132874
1767708647405539800,3.893539794921875,0.3604511320590973,-0.05149701237678528,0.8745205998420715
1767708647415539700,3.903539794921875,0.44963347911834717,0.0143533730879426,0.9227597713470459
1767708647425539800,3.913539794921875,0.48861148953437805,0.0663185715675354,0.9357924461364746
1767708647435540700,3.923540771484375,0.4888450503349304,0.08689921349287033,0.9053266644477844
1767708647445540600,3.93354052734375,0.4406556785106659,0.04555736482143402,0.8260952234268188
1767708647455541500,3.94354150390625,0.3630005717277527,0.006943393498659134,0.7108296751976013
1767708647465541600,3.953541748046875,0.2725878655910492,-0.017559552565217018,0.585038959980011
1767708647475542500,3.96354248046875,0.188718780875206,-0.07810412347316742,0.47985661029815674
1767708647485542700,3.973542724609375,0.09554942697286606,-0.07801783829927444,0.41432660818099976
1767708647495543800,3.983543701171875,0.03235287964344025,-0.012524580582976341,0.4038177728652954
1767708647505543700,3.993543701171875,-0.03038187325000763,0.04772358015179634,0.4185194969177246
1767708647515543800,4.003543701171875,-0.09919369220733643,0.10445050895214081,0.4417521059513092
1767708647525544700,4.013544677734375,-0.15509743988513947,0.13783563673496246,0.47016483545303345
1767708647535544600,4.023544677734375,-0.2171621471643448,0.12377706915140152,0.5135887265205383
1767708647545545500,4.03354541015625,-0.2894081175327301,0.03615693747997284,0.5736662149429321
1767708647555545600,4.043545654296875,-0.3722670376300812,-0.0644780620932579,0.6224411725997925
1767708647565546800,4.053546630859375,-0.44494178891181946,-0.12129739671945572,0.6455113887786865
1767708647575546600,4.063546630859375,-0.47294971346855164,-0.17188866436481476,0.6239522695541382
1767708647585546800,4.073546630859375,-0.46871235966682434,-0.24014122784137726,0.5627080798149109
1767708647595547600,4.083547607421875,-0.44993361830711365,-0.2803182005882263,0.5020610094070435
1767708647605547800,4.0935478515625,-0.40364307165145874,-0.27311381697654724,0.5206562280654907
1767708647615548700,4.103548583984375,-0.24879516661167145,-0.24633947014808655,0.6990054845809937
1767708647625548500,4.113548583984375,-0.04097539559006691,-0.21609582006931305,0.970723032951355
1767708647635549400,4.123549560546875,0.1685277670621872,-0.11099495738744736,1.2291492223739624
1767708647645549600,4.133549560546875,0.325956255197525,0.013439642265439034,1.279013752937317
1767708647655550700,4.14355078125,0.3969273865222931,0.02178439125418663,1.0704046487808228
1767708647665550600,4.153550537109375,0.3859482407569885,-0.05516258627176285,0.7162065505981445
1767708647675550700,4.16355078125,0.32263851165771484,-0.026817765086889267,0.43302226066589355
1767708647685551600,4.173551513671875,0.282840758562088,0.06430947780609131,0.27868807315826416
1767708647695551700,4.1835517578125,0.30491968989372253,0.16145573556423187,0.1905912458896637
1767708647705552600,4.193552734375,0.34157729148864746,0.14128948748111725,0.16685450077056885
1767708647715552500,4.203552490234375,0.3582814633846283,0.06549139320850372,0.20230570435523987
1767708647725553700,4.2135537109375,0.3354744017124176,-0.02040008082985878,0.2329147458076477
1767708647735553800,4.2235537109375,0.3152032196521759,-0.10666599124670029,0.23629802465438843
1767708647745553700,4.2335537109375,0.2620584964752197,-0.15387345850467682,0.19482621550559998
1767708647755554600,4.243554443359375,0.14823980629444122,-0.1052451953291893,0.1285204291343689
1767708647765554700,4.2535546875,-0.028564533218741417,-0.01973135955631733,0.12201352417469025
1767708647775555600,4.2635556640625,-0.19291885197162628,0.03624056279659271,0.18186087906360626
1767708647785555700,4.2735556640625,-0.2549065947532654,0.08039896935224533,0.24666143953800201
1767708647795556600,4.283556640625,-0.24174311757087708,0.17443332076072693,0.2386690378189087
1767708647805556500,4.293556396484375,-0.19458280503749847,0.3069990873336792,0.19253402948379517
1767708647815557600,4.3035576171875,-0.15038657188415527,0.41908007860183716,0.1699560135602951
1767708647825557800,4.313557861328125,-0.11449568718671799,0.47929176688194275,0.17202796041965485
1767708647835557600,4.3235576171875,-0.062122493982315063,0.5454569458961487,0.13997282087802887
1767708647845558500,4.33355859375,0.001826395862735808,0.6275856494903564,0.06311851739883423
1767708647855558700,4.34355859375,0.02419082447886467,0.6639606952667236,-0.010055829770863056
1767708647865559600,4.3535595703125,-0.030704915523529053,0.6441795229911804,-0.023960992693901062
1767708647875559700,4.3635595703125,-0.14004498720169067,0.5533452033996582,0.0027545075863599777
1767708647885560800,4.373560791015625,-0.23980353772640228,0.47485893964767456,0.03489779680967331
1767708647895560700,4.383560791015625,-0.2875252664089203,0.40994730591773987,0.049204032868146896
1767708647905560800,4.393560791015625,-0.2773647606372833,0.3494216501712799,0.041068606078624725
1767708647915561700,4.403561767578125,-0.2205536812543869,0.296362966299057,0.02087785117328167
1767708647925561600,4.4135615234375,-0.14754924178123474,0.27021098136901855,-0.00373002327978611
1767708647935562500,4.4235625,-0.06760168075561523,0.2427322119474411,-0.02225683629512787
1767708647945562600,4.433562744140625,0.020620590075850487,0.2196761667728424,-0.03410284221172333
1767708647955563500,4.4435634765625,0.07800105959177017,0.21616984903812408,-0.05450106039643288
1767708647965563600,4.453563720703125,0.07651767879724503,0.22087059915065765,-0.09620882570743561
1767708647975564800,4.463564697265625,0.02881513722240925,0.22108444571495056,-0.15358956158161163
1767708647985564700,4.473564697265625,-0.0461035780608654,0.23440638184547424,-0.21995793282985687
1767708647995564800,4.483564697265625,-0.121153324842453,0.28281837701797485,-0.2940097749233246
1767708648005565700,4.493565673828125,-0.18662287294864655,0.3156636953353882,-0.37782052159309387
1767708648015565600,4.503565673828125,-0.244773268699646,0.31825679540634155,-0.472177118062973
1767708648025566500,4.51356640625,-0.26102280616760254,0.2972199618816376,-0.5364623665809631
1767708648035566600,4.523566650390625,-0.22166287899017334,0.2855582535266876,-0.5645366311073303
1767708648045567700,4.533567626953125,-0.18671688437461853,0.27502545714378357,-0.5613658428192139
1767708648055567600,4.543567626953125,-0.14741049706935883,0.3022991418838501,-0.5122742056846619
1767708648065568800,4.55356884765625,-0.12353125959634781,0.3655942380428314,-0.41589948534965515
1767708648075568600,4.563568603515625,-0.11317235976457596,0.455921471118927,-0.3020687699317932
1767708648085568500,4.573568603515625,-0.037886928766965866,0.5127621293067932,-0.23651373386383057
1767708648095569400,4.5835693359375,0.07210535556077957,0.47478169202804565,-0.22494415938854218
1767708648105569300,4.5935693359375,0.2077806293964386,0.3601866662502289,-0.22849789261817932
1767708648115570400,4.6035703125,0.36112597584724426,0.2145165652036667,-0.21556851267814636
1767708648125570300,4.6135703125,0.4943452775478363,0.08031507581472397,-0.19090551137924194
1767708648135571200,4.6235712890625,0.5795808434486389,-0.07808680832386017,-0.16416150331497192
1767708648145571600,4.633571533203125,0.5918718576431274,-0.24049675464630127,-0.1445518583059311
1767708648155571500,4.643571533203125,0.5108334422111511,-0.40039509534835815,-0.1404189020395279
1767708648165572400,4.653572265625,0.3366187512874603,-0.46022140979766846,-0.16538496315479279
1767708648175572500,4.663572509765625,0.13799329102039337,-0.41342565417289734,-0.25980547070503235
1767708648185573400,4.673573486328125,-0.05803081393241882,-0.4205876886844635,-0.4305165112018585
1767708648195573200,4.6835732421875,-0.22003117203712463,-0.4375759959220886,-0.6164272427558899
1767708648205574400,4.693574462890625,-0.28346338868141174,-0.47854262590408325,-0.7056340575218201
1767708648215574300,4.70357421875,-0.23910845816135406,-0.4984060525894165,-0.6909704804420471
1767708648225575400,4.713575439453125,-0.18222679197788239,-0.5605011582374573,-0.6667777895927429
1767708648235575600,4.723575439453125,-0.1511136144399643,-0.5339755415916443,-0.6541413068771362
1767708648245575400,4.733575439453125,-0.06887120753526688,-0.38826996088027954,-0.6227839589118958
1767708648255576300,4.743576416015625,0.0018607506062835455,-0.2658809423446655,-0.5295791625976562
1767708648265576400,4.753576416015625,0.004792358260601759,-0.1700313836336136,-0.40753793716430664
1767708648275577300,4.763577392578125,-0.05769551917910576,-0.12384577840566635,-0.35183393955230713
1767708648285577200,4.7735771484375,-0.21201825141906738,-0.25182583928108215,-0.35852351784706116
1767708648295578400,4.783578369140625,-0.43016761541366577,-0.3550422489643097,-0.3087919354438782
1767708648305578500,4.79357861328125,-0.5753037929534912,-0.41540786623954773,-0.17136962711811066
1767708648315579400,4.803579345703125,-0.6126196980476379,-0.527435839176178,-0.03726108372211456
1767708648325579500,4.81357958984375,-0.560524046421051,-0.6088252663612366,0.12833267450332642
1767708648335579400,4.823579345703125,-0.4406333267688751,-0.6365364789962769,0.29909375309944153
1767708648345580300,4.833580322265625,-0.2787773013114929,-0.561716616153717,0.3875858187675476
1767708648355580400,4.843580322265625,-0.0580609068274498,-0.36800092458724976,0.40135514736175537
1767708648365581300,4.853581298828125,0.15130802989006042,-0.1416812390089035,0.3601666986942291
1767708648375581200,4.863581298828125,0.2867012619972229,0.052026450634002686,0.31205296516418457
1767708648385582300,4.873582275390625,0.3438178300857544,0.16741588711738586,0.2821483314037323
1767708648395582500,4.88358251953125,0.325130432844162,0.18553471565246582,0.300025075674057
1767708648405583400,4.893583251953125,0.22276489436626434,0.23086491227149963,0.353564977645874
1767708648415583500,4.90358349609375,0.08221977204084396,0.27040138840675354,0.41709789633750916
1767708648425583400,4.913583251953125,-0.03239096328616142,0.2594486176967621,0.4679434895515442
1767708648435584300,4.923584228515625,-0.10664814710617065,0.22662781178951263,0.5172023773193359
1767708648445584400,4.93358447265625,-0.14308898150920868,0.20147879421710968,0.5748803615570068
1767708648455585300,4.943585205078125,-0.15831027925014496,0.1673080325126648,0.6477715969085693
1767708648465585400,4.95358544921875,-0.18278951942920685,0.10533440858125687,0.7383432984352112
1767708648475586300,4.96358642578125,-0.19071775674819946,0.07979416102170944,0.8272907733917236
1767708648485586400,4.97358642578125,-0.14854446053504944,0.061350710690021515,0.9112032055854797
1767708648495586300,4.98358642578125,-0.051657333970069885,0.03913275524973869,0.995159924030304
1767708648505587500,4.99358740234375,0.07085686177015305,0.055277902632951736,1.0543590784072876
1767708648515587300,5.00358740234375,0.20206227898597717,0.044735245406627655,1.0606558322906494
1767708648525588200,5.013588134765625,0.2930790185928345,0.010333064943552017,1.023554801940918
1767708648535588400,5.02358837890625,0.34625622630119324,0.012538694776594639,1.0021896362304688
1767708648545589500,5.033589599609375,0.3901509642601013,0.08319582045078278,1.0174309015274048
1767708648555589400,5.04358935546875,0.3983124792575836,0.1493237018585205,1.021816611289978
1767708648565590300,5.05359033203125,0.3675388693809509,0.18164277076721191,0.968633234500885
1767708648575590400,5.06359033203125,0.3228004276752472,0.19105863571166992,0.8852317929267883
1767708648585590300,5.07359033203125,0.26695606112480164,0.17628315091133118,0.7898378968238831
1767708648595591400,5.08359130859375,0.2060687392950058,0.15539304912090302,0.7007602453231812
1767708648605591300,5.09359130859375,0.12292032688856125,0.1356731355190277,0.6346978545188904
1767708648615592200,5.10359228515625,0.04218340665102005,0.09854521602392197,0.5916150808334351
1767708648625592600,5.113592529296875,-0.011825766414403915,0.06540590524673462,0.564940333366394
1767708648635593500,5.123593505859375,-0.07600155472755432,0.047144342213869095,0.5466838479042053
1767708648645593300,5.13359326171875,-0.13278867304325104,0.027703799307346344,0.5293498635292053
1767708648655594200,5.14359423828125,-0.17368869483470917,-0.012544021010398865,0.5276089310646057
1767708648665594400,5.153594482421875,-0.1971554160118103,-0.06133366376161575,0.5473906397819519
1767708648675594200,5.16359423828125,-0.2420182228088379,-0.1578942984342575,0.6131818890571594
1767708648685595400,5.173595458984375,-0.2254997044801712,-0.17229080200195312,0.6498174071311951
1767708648695595300,5.18359521484375,-0.15764954686164856,-0.17940518260002136,0.6147153377532959
1767708648705596400,5.193596435546875,-0.10788439214229584,-0.2123868316411972,0.4711981415748596
1767708648715596500,5.203596435546875,-0.10006134957075119,-0.3098851442337036,0.2934342622756958
1767708648725597400,5.213597412109375,-0.15900589525699615,-0.37256211042404175,0.2139250636100769
1767708648735597300,5.223597412109375,-0.2541923224925995,-0.4014821946620941,0.36926963925361633
1767708648745597400,5.233597412109375,-0.24054177105426788,-0.4684865176677704,0.7659405469894409
1767708648755598300,5.243598388671875,0.03279869258403778,-0.36809760332107544,1.062787413597107
1767708648765598200,5.25359814453125,0.28364184498786926,-0.2667403519153595,1.0515533685684204
1767708648775599400,5.263599365234375,0.3864899277687073,-0.1579776555299759,0.7578378915786743
1767708648785599500,5.273599609375,0.38584011793136597,-0.0460876002907753,0.3104249835014343
1767708648795600400,5.283600341796875,0.3532715141773224,0.04470089077949524,-0.05178489908576012
1767708648805600500,5.2936005859375,0.3421916961669922,0.20264898240566254,-0.20415526628494263
1767708648815601400,5.303601318359375,0.4143284857273102,0.36747947335243225,-0.21053992211818695
1767708648825601300,5.313601318359375,0.5008314251899719,0.3990184962749481,-0.08454151451587677
1767708648835601400,5.323601318359375,0.5073114037513733,0.2806721329689026,0.13333675265312195
1767708648845602300,5.333602294921875,0.42999133467674255,0.10477621108293533,0.27125734090805054
1767708648855602200,5.343602294921875,0.40541887283325195,0.019182216376066208,0.30624300241470337
1767708648865603300,5.353603271484375,0.37276318669319153,0.006843524985015392,0.2004699856042862
1767708648875603500,5.363603515625,0.22112013399600983,0.022605976089835167,-0.04643434286117554
1767708648885604400,5.373604248046875,0.017071926966309547,0.058702196925878525,-0.21998003125190735
1767708648895604500,5.3836044921875,-0.1367061883211136,0.06094937026500702,-0.2521611452102661
1767708648905605400,5.39360546875,-0.2014058232307434,0.14656014740467072,-0.29588332772254944
1767708648915605200,5.403605224609375,-0.19166184961795807,0.26452964544296265,-0.3715288043022156
1767708648925605400,5.41360546875,-0.17376300692558289,0.32511016726493835,-0.4215722680091858
1767708648935606300,5.423606201171875,-0.18730810284614563,0.355164498090744,-0.4111712872982025
1767708648945606400,5.4336064453125,-0.21865244209766388,0.48208409547805786,-0.4860846996307373
1767708648955607300,5.443607177734375,-0.19989819824695587,0.6541141867637634,-0.6259145140647888
1767708648965607400,5.453607421875,-0.1417350322008133,0.7449710965156555,-0.6761848330497742
1767708648975608300,5.4636083984375,-0.17886854708194733,0.6503519415855408,-0.5691478848457336
1767708648985608400,5.4736083984375,-0.31953272223472595,0.4545150399208069,-0.3906356692314148
1767708648995609300,5.483609375,-0.43379777669906616,0.2779543995857239,-0.25054460763931274
1767708649005609200,5.493609130859375,-0.49942633509635925,0.17719341814517975,-0.2163536101579666
1767708649015609300,5.503609375,-0.4937812089920044,0.14295423030853271,-0.261735200881958
1767708649025610500,5.513610595703125,-0.4227467179298401,0.13838903605937958,-0.33978766202926636
1767708649035610400,5.5236103515625,-0.3512946367263794,0.15565083920955658,-0.3899618685245514
1767708649045611300,5.533611328125,-0.27893468737602234,0.12019218504428864,-0.4036787450313568
1767708649055611400,5.543611328125,-0.1950259506702423,0.07219377160072327,-0.4042827785015106
1767708649065612300,5.5536123046875,-0.14515052735805511,0.054898668080568314,-0.40959763526916504
1767708649075612400,5.5636123046875,-0.11170842498540878,0.09541440010070801,-0.4353610575199127
1767708649085612000,5.573612060546875,-0.088251031935215,0.1582743227481842,-0.45729032158851624
1767708649095613000,5.583613037109375,-0.10535811632871628,0.2173541635274887,-0.47467437386512756
1767708649105613000,5.593613037109375,-0.13512639701366425,0.21179454028606415,-0.5200498700141907
1767708649115614200,5.6036142578125,-0.16303099691867828,0.22514629364013672,-0.5848751664161682
1767708649125614000,5.613614013671875,-0.1863405853509903,0.2637224495410919,-0.6320586800575256
1767708649135615200,5.623615234375,-0.21564334630966187,0.257742315530777,-0.6392236351966858
1767708649145615000,5.633614990234375,-0.21607397496700287,0.23416535556316376,-0.6222702264785767
1767708649155616000,5.643615966796875,-0.20319172739982605,0.21629874408245087,-0.5937477946281433
1767708649165616000,5.6536162109375,-0.1499926894903183,0.21326354146003723,-0.572643518447876
1767708649175616000,5.663615966796875,-0.05223763734102249,0.22916394472122192,-0.5744124054908752
1767708649185617200,5.6736171875,0.03392547741532326,0.21278363466262817,-0.571658194065094
1767708649195617300,5.6836171875,0.11743395030498505,0.12206172943115234,-0.5187332034111023
1767708649205618200,5.6936181640625,0.21417354047298431,-0.06501095741987228,-0.4486542344093323
1767708649215618000,5.7036181640625,0.3127613663673401,-0.2661136984825134,-0.3931654095649719
1767708649225619200,5.713619140625,0.3992842733860016,-0.3840464651584625,-0.3583855926990509
1767708649235619000,5.723619140625,0.4331468939781189,-0.43832993507385254,-0.32332560420036316
1767708649245620000,5.733619873046875,0.4007636606693268,-0.49020352959632874,-0.23866690695285797
1767708649255620000,5.7436201171875,0.32542097568511963,-0.5603584051132202,-0.11066818982362747
1767708649265620000,5.753619873046875,0.22297023236751556,-0.5404201149940491,-0.0441054105758667
1767708649275621000,5.76362109375,0.11722516268491745,-0.44977089762687683,-0.07075858861207962
1767708649285621200,5.773621337890625,-0.0012399677652865648,-0.37042438983917236,-0.18017536401748657
1767708649295622100,5.7836220703125,-0.12023959308862686,-0.32843807339668274,-0.349264532327652
1767708649305622000,5.7936220703125,-0.33429357409477234,-0.2749652564525604,-0.5040554404258728
1767708649315623200,5.803623046875,-0.5777248740196228,-0.2266368716955185,-0.5216863751411438
1767708649325623000,5.813623046875,-0.6042816042900085,-0.085578553378582,-0.47327035665512085
1767708649335624200,5.823624267578125,-0.40705084800720215,-0.0758497565984726,-0.47608211636543274
1767708649345624300,5.833624267578125,-0.24140702188014984,-0.10979307442903519,-0.5035353302955627
1767708649355624200,5.843624267578125,-0.14197684824466705,-0.07046377658843994,-0.49815893173217773
1767708649365625000,5.853625,-0.06594306230545044,-0.14879080653190613,-0.48055994510650635
1767708649375625200,5.863625244140625,-0.07532990723848343,-0.31711164116859436,-0.4697653651237488
1767708649385626000,5.873626220703125,-0.15663008391857147,-0.4996151328086853,-0.44149911403656006
1767708649395626000,5.8836259765625,-0.32880452275276184,-0.3998076021671295,-0.3577355146408081
1767708649405627100,5.893627197265625,-0.6341468691825867,-0.30728405714035034,-0.23456136882305145
1767708649415627000,5.903626953125,-0.7489640116691589,-0.4209331274032593,-0.0540965236723423
1767708649425627000,5.913626953125,-0.6322011351585388,-0.3714126944541931,0.07582152634859085
1767708649435628300,5.923628173828125,-0.42581096291542053,-0.4243760406970978,0.18863676488399506
1767708649445628200,5.933628173828125,-0.20788875222206116,-0.4255630075931549,0.27478814125061035
1767708649455629000,5.943629150390625,0.0016165387351065874,-0.3391469120979309,0.28453773260116577
1767708649465629200,5.953629150390625,0.2009861022233963,-0.17914311587810516,0.22506055235862732
1767708649475630000,5.963630126953125,0.358046293258667,-0.03789598122239113,0.16869127750396729
1767708649485630000,5.9736298828125,0.4621495306491852,0.055313590914011,0.15764954686164856
1767708649495631000,5.983631103515625,0.45575422048568726,0.18442869186401367,0.23183909058570862
1767708649505631200,5.99363134765625,0.32351866364479065,0.28378352522850037,0.35977602005004883
1767708649515632000,6.003632080078125,0.11102744936943054,0.275860071182251,0.4264400005340576
1767708649525632300,6.01363232421875,-0.05320223420858383,0.23973456025123596,0.4054305851459503
1767708649535632100,6.023632080078125,-0.15335866808891296,0.1926293671131134,0.37231284379959106
1767708649545633000,6.033633056640625,-0.21988043189048767,0.1761569231748581,0.37458959221839905
1767708649555633200,6.043633056640625,-0.2935546636581421,0.14109960198402405,0.422489196062088
1767708649565634000,6.053634033203125,-0.3519439399242401,0.06362558156251907,0.49055638909339905
1767708649575634000,6.063634033203125,-0.37732359766960144,0.02219824679195881,0.5373896956443787
1767708649585635000,6.073635009765625,-0.3563554584980011,-0.10347792506217957,0.5637744069099426
1767708649595635200,6.08363525390625,-0.2957080900669098,-0.1289273500442505,0.5728195905685425
1767708649605635000,6.093635009765625,-0.18854674696922302,-0.09135894477367401,0.5755285620689392
1767708649615636200,6.10363623046875,-0.05710482969880104,-0.0724712684750557,0.5670940279960632
1767708649625636000,6.113635986328125,0.06652230024337769,-0.050095923244953156,0.5627501606941223
1767708649635637000,6.123636962890625,0.19897009432315826,-0.009846239350736141,0.5717721581459045
1767708649645637000,6.13363720703125,0.3262263238430023,0.04131761193275452,0.5850093960762024
1767708649655638300,6.14363818359375,0.41190633177757263,0.09632254391908646,0.5871719121932983
1767708649665638100,6.15363818359375,0.43268883228302,0.11881905794143677,0.5696086287498474
1767708649675639000,6.16363916015625,0.39290866255760193,0.110143281519413,0.5392608046531677
1767708649685639200,6.17363916015625,0.319228857755661,0.07592352479696274,0.5054080486297607
1767708649695639000,6.18363916015625,0.22998632490634918,0.038367629051208496,0.45917531847953796
1767708649705640200,6.19364013671875,0.1593845933675766,0.019113773480057716,0.3929675221443176
1767708649715640000,6.20364013671875,0.1342930942773819,0.05415777862071991,0.30761799216270447
1767708649725641000,6.213640869140625,0.11840493977069855,0.10216844826936722,0.2423495203256607
1767708649735641000,6.22364111328125,0.07663139700889587,0.08255213499069214,0.23691001534461975
1767708649745642200,6.233642333984375,-0.003919640555977821,0.004320712294429541,0.2743700444698334
1767708649755642000,6.24364208984375,-0.11449728161096573,-0.08950857818126678,0.328383207321167
1767708649765643000,6.25364306640625,-0.23702239990234375,-0.15763916075229645,0.35227149724960327
1767708649775643100,6.26364306640625,-0.3396627604961395,-0.18321242928504944,0.3331744968891144
1767708649785643000,6.27364306640625,-0.4125324487686157,-0.18830066919326782,0.2956966459751129
1767708649795644200,6.28364404296875,-0.45648738741874695,-0.200651615858078,0.29307395219802856
1767708649805644000,6.29364404296875,-0.5156359076499939,-0.26323696970939636,0.3583480417728424
1767708649815645200,6.303645263671875,-0.5275764465332031,-0.3345465660095215,0.4907289743423462
1767708649825645300,6.313645263671875,-0.37898141145706177,-0.34324949979782104,0.6897499561309814
1767708649835646200,6.323646240234375,-0.10153168439865112,-0.24164006114006042,0.8898526430130005
1767708649845646000,6.33364599609375,0.19067621231079102,-0.16022109985351562,0.9682036638259888
1767708649855647000,6.34364697265625,0.4000518023967743,-0.06638834625482559,0.8392403721809387
1767708649865647000,6.353647216796875,0.4345565140247345,0.08424697071313858,0.5537987351417542
1767708649875647000,6.36364697265625,0.34538963437080383,0.2787346839904785,0.27363473176956177
1767708649885648100,6.373648193359375,0.28020796179771423,0.4791564643383026,0.1012246236205101
1767708649895648000,6.38364794921875,0.37489718198776245,0.5531423091888428,0.0667039304971695
1767708649905649200,6.393649169921875,0.542215883731842,0.48668763041496277,0.13724946975708008
1767708649915649300,6.403649169921875,0.6131494045257568,0.315794974565506,0.17404715716838837
1767708649925650200,6.413650146484375,0.6679021716117859,0.12512515485286713,0.16274496912956238
1767708649935650000,6.423650146484375,0.7397116422653198,0.0031904669012874365,0.17905737459659576
1767708649945650200,6.433650146484375,0.6925864815711975,-0.04921867698431015,0.16557857394218445
1767708649955651000,6.443651123046875,0.5022828578948975,-0.019845344126224518,0.06878332793712616
1767708649965651000,6.45365087890625,0.2656910717487335,-0.08710454404354095,0.006417152937501669
1767708649975652000,6.463652099609375,0.06367245316505432,-0.12950898706912994,-0.060864683240652084
1767708649985652200,6.47365234375,-0.09908690303564072,-0.08723423629999161,-0.1526433378458023
1767708649995653000,6.483653076171875,-0.19694794714450836,0.08879484981298447,-0.25040557980537415
1767708650005653200,6.4936533203125,-0.22316277027130127,0.26346200704574585,-0.33601343631744385
1767708650015654100,6.503654052734375,-0.22730478644371033,0.3777100145816803,-0.39722511172294617
1767708650025654000,6.513654052734375,-0.2372804582118988,0.4849850535392761,-0.445986807346344
1767708650035654100,6.523654052734375,-0.24658554792404175,0.5524176359176636,-0.5197744965553284
1767708650045655000,6.533655029296875,-0.23830577731132507,0.5666168332099915,-0.5841785073280334
1767708650055655000,6.543655029296875,-0.274773508310318,0.49857357144355774,-0.5847044587135315
1767708650065656000,6.553656005859375,-0.3351638913154602,0.3622484803199768,-0.5396493673324585
1767708650075656200,6.56365625,-0.348817378282547,0.2509952187538147,-0.49519082903862
1767708650085657000,6.573656982421875,-0.3371058702468872,0.15746259689331055,-0.4784454107284546
1767708650095658000,6.583657958984375,-0.301633358001709,0.08610931783914566,-0.48116955161094666
1767708650105659100,6.5936591796875,-0.23908288776874542,0.044497959315776825,-0.4832580089569092
1767708650115659000,6.603658935546875,-0.16557058691978455,0.041615087538957596,-0.4701927900314331
1767708650125659000,6.613658935546875,-0.09379653632640839,0.06859024614095688,-0.4645945727825165
1767708650135660000,6.623659912109375,-0.049797914922237396,0.08140458166599274,-0.47330203652381897
1767708650145660000,6.633659912109375,-0.06563706696033478,0.07841358333826065,-0.48156610131263733
1767708650155660800,6.643660888671875,-0.07883595675230026,0.09219837188720703,-0.48565539717674255
1767708650165661000,6.653660888671875,-0.09497471898794174,0.12789671123027802,-0.5172838568687439
1767708650175662000,6.663662109375,-0.12357307225465775,0.15214799344539642,-0.5758193731307983
1767708650185662000,6.673661865234375,-0.16149728000164032,0.18791210651397705,-0.6412409543991089
1767708650195662800,6.683662841796875,-0.19039444625377655,0.23434539139270782,-0.6806155443191528
1767708650205663000,6.6936630859375,-0.2161104679107666,0.28369349241256714,-0.6904205083847046
1767708650215662800,6.703662841796875,-0.21214954555034637,0.3121539056301117,-0.6845559477806091
1767708650225664000,6.7136640625,-0.17558513581752777,0.34551531076431274,-0.6769699454307556
1767708650235664000,6.723663818359375,-0.13146188855171204,0.3474777936935425,-0.6710162162780762
1767708650245665000,6.7336650390625,-0.08571037650108337,0.3082638084888458,-0.6317965984344482
1767708650255665200,6.7436650390625,-0.05736395716667175,0.2883945107460022,-0.5494160056114197
1767708650265666000,6.753666015625,-0.024382304400205612,0.26353177428245544,-0.466239333152771
1767708650275666000,6.763666015625,0.02504090406000614,0.21766628324985504,-0.4438072741031647
1767708650285666800,6.773666748046875,0.10184434056282043,0.12270487844944,-0.4809066951274872
1767708650295667000,6.7836669921875,0.20546500384807587,0.017657557502388954,-0.5266153216362
1767708650305666800,6.793666748046875,0.30223068594932556,-0.05964921414852142,-0.5302659869194031
1767708650315668000,6.80366796875,0.3725227117538452,-0.08118247240781784,-0.46041208505630493
1767708650325667800,6.813667724609375,0.40285584330558777,-0.13251915574073792,-0.3026501536369324
1767708650335669000,6.8236689453125,0.3802141845226288,-0.23862908780574799,-0.12680988013744354
1767708650345669000,6.833669189453125,0.314227432012558,-0.3170818090438843,-0.04319966956973076
1767708650355670000,6.843669921875,0.19327890872955322,-0.3226291835308075,-0.1134709045290947
1767708650365670000,6.853669921875,0.04697949439287186,-0.34681469202041626,-0.36036670207977295
1767708650375670000,6.863669921875,-0.12843893468379974,-0.40176287293434143,-0.6699234843254089
1767708650385671000,6.8736708984375,-0.34155094623565674,-0.48125743865966797,-0.8824823498725891
1767708650395670800,6.8836708984375,-0.5075114369392395,-0.5478207468986511,-0.9100961685180664
1767708650405672200,6.893672119140625,-0.447897344827652,-0.497651606798172,-0.7689390182495117
1767708650415672000,6.903672119140625,-0.2184670865535736,-0.3947712779045105,-0.6150993704795837
1767708650425673000,6.9136728515625,-0.046850331127643585,-0.24917493760585785,-0.562472403049469
1767708650435673000,6.923673095703125,0.0772005096077919,-0.05847848951816559,-0.5405300855636597
1767708650445674000,6.933674072265625,0.13576875627040863,-0.12127076834440231,-0.5392986536026001
1767708650455673900,6.943673828125,0.05807555466890335,-0.36802995204925537,-0.5396163463592529
1767708650465674000,6.953674072265625,-0.12615446746349335,-0.42947253584861755,-0.42321836948394775
1767708650475675000,6.9636748046875,-0.48599520325660706,-0.3138492703437805,-0.3071351647377014
1767708650485674800,6.9736748046875,-0.8036554455757141,-0.41307705640792847,-0.2929365336894989
1767708650495676200,6.98367626953125,-0.7579324245452881,-0.5021824240684509,-0.28250041604042053
1767708650505676000,6.993676025390625,-0.553879976272583,-0.3916569948196411,-0.10518847405910492
1767708650515677000,7.003677001953125,-0.26769590377807617,-0.25211986899375916,0.13692723214626312
1767708650525677000,7.013677001953125,0.008620652370154858,-0.1577129364013672,0.330106258392334
1767708650535678000,7.023677978515625,0.20138931274414062,-0.15657176077365875,0.417858749628067
1767708650545677800,7.033677734375,0.26410195231437683,-0.16690722107887268,0.4519754648208618
1767708650555678000,7.043677978515625,0.3051740229129791,-0.12515579164028168,0.4921649396419525
1767708650565679000,7.05367919921875,0.34675902128219604,-0.023978037759661674,0.5773767828941345
1767708650575679000,7.063678955078125,0.3557048439979553,0.06281597912311554,0.7158235907554626
1767708650585680100,7.07368017578125,0.2890467047691345,0.07832623273134232,0.8517297506332397
1767708650595680000,7.083679931640625,0.16698898375034332,0.0435703806579113,0.9037066698074341
1767708650605681000,7.093680908203125,0.0414062961935997,-0.02900555171072483,0.8768002390861511
1767708650615681000,7.103680908203125,-0.07244890183210373,-0.0771227478981018,0.8237945437431335
1767708650625682000,7.113681884765625,-0.16173776984214783,-0.09602533280849457,0.7989230155944824
1767708650635681800,7.123681884765625,-0.22936953604221344,-0.13404116034507751,0.827275812625885
1767708650645682000,7.133681884765625,-0.2639637291431427,-0.18668226897716522,0.8898600935935974
1767708650655683000,7.14368310546875,-0.2374836653470993,-0.20794999599456787,0.9418578147888184
1767708650665683000,7.153682861328125,-0.15263721346855164,-0.18753154575824738,0.9654890894889832
1767708650675684000,7.16368408203125,-0.028356008231639862,-0.15641117095947266,0.9713102579116821
1767708650685684000,7.17368408203125,0.09760245680809021,-0.12751774489879608,0.9915952682495117
1767708650695684900,7.183684814453125,0.19553834199905396,-0.10182170569896698,1.0426957607269287
1767708650705685000,7.19368505859375,0.2930441200733185,-0.05994615703821182,1.0854296684265137
1767708650715686100,7.20368603515625,0.39167696237564087,0.01581891067326069,1.090348243713379
1767708650725686000,7.21368603515625,0.4574016332626343,0.12938249111175537,1.054498314857483
1767708650735686100,7.22368603515625,0.47452205419540405,0.19762253761291504,0.9959242343902588
1767708650745687000,7.23368701171875,0.43995606899261475,0.18711049854755402,0.9082226157188416
1767708650755687000,7.24368701171875,0.3652397692203522,0.14780117571353912,0.8020098805427551
1767708650765688000,7.25368798828125,0.2748568654060364,0.11118617653846741,0.7109503149986267
1767708650775688000,7.26368798828125,0.16327068209648132,0.06242050230503082,0.6509497761726379
1767708650785688800,7.273688720703125,0.05257852375507355,0.07524655014276505,0.6001793146133423
1767708650795689000,7.28368896484375,-0.019994746893644333,0.11739986389875412,0.5304720997810364
1767708650805688800,7.293688720703125,-0.05795810744166374,0.12521757185459137,0.4428535997867584
1767708650815690000,7.30368994140625,-0.09463835507631302,0.05109727382659912,0.39175233244895935
1767708650825690000,7.313690185546875,-0.1659032106399536,-0.047687627375125885,0.4038950204849243
1767708650835691000,7.32369091796875,-0.25413215160369873,-0.10387766361236572,0.4525725245475769
1767708650845691000,7.33369091796875,-0.3436548411846161,-0.11459235846996307,0.5077449679374695
1767708650855692000,7.343692138671875,-0.41238704323768616,-0.12251739203929901,0.5265545845031738
1767708650865692000,7.35369189453125,-0.4882117509841919,-0.1443936675786972,0.48702824115753174
1767708650875693000,7.363693115234375,-0.5621309876441956,-0.17475342750549316,0.410499632358551
1767708650885693200,7.373693115234375,-0.5323706865310669,-0.27763959765434265,0.388231098651886
1767708650895693000,7.383693115234375,-0.35704681277275085,-0.2962031662464142,0.517268717288971
1767708650905694000,7.39369384765625,-0.050991810858249664,-0.16921645402908325,0.7446390390396118
1767708650915694000,7.403694091796875,0.24024242162704468,-0.03473081439733505,0.8902952671051025
1767708650925695000,7.413695068359375,0.455175518989563,0.05864972993731499,0.8553796410560608
1767708650935694800,7.42369482421875,0.5831430554389954,0.1206774190068245,0.596388041973114
1767708650945696000,7.433696044921875,0.5170122385025024,0.16119341552257538,0.22645923495292664
1767708650955695900,7.44369580078125,0.3771435618400574,0.18779386579990387,-0.019155584275722504
1767708650965697000,7.453697021484375,0.3520038425922394,0.19760708510875702,-0.0767432451248169
1767708650975697200,7.463697265625,0.4235118627548218,0.25327354669570923,-0.037572942674160004
1767708650985697000,7.473697021484375,0.4989088773727417,0.23189501464366913,0.021018998697400093
1767708650995698000,7.483697998046875,0.48716166615486145,0.10885697603225708,0.05477110296487808
1767708651005698000,7.493697998046875,0.42027798295021057,0.000008255799002654385,0.050269827246665955
1767708651015699000,7.503698974609375,0.3851953446865082,0.017617342993617058,0.032705217599868774
1767708651025698800,7.51369873046875,0.3589610755443573,0.06513293087482452,-0.043287284672260284
1767708651035700000,7.523699951171875,0.27650588750839233,0.08399849385023117,-0.13870860636234283
1767708651045700000,7.5337001953125,0.10487394779920578,0.09376164525747299,-0.22955650091171265
1767708651055701000,7.543700927734375,-0.0627286285161972,0.1394154131412506,-0.3085751533508301
1767708651065701000,7.553701171875,-0.11542806029319763,0.2302028387784958,-0.36903584003448486
1767708651075701000,7.563700927734375,-0.08592822402715683,0.31783947348594666,-0.37058764696121216
1767708651085702000,7.573701904296875,-0.03786855190992355,0.3190845251083374,-0.2942441403865814
1767708651095701200,7.583701171875,-0.04483804479241371,0.34363219141960144,-0.27392634749412537
1767708651105702100,7.5937021484375,-0.09841365367174149,0.49540334939956665,-0.4088034927845001
1767708651115702300,7.603702392578125,-0.11614444851875305,0.6639851927757263,-0.6349937319755554
1767708651125703400,7.613703369140625,-0.13262036442756653,0.7435631155967712,-0.7540830969810486
1767708651135703300,7.623703369140625,-0.2217896580696106,0.6852082014083862,-0.7012955546379089
1767708651145704200,7.6337041015625,-0.34850552678108215,0.539233386516571,-0.6071836948394775
1767708651155704300,7.643704345703125,-0.4297502934932709,0.43062329292297363,-0.5974146723747253
1767708651165704200,7.6537041015625,-0.45405006408691406,0.37009310722351074,-0.6748588681221008
1767708651175705000,7.663705078125,-0.40719521045684814,0.31595608592033386,-0.7691020369529724
1767708651185705200,7.673705322265625,-0.2368474304676056,0.2793373763561249,-0.8200613260269165
1767708651195706400,7.683706298828125,-0.04827006161212921,0.2912571430206299,-0.8115370869636536
1767708651205706200,7.693706298828125,-0.014771223068237305,0.29698002338409424,-0.777288019657135
1767708651215707400,7.703707275390625,-0.0031316110398620367,0.26275333762168884,-0.7835384607315063
1767708651225707300,7.713707275390625,0.027648139744997025,0.25705069303512573,-0.8223175406455994
1767708651235707400,7.723707275390625,-0.0060331248678267,0.3422074019908905,-0.8475419282913208
1767708651245708300,7.733708251953125,-0.05216946080327034,0.4403872489929199,-0.8631512522697449
1767708651255708200,7.743708251953125,-0.09856119751930237,0.5171725749969482,-0.8581740856170654
1767708651265709000,7.753708984375,-0.1918293535709381,0.5946213006973267,-0.8225604295730591
1767708651275709200,7.763709228515625,-0.26072800159454346,0.6652858853340149,-0.7815168499946594
1767708651285710300,7.77371044921875,-0.3066299855709076,0.7450030446052551,-0.7572743892669678
1767708651295710200,7.783710205078125,-0.34638404846191406,0.7888386845588684,-0.7660215497016907
1767708651305711400,7.79371142578125,-0.3518485724925995,0.7462310194969177,-0.7634829878807068
1767708651315711200,7.803711181640625,-0.33193346858024597,0.7135998606681824,-0.6980233192443848
1767708651325711400,7.81371142578125,-0.2646670639514923,0.731112003326416,-0.5992271900177002
1767708651335712300,7.823712158203125,-0.15235544741153717,0.7618589997291565,-0.5026609897613525
1767708651345712000,7.833712158203125,-0.025112809613347054,0.6857402920722961,-0.4001750946044922
1767708651355713300,7.84371337890625,0.07414639741182327,0.5023193359375,-0.31053709983825684
1767708651365713400,7.85371337890625,0.164694145321846,0.2844402492046356,-0.24285872280597687
1767708651375714300,7.86371435546875,0.24327842891216278,0.08988514542579651,-0.21337006986141205
1767708651385714200,7.873714111328125,0.3086816668510437,-0.05609362944960594,-0.21871796250343323
1767708651395715300,7.88371533203125,0.3466745913028717,-0.13686171174049377,-0.2364168018102646
1767708651405715200,7.893715087890625,0.355873167514801,-0.1994135081768036,-0.21006348729133606
1767708651415715300,7.90371533203125,0.3133770823478699,-0.2785693109035492,-0.1400548368692398
1767708651425716200,7.91371630859375,0.1952454000711441,-0.3449515402317047,-0.0859742984175682
1767708651435716000,7.923716064453125,0.0369444340467453,-0.42274245619773865,-0.12151684612035751
1767708651445717200,7.93371728515625,-0.1313582956790924,-0.4697621762752533,-0.25353214144706726
1767708651455717400,7.94371728515625,-0.30516815185546875,-0.49616315960884094,-0.3852273225784302
1767708651465718300,7.95371826171875,-0.4463561773300171,-0.5225127339363098,-0.4285481572151184
1767708651475718100,7.96371826171875,-0.5230227112770081,-0.5404624342918396,-0.4028473198413849
1767708651485719300,7.97371923828125,-0.4748767614364624,-0.5382131338119507,-0.3665878474712372
1767708651495719200,7.98371923828125,-0.32072076201438904,-0.49551013112068176,-0.35946282744407654
1767708651505719300,7.99371923828125,-0.13489416241645813,-0.37642690539360046,-0.3626224100589752
1767708651515720400,8.003720458984375,-0.00493244081735611,-0.21122142672538757,-0.2989235818386078
1767708651525720300,8.01372021484375,0.026502713561058044,-0.11320938169956207,-0.20730312168598175
1767708651535721200,8.02372119140625,-0.0488053560256958,-0.1550005078315735,-0.18708492815494537
1767708651545721300,8.033721435546875,-0.20060713589191437,-0.20340025424957275,-0.19199314713478088
1767708651555722200,8.04372216796875,-0.3960634469985962,-0.28472867608070374,-0.11044342070817947
1767708651565722000,8.05372216796875,-0.5880552530288696,-0.4602016806602478,0.032838374376297
1767708651575723300,8.06372314453125,-0.6528488993644714,-0.6745390295982361,0.09919130057096481
1767708651585723100,8.07372314453125,-0.5841494798660278,-0.7447998523712158,0.13900475203990936
1767708651595723300,8.08372314453125,-0.4292546808719635,-0.6204821467399597,0.214067280292511
1767708651605724400,8.093724365234374,-0.2311709076166153,-0.42529138922691345,0.2657746970653534
1767708651615724300,8.103724365234376,-0.05258172005414963,-0.2821480631828308,0.2654644250869751
1767708651625725200,8.11372509765625,0.05531705170869827,-0.1621263176202774,0.21366381645202637
1767708651635725300,8.123725341796876,0.10863033682107925,-0.07271654903888702,0.17522960901260376
1767708651645726200,8.133726318359376,0.152908056974411,0.05433354526758194,0.24611443281173706
1767708651655726000,8.14372607421875,0.1834164261817932,0.25893276929855347,0.427347868680954
1767708651665726200,8.153726318359375,0.18814274668693542,0.4346712827682495,0.5877652168273926
1767708651675727400,8.163727294921875,0.14391589164733887,0.43889319896698,0.6235328316688538
1767708651685727200,8.173727294921875,0.036254942417144775,0.318151593208313,0.5599549412727356
1767708651695728400,8.183728271484375,-0.0745844915509224,0.1825394481420517,0.4682854413986206
1767708651705728300,8.193728271484375,-0.13408802449703217,0.06143726035952568,0.39916282892227173
1767708651715729200,8.203729248046875,-0.1464991569519043,-0.073616161942482,0.37985891103744507
1767708651725729300,8.213729248046874,-0.11378622055053711,-0.1952323466539383,0.405380517244339
1767708651735730200,8.223730224609374,-0.06899610906839371,-0.2770252227783203,0.4806489050388336
1767708651745730000,8.23372998046875,0.001281779375858605,-0.2980567216873169,0.6101094484329224
1767708651755730200,8.243730224609376,0.10435250401496887,-0.28075656294822693,0.7443833351135254
1767708651765731300,8.2537314453125,0.21565745770931244,-0.28818386793136597,0.8474718928337097
1767708651775731200,8.263731201171876,0.3002453148365021,-0.2883172929286957,0.9001151323318481
1767708651785732400,8.273732421875,0.37074345350265503,-0.2513049244880676,0.9156491160392761
1767708651795732200,8.283732177734375,0.45610520243644714,-0.18383347988128662,0.9141470789909363
1767708651805733000,8.293733154296875,0.520402193069458,-0.08373723924160004,0.9049866199493408
1767708651815733200,8.303733154296875,0.5317935943603516,0.020676782354712486,0.8705085515975952
1767708651825734400,8.313734375,0.4867190420627594,0.0775160938501358,0.8131057024002075
1767708651835734300,8.323734375,0.43096232414245605,0.08828592300415039,0.6953814625740051
1767708651845734400,8.333734375,0.3851380944252014,0.0289421696215868,0.49953392148017883
1767708651855735300,8.3437353515625,0.31174883246421814,-0.07209230214357376,0.28248468041419983
1767708651865735200,8.353735107421874,0.18608678877353668,-0.1523573100566864,0.13755840063095093
1767708651875736300,8.363736328125,0.07540607452392578,-0.11158298701047897,0.08819431066513062
1767708651885736200,8.373736083984374,-0.007389472797513008,-0.024709872901439667,0.09130754321813583
1767708651895737000,8.383737060546874,-0.07060626149177551,-0.011700864881277084,0.11525016278028488
1767708651905737200,8.3937373046875,-0.12975560128688812,-0.04976622387766838,0.12656459212303162
1767708651915737000,8.403737060546876,-0.19380861520767212,-0.1312035620212555,0.12059565633535385
1767708651925738200,8.41373828125,-0.26475176215171814,-0.20311956107616425,0.13909929990768433
1767708651935738400,8.42373828125,-0.3216720521450043,-0.20095227658748627,0.21811635792255402
1767708651945739300,8.4337392578125,-0.32588863372802734,-0.09840886294841766,0.21295461058616638
1767708651955739100,8.4437392578125,-0.2978825569152832,-0.03713032603263855,0.11330924928188324
1767708651965740300,8.453740234375,-0.29526573419570923,-0.03393533080816269,0.02401851676404476
1767708651975740200,8.463740234375,-0.23942004144191742,-0.07959336042404175,0.08857087790966034
1767708651985741300,8.4737412109375,-0.06531615555286407,-0.09031258523464203,0.3539109230041504
1767708651995741400,8.483741455078125,0.18414586782455444,-0.08549626171588898,0.7243361473083496
1767708652005741300,8.4937412109375,0.4122573435306549,0.03093261644244194,0.9724375605583191
1767708652015742200,8.5037421875,0.5689641237258911,0.1826276034116745,0.9011743068695068
1767708652025742300,8.513742431640624,0.5175584554672241,0.3483223021030426,0.5144534707069397
1767708652035743200,8.5237431640625,0.3429504334926605,0.4997597634792328,0.12058473378419876
1767708652045743000,8.5337431640625,0.20010752975940704,0.4160930812358856,-0.12005077302455902
1767708652055744300,8.543744140625,0.14708586037158966,0.09082470834255219,-0.10801514983177185
1767708652065744100,8.553744140625,0.17207401990890503,-0.1250804215669632,0.1419677883386612
1767708652075745300,8.563745361328126,0.19275826215744019,-0.15373577177524567,0.37506815791130066
1767708652085745400,8.573745361328125,0.21696719527244568,-0.14882595837116241,0.403288871049881
1767708652095745300,8.583745361328125,0.2727462947368622,-0.13657861948013306,0.29305556416511536
1767708652105746200,8.59374609375,0.2834269106388092,-0.11874236166477203,0.15382978320121765
1767708652115746300,8.603746337890625,0.23633423447608948,-0.04743089899420738,0.09099169075489044
1767708652125747500,8.61374755859375,0.1173069179058075,0.005152684170752764,0.04996756091713905
1767708652135747300,8.623747314453125,0.023388413712382317,0.026084864512085915,-0.0024498419370502234
1767708652145748500,8.63374853515625,-0.026567429304122925,0.1111435666680336,-0.04060042276978493
1767708652155748400,8.643748291015624,-0.057019609957933426,0.2550109922885895,-0.015780827030539513
1767708652165749200,8.653749267578124,-0.05356708914041519,0.38384008407592773,0.06603334844112396
1767708652175749400,8.663749267578124,-0.10403212904930115,0.5598662495613098,0.03987604379653931
1767708652185749200,8.673749267578126,-0.1820496916770935,0.7787240147590637,-0.21374423801898956
1767708652195750100,8.683750244140626,-0.21013033390045166,0.9226657152175903,-0.5311874747276306
1767708652205750500,8.69375048828125,-0.2246304452419281,0.9871544241905212,-0.6575637459754944
1767708652215751400,8.70375146484375,-0.2626023292541504,0.8837356567382812,-0.584514856338501
1767708652225751300,8.713751220703125,-0.32135140895843506,0.7096043229103088,-0.44294387102127075
1767708652235752400,8.72375244140625,-0.3533865511417389,0.5272598266601562,-0.3497020900249481
1767708652245752300,8.73375244140625,-0.30715620517730713,0.3927976191043854,-0.3569815754890442
1767708652255752400,8.74375244140625,-0.1921880841255188,0.328676700592041,-0.42488762736320496
1767708652265753300,8.75375341796875,-0.049963563680648804,0.2275729775428772,-0.5087380409240723
1767708652275753200,8.763753173828125,0.08146476745605469,0.10108267515897751,-0.5562760233879089
1767708652285754400,8.77375439453125,0.1729360967874527,0.056839846074581146,-0.5644950866699219
1767708652295754500,8.78375439453125,0.22346265614032745,0.01369051169604063,-0.5598185658454895
1767708652305755400,8.79375537109375,0.22570502758026123,-0.027586353942751884,-0.5637264847755432
1767708652315755300,8.80375537109375,0.19087061285972595,-0.010242783464491367,-0.5635009407997131
1767708652325756400,8.81375634765625,0.12439678609371185,0.02383156307041645,-0.5541268587112427
1767708652335756300,8.82375634765625,0.06943366676568985,0.04807671532034874,-0.5771898031234741
1767708652345756400,8.83375634765625,0.024466194212436676,0.07478822022676468,-0.6286522150039673
1767708652355757300,8.84375732421875,-0.02484622783958912,0.11668454110622406,-0.7089393138885498
1767708652365757400,8.85375732421875,-0.06619393080472946,0.17789623141288757,-0.7801538705825806
1767708652375758300,8.86375830078125,-0.10500471293926239,0.21033672988414764,-0.8246496915817261
1767708652385758500,8.873758544921875,-0.12723465263843536,0.21237218379974365,-0.842583954334259
1767708652395759400,8.88375927734375,-0.12059112638235092,0.22393296658992767,-0.823685348033905
1767708652405759200,8.89375927734375,-0.09835506230592728,0.24863804876804352,-0.7696461081504822
1767708652415760400,8.903760498046875,-0.03128894791007042,0.3220696449279785,-0.6972038745880127
1767708652425760300,8.91376025390625,0.025861691683530807,0.37804877758026123,-0.6010938286781311
1767708652435760400,8.923760498046875,0.09670976549386978,0.44414976239204407,-0.5880067944526672
1767708652445761500,8.933761474609375,0.15626150369644165,0.4702226221561432,-0.6365852355957031
1767708652455761400,8.943761474609374,0.2220248132944107,0.3826296627521515,-0.6663513779640198
1767708652465762300,8.95376220703125,0.2490079551935196,0.2564248740673065,-0.6152504086494446
1767708652475762400,8.963762451171876,0.24663561582565308,0.14993862807750702,-0.479951947927475
1767708652485763300,8.973763427734376,0.23054373264312744,0.039743151515722275,-0.3060677945613861
1767708652495763200,8.98376318359375,0.19318251311779022,-0.07140573859214783,-0.15716485679149628
1767708652505763300,8.993763427734375,0.1370803564786911,-0.1962805688381195,-0.08346959203481674
1767708652515764200,9.00376416015625,0.029950974509119987,-0.2816271483898163,-0.08333643525838852
1767708652525764400,9.013764404296875,-0.1514742076396942,-0.41882067918777466,-0.14673298597335815
1767708652535765500,9.023765625,-0.37731266021728516,-0.5801334381103516,-0.24475888907909393
1767708652545765400,9.033765380859375,-0.5608012676239014,-0.7341266870498657,-0.317471444606781
1767708652555766300,9.043766357421875,-0.618061900138855,-0.8130124807357788,-0.31049129366874695
1767708652565766400,9.053766357421875,-0.5290385484695435,-0.7336260676383972,-0.22838976979255676
1767708652575767300,9.063767333984375,-0.3440873324871063,-0.5679699778556824,-0.1661495566368103
1767708652585767200,9.07376708984375,-0.11001278460025787,-0.28526341915130615,-0.08103519678115845
1767708652595768600,9.0837685546875,0.10368990898132324,-0.11150389164686203,0.0224419254809618
1767708652605768400,9.0937685546875,0.16908809542655945,-0.2771245539188385,0.0520368367433548
1767708652615768300,9.103768310546876,0.01871643029153347,-0.5406014323234558,-0.023017168045043945
1767708652625769500,9.11376953125,-0.2718813121318817,-0.6365280151367188,-0.11930162459611893
1767708652635769300,9.123769287109376,-0.6262801289558411,-0.5748334527015686,-0.190323606133461
1767708652645770200,9.133770263671876,-0.8143467307090759,-0.6774173378944397,-0.24681590497493744
1767708652655770400,9.143770263671875,-0.7146467566490173,-0.8647222518920898,-0.17988507449626923
1767708652665771300,9.153771240234375,-0.5840602517127991,-0.923126757144928,0.006795321591198444
1767708652675771100,9.163771240234375,-0.3871213495731354,-0.7475714087486267,0.1779167354106903
1767708652685772500,9.1737724609375,-0.11409301310777664,-0.47889813780784607,0.26858192682266235
1767708652695772400,9.1837724609375,0.1499660611152649,-0.2938883602619171,0.22304320335388184
1767708652705772300,9.193772216796875,0.24543346464633942,-0.14304131269454956,0.10727239400148392
1767708652715773400,9.2037734375,0.22228260338306427,0.0009467537747696042,0.053352437913417816
1767708652725773300,9.213773193359375,0.2089627981185913,0.28529325127601624,0.19382379949092865
1767708652735774200,9.223774169921874,0.16567657887935638,0.5626319050788879,0.375716894865036
1767708652745774300,9.2337744140625,0.07225555181503296,0.6941071152687073,0.4005146622657776
1767708652755775500,9.243775390625,-0.027898741886019707,0.7049981355667114,0.32699090242385864
1767708652765775400,9.253775390625,-0.08666884899139404,0.6342070698738098,0.28716331720352173
1767708652775775500,9.263775390625,-0.10774563997983932,0.48440131545066833,0.2870163321495056
1767708652785776400,9.2737763671875,-0.12827301025390625,0.29632967710494995,0.29495999217033386
1767708652795776300,9.2837763671875,-0.14092090725898743,0.08612130582332611,0.35953712463378906
1767708652805777400,9.29377734375,-0.13516874611377716,-0.05714904144406319,0.4883273243904114
1767708652815777300,9.30377734375,-0.08043412119150162,-0.14226020872592926,0.665802001953125
1767708652825778200,9.313778076171875,0.010905112139880657,-0.22564351558685303,0.8412039279937744
1767708652835778300,9.3237783203125,0.1187005490064621,-0.3148695230484009,0.9698343276977539
1767708652845779500,9.333779541015625,0.220323845744133,-0.35124778747558594,1.0541704893112183
1767708652855779300,9.343779296875,0.319232314825058,-0.31762295961380005,1.088258147239685
1767708652865779500,9.353779541015625,0.38907238841056824,-0.2454710155725479,1.0751277208328247
1767708652875780400,9.3637802734375,0.4116671681404114,-0.13888251781463623,1.029008388519287
1767708652885780200,9.3737802734375,0.4009178578853607,0.01775369606912136,0.9589909911155701
1767708652895781400,9.383781494140624,0.3792780637741089,0.15132373571395874,0.8687077164649963
1767708652905781200,9.39378125,0.3322479724884033,0.22862891852855682,0.7615002989768982
1767708652915782400,9.403782470703124,0.2848157584667206,0.2620808780193329,0.6480088829994202
1767708652925782500,9.413782470703126,0.22562779486179352,0.23839925229549408,0.5360652804374695
1767708652935783400,9.423783447265626,0.14679449796676636,0.16705024242401123,0.41443365812301636
1767708652945783300,9.433783203125,0.03707652911543846,0.13440440595149994,0.2660585939884186
1767708652955783400,9.443783447265625,-0.04487346485257149,0.1422327756881714,0.1240825355052948
1767708652965784300,9.453784423828125,-0.08316652476787567,0.10312345623970032,0.035716187208890915
1767708652975784200,9.4637841796875,-0.13236522674560547,-0.05548030138015747,-0.0015182681381702423
1767708652985785300,9.473785400390625,-0.2049102634191513,-0.2859361469745636,0.03092915378510952
1767708652995785200,9.48378515625,-0.27995842695236206,-0.5102571249008179,0.11837537586688995
1767708653005786400,9.493786376953125,-0.3392116129398346,-0.5424978733062744,0.21970252692699432
1767708653015786500,9.503786376953125,-0.3808325529098511,-0.46980932354927063,0.24872539937496185
1767708653025786400,9.513786376953124,-0.42595744132995605,-0.43898776173591614,0.17427273094654083
1767708653035787300,9.523787353515624,-0.42356351017951965,-0.46965351700782776,0.07383853942155838
1767708653045787400,9.533787353515624,-0.3480202853679657,-0.5484362244606018,0.08486934751272202
1767708653055788300,9.543788330078126,-0.17107480764389038,-0.5780332684516907,0.31079062819480896
1767708653065788200,9.5537880859375,0.07677360624074936,-0.4831456243991852,0.642424464225769
1767708653075789600,9.56378955078125,0.3067189157009125,-0.28858280181884766,0.7628084421157837
1767708653085789400,9.57378955078125,0.35500389337539673,-0.0705505982041359,0.4388282299041748
1767708653095790800,9.583790771484376,0.29244330525398254,0.04452778771519661,-0.09010858833789825
1767708653105791000,9.593791015625,0.21961331367492676,0.14861877262592316,-0.4340289533138275
1767708653115790800,9.603790771484375,0.18902717530727386,0.2814314067363739,-0.5110893845558167
1767708653125791700,9.613791748046875,0.23911245167255402,0.3094406723976135,-0.3869461119174957
1767708653135791900,9.6237919921875,0.2578970491886139,0.13677622377872467,-0.017309747636318207
1767708653145793000,9.63379296875,0.20941022038459778,0.0010634001810103655,0.4554159939289093
1767708653155793000,9.64379296875,0.13957573473453522,-0.12153495103120804,0.7560314536094666
1767708653165793800,9.653793701171875,0.15199245512485504,-0.15738056600093842,0.8054272532463074
1767708653175794000,9.6637939453125,0.17423251271247864,-0.162623792886734,0.6414026618003845
1767708653185794800,9.673794921875,0.16174522042274475,-0.17315900325775146,0.33856767416000366
1767708653195795000,9.683794921875,0.1339908242225647,-0.2451261281967163,0.17519284784793854
1767708653205794800,9.693794921875,0.06976336985826492,-0.23703651130199432,0.1302647888660431
1767708653215796000,9.7037958984375,0.0428507924079895,-0.08520464599132538,0.07347767800092697
1767708653225796000,9.713796142578126,0.06557554751634598,0.15378770232200623,0.09047476947307587
1767708653235797000,9.723796875,0.04282869026064873,0.31864508986473083,0.22459502518177032
1767708653245796900,9.733796875,-0.11602194607257843,0.4483671486377716,0.22267888486385345
1767708653255797800,9.7437978515625,-0.29028189182281494,0.6318448185920715,-0.07216660678386688
1767708653265798000,9.7537978515625,-0.3077085614204407,0.8265088200569153,-0.3899347186088562
1767708653275798800,9.763798828125,-0.21868014335632324,0.9467577338218689,-0.4751068651676178
1767708653285799000,9.773798828125,-0.18477784097194672,0.8723471760749817,-0.33718523383140564
1767708653295798800,9.783798828125,-0.19573114812374115,0.6633960604667664,-0.17947015166282654
1767708653305800000,9.793800048828125,-0.22830428183078766,0.49178144335746765,-0.1381882280111313
1767708653315800000,9.803800048828125,-0.19576843082904816,0.35776400566101074,-0.19695940613746643
1767708653325801000,9.813801025390624,-0.1355956494808197,0.2629184424877167,-0.2986663281917572
1767708653335800800,9.82380078125,-0.06263434886932373,0.19416095316410065,-0.361711323261261
1767708653345801700,9.8338017578125,0.03321467712521553,0.13028396666049957,-0.38723987340927124
1767708653355801900,9.8438017578125,0.14554068446159363,0.0883098915219307,-0.4095313251018524
1767708653365803000,9.853802978515626,0.21387501060962677,0.07944502681493759,-0.4208359122276306
1767708653375803000,9.863802978515626,0.20592786371707916,0.06811034679412842,-0.4293889105319977
1767708653385803000,9.873802978515625,0.15475256741046906,0.07666681706905365,-0.4525730609893799
1767708653395804000,9.883803955078125,0.07931452989578247,0.13871526718139648,-0.46429044008255005
1767708653405804000,9.893803955078125,0.0065167550928890705,0.24129357933998108,-0.4980428218841553
1767708653415805000,9.903804931640625,-0.006039250176399946,0.3479031026363373,-0.5595956444740295
1767708653425804800,9.9138046875,0.006429936271160841,0.45242738723754883,-0.623588502407074
1767708653435805700,9.9238056640625,0.011721903458237648,0.521151065826416,-0.6906532645225525
1767708653445805800,9.933805908203125,0.029292907565832138,0.5517531633377075,-0.7463597059249878
1767708653455807000,9.943806884765625,0.027284085750579834,0.5642369985580444,-0.7889249920845032
1767708653465806800,9.953806884765624,0.015213307924568653,0.582798182964325,-0.8016543388366699
1767708653475807000,9.963806884765624,0.020253872498869896,0.6232726573944092,-0.7833136916160583
1767708653485807900,9.973807861328124,0.03400536999106407,0.6907283663749695,-0.7351781129837036
1767708653495808000,9.98380810546875,0.07344944775104523,0.7001168131828308,-0.6751489043235779
1767708653505809000,9.993808837890626,0.10974593460559845,0.5998000502586365,-0.6198816299438477
1767708653515808800,10.003808837890626,0.13653786480426788,0.3780847191810608,-0.5480409860610962
1767708653525810000,10.013809814453126,0.1412932127714157,0.10940159112215042,-0.4706346094608307
1767708653535810000,10.02381005859375,0.1346382349729538,-0.08926090598106384,-0.41986703872680664
1767708653545811000,10.03381103515625,0.14447355270385742,-0.15858139097690582,-0.38984763622283936
1767708653555810800,10.043810791015625,0.14318032562732697,-0.13558340072631836,-0.3527844250202179
1767708653565811000,10.05381103515625,0.12298984080553055,-0.15573181211948395,-0.2937413454055786
1767708653575811800,10.063811767578125,0.08972243219614029,-0.2502109110355377,-0.22683368623256683
1767708653585812000,10.07381201171875,0.02900874800980091,-0.39147189259529114,-0.19267544150352478
1767708653595812900,10.083812744140625,-0.0897999256849289,-0.557166337966919,-0.22930961847305298
1767708653605812700,10.093812744140624,-0.2673265039920807,-0.7038457989692688,-0.3333366811275482
1767708653615814000,10.10381396484375,-0.4645269215106964,-0.7994303703308105,-0.43735283613204956
1767708653625814000,10.11381396484375,-0.5711431503295898,-0.7580051422119141,-0.4696846604347229
1767708653635814000,10.12381396484375,-0.49084243178367615,-0.5774787664413452,-0.46489259600639343
1767708653645814800,10.133814697265626,-0.30738365650177,-0.419274240732193,-0.510395348072052
1767708653655815000,10.14381494140625,-0.11371751129627228,-0.20887331664562225,-0.558739960193634
1767708653665815800,10.15381591796875,0.011418569833040237,-0.04621516540646553,-0.5524980425834656
1767708653675816000,10.16381591796875,0.0020596887916326523,-0.03105565346777439,-0.5187036395072937
1767708653685817000,10.173817138671875,-0.09994789958000183,-0.10201744735240936,-0.4608328640460968
1767708653695817000,10.18381689453125,-0.2715449631214142,-0.22964277863502502,-0.3361029028892517
1767708653705817900,10.19381787109375,-0.5117258429527283,-0.37385720014572144,-0.1604469269514084
1767708653715818000,10.20381787109375,-0.7287663221359253,-0.6313399076461792,-0.04945836216211319
1767708653725817900,10.21381787109375,-0.7097300291061401,-0.9295343160629272,-0.018152639269828796
1767708653735818800,10.22381884765625,-0.5400411486625671,-1.000224232673645,0.08948487788438797
1767708653745819000,10.23381884765625,-0.3287126421928406,-0.8347105979919434,0.25716280937194824
1767708653755819800,10.24381982421875,-0.11736684292554855,-0.6810845136642456,0.38795971870422363
1767708653765820000,10.25381982421875,0.008927715010941029,-0.5844820737838745,0.42541253566741943
1767708653775821000,10.263821044921874,0.04021612927317619,-0.43945884704589844,0.3889671862125397
1767708653785821000,10.273821044921876,0.05071324482560158,-0.24670858681201935,0.3352874517440796
1767708653795821800,10.28382177734375,0.08224453777074814,0.07493150234222412,0.37398505210876465
1767708653805822000,10.293822021484376,0.09739872813224792,0.3703985810279846,0.47930455207824707
1767708653815821800,10.30382177734375,0.015146994963288307,0.536541223526001,0.47813913226127625
1767708653825822700,10.31382275390625,-0.08146343380212784,0.5994381308555603,0.3570694327354431
1767708653835822800,10.32382275390625,-0.1505114734172821,0.565462589263916,0.25785791873931885
1767708653845824000,10.333823974609375,-0.19355109333992004,0.4710785746574402,0.24366246163845062
1767708653855824000,10.343823974609375,-0.20698194205760956,0.3420303165912628,0.27774134278297424
1767708653865825000,10.353824951171875,-0.20129768550395966,0.17820808291435242,0.33290553092956543
1767708653875825000,10.363824951171875,-0.19721613824367523,0.010896589607000351,0.42884668707847595
1767708653885825800,10.37382568359375,-0.17122581601142883,-0.11240191012620926,0.5509076118469238
1767708653895826000,10.383825927734375,-0.11423788964748383,-0.16135959327220917,0.6849786043167114
1767708653905825800,10.39382568359375,-0.018726816400885582,-0.18977312743663788,0.773472249507904
1767708653915826700,10.40382666015625,0.0796908363699913,-0.18395225703716278,0.8358346819877625
1767708653925826800,10.413826904296876,0.1585656702518463,-0.1609627902507782,0.8857423663139343
1767708653935828000,10.423827880859376,0.21847055852413177,-0.11814341694116592,0.9229762554168701
1767708653945827800,10.433827880859376,0.2566789388656616,-0.06968080997467041,0.9388159513473511
1767708653955829000,10.4438291015625,0.2907913625240326,0.010585532523691654,0.9340353012084961
1767708653965828900,10.453828857421875,0.32951584458351135,0.12236133217811584,0.9084972143173218
1767708653975829800,10.463829833984375,0.35403504967689514,0.22049082815647125,0.8584840893745422
1767708653985830000,10.473829833984375,0.3272910416126251,0.27843162417411804,0.7876546382904053
1767708653995829800,10.483829833984375,0.277876079082489,0.3035641312599182,0.6962986588478088
1767708654005831000,10.493830810546875,0.20631934702396393,0.30140191316604614,0.5887828469276428
1767708654015831000,10.5038310546875,0.11186368018388748,0.284595787525177,0.4574410617351532
1767708654025832000,10.51383203125,0.015973374247550964,0.22033290565013885,0.31431877613067627
1767708654035831800,10.523831787109375,-0.06460961699485779,0.10198202729225159,0.18550993502140045
1767708654045833000,10.5338330078125,-0.1427917778491974,-0.023366043344140053,0.0960671454668045
1767708654055832800,10.543832763671874,-0.17737504839897156,-0.16274283826351166,0.06911168992519379
1767708654065833700,10.553833740234374,-0.19485977292060852,-0.3274146020412445,0.1100521981716156
1767708654075833900,10.563833740234376,-0.23145265877246857,-0.4544929265975952,0.1840643733739853
1767708654085833700,10.573833740234376,-0.2825366258621216,-0.5312740206718445,0.22287622094154358
1767708654095834400,10.58383447265625,-0.33845609426498413,-0.5171533823013306,0.19518786668777466
1767708654105834500,10.59383447265625,-0.3973630666732788,-0.4988553524017334,0.14317740499973297
1767708654115835600,10.603835693359375,-0.39971277117729187,-0.4781929552555084,0.21831795573234558
1767708654125835800,10.613835693359375,-0.2744251787662506,-0.39020290970802307,0.46665212512016296
1767708654135836700,10.623836669921875,-0.06010887771844864,-0.19000935554504395,0.7210343480110168
1767708654145836500,10.63383642578125,0.13612587749958038,-0.06055202707648277,0.7630758285522461
1767708654155837400,10.64383740234375,0.2910827100276947,0.03995940089225769,0.5500924587249756
1767708654165837600,10.653837646484375,0.36062875390052795,0.14134301245212555,0.19081655144691467
1767708654175837400,10.66383740234375,0.3190365731716156,0.174313485622406,-0.1379874348640442
1767708654185838600,10.673838623046874,0.2037491351366043,0.16393114626407623,-0.2705047130584717
1767708654195838700,10.683838623046874,0.11976315081119537,0.076622873544693,-0.2799363136291504
1767708654205839600,10.693839599609374,0.05139075219631195,0.05182990804314613,-0.23033493757247925
1767708654215839700,10.70383984375,0.028967736288905144,0.0064744106493890285,-0.09123484045267105
1767708654225840600,10.713840576171876,0.03549567610025406,0.006071474403142929,0.13609552383422852
1767708654235840500,10.723840576171876,0.04579811543226242,0.015852998942136765,0.3183976709842682
1767708654245840600,10.733840576171875,0.13029170036315918,-0.008869658224284649,0.37872228026390076
1767708654255841500,10.743841552734375,0.21914167702198029,-0.05215587839484215,0.3547266721725464
1767708654265841400,10.75384130859375,0.24066907167434692,-0.12526869773864746,0.24530243873596191
1767708654275842600,10.763842529296875,0.187501460313797,-0.19516442716121674,0.07071225345134735
1767708654285842700,10.7738427734375,0.08622090518474579,-0.2682543694972992,-0.14135925471782684
1767708654295843600,10.783843505859375,0.027353061363101006,-0.19869498908519745,-0.3151552975177765
1767708654305843700,10.79384375,0.02834615297615528,-0.044743768870830536,-0.37791508436203003
1767708654315844600,10.8038447265625,0.04399062693119049,0.13182806968688965,-0.3034605383872986
1767708654325844500,10.813844482421874,-0.0011044129496440291,0.3189409673213959,-0.17668849229812622
1767708654335844600,10.8238447265625,-0.09759340435266495,0.5590566396713257,-0.19793544709682465
1767708654345845800,10.833845703125,-0.16118302941322327,0.7769671082496643,-0.38970834016799927
1767708654355845600,10.843845703125,-0.14945180714130402,0.9121806025505066,-0.5555106401443481
1767708654365846500,10.853846435546876,-0.12589988112449646,0.8576340079307556,-0.5555399060249329
1767708654375846700,10.8638466796875,-0.15225425362586975,0.6969340443611145,-0.4421585202217102
1767708654385847600,10.87384765625,-0.20150195062160492,0.48320233821868896,-0.34698617458343506
1767708654395847700,10.88384765625,-0.22142693400382996,0.2836189270019531,-0.34194135665893555
1767708654405848600,10.8938486328125,-0.1890634000301361,0.13999173045158386,-0.41605979204177856
1767708654415848400,10.903848388671875,-0.11185036599636078,0.05974135920405388,-0.5001134276390076
1767708654425848600,10.9138486328125,-0.03430258110165596,-0.015307850204408169,-0.5419868230819702
1767708654435849700,10.923849609375,0.024209465831518173,-0.06874684244394302,-0.554404079914093
1767708654445849600,10.933849609375,0.09318986535072327,-0.07006244361400604,-0.546633243560791
1767708654455850500,10.9438505859375,0.15033437311649323,-0.028378911316394806,-0.5369971394538879
1767708654465850600,10.9538505859375,0.14441843330860138,0.05856823921203613,-0.5361452102661133
1767708654475851500,10.9638515625,0.12177649885416031,0.15614885091781616,-0.561729907989502
1767708654485851600,10.9738515625,0.09764853119850159,0.2534245550632477,-0.591317355632782
1767708654495852800,10.983852783203124,0.059730175882577896,0.3621329069137573,-0.6013100743293762
1767708654505852700,10.993852783203126,-0.004424042999744415,0.46396633982658386,-0.6139963269233704
1767708654515852800,11.003852783203126,-0.07195302098989487,0.5178245306015015,-0.6315380334854126
1767708654525853700,11.013853759765626,-0.12064039707183838,0.5168055891990662,-0.666405975818634
1767708654535853600,11.023853515625,-0.13325712084770203,0.4986944794654846,-0.7238999009132385
1767708654545854500,11.0338544921875,-0.10388538241386414,0.5356607437133789,-0.7665411233901978
1767708654555854600,11.0438544921875,-0.0527002289891243,0.5890776515007019,-0.7758722901344299
1767708654565855500,11.05385546875,0.01636672206223011,0.5913687348365784,-0.7504811882972717
1767708654575855600,11.063855712890625,0.09459548443555832,0.615450382232666,-0.6987066864967346
1767708654585856800,11.073856689453125,0.15066221356391907,0.6158996820449829,-0.6373748779296875
1767708654595856600,11.083856689453125,0.19318144023418427,0.5128207206726074,-0.5959539413452148
1767708654605856800,11.093856689453125,0.2306515872478485,0.3730106055736542,-0.5815579295158386
1767708654615857700,11.103857666015625,0.2677669823169708,0.2273029237985611,-0.5705540180206299
1767708654625857500,11.113857421875,0.2691449224948883,0.12838034331798553,-0.5180756449699402
1767708654635858400,11.1238583984375,0.2172660082578659,-0.014147510752081871,-0.42204365134239197
1767708654645858600,11.133858642578126,0.13504064083099365,-0.1982840597629547,-0.2970689535140991
1767708654655859700,11.143859619140626,0.06877294182777405,-0.3175870180130005,-0.16586805880069733
1767708654665859600,11.153859619140626,0.019221099093556404,-0.3906630873680115,-0.09052004665136337
1767708654675859700,11.163859619140625,-0.05404858663678169,-0.4494702219963074,-0.1443856805562973
1767708654685860600,11.173860595703125,-0.1720106452703476,-0.5496373176574707,-0.2903900146484375
1767708654695860700,11.18386083984375,-0.3204174339771271,-0.6632594466209412,-0.4512140452861786
1767708654705861600,11.193861572265625,-0.46096867322921753,-0.7657096982002258,-0.5583404898643494
1767708654715861500,11.203861572265625,-0.5448513031005859,-0.7074756622314453,-0.5567753911018372
1767708654725862400,11.2138623046875,-0.482939213514328,-0.5013664364814758,-0.41543740034103394
1767708654735862500,11.223862548828125,-0.2953522801399231,-0.3029888868331909,-0.28035494685173035
1767708654745863700,11.23386376953125,-0.1368127167224884,-0.20184417068958282,-0.221406951546669
1767708654755863600,11.243863525390625,-0.048642903566360474,-0.26655179262161255,-0.2099686861038208
1767708654765863700,11.25386376953125,-0.03025643900036812,-0.38925108313560486,-0.21628010272979736
1767708654775864600,11.263864501953124,-0.08176197111606598,-0.41257157921791077,-0.18654564023017883
1767708654785864700,11.27386474609375,-0.2533254623413086,-0.46219879388809204,-0.11360912024974823
1767708654795865600,11.283865478515626,-0.5258086919784546,-0.6304069757461548,-0.052383579313755035
1767708654805865500,11.293865478515626,-0.5687758326530457,-0.8368922472000122,-0.03129720315337181
1767708654815866600,11.30386669921875,-0.4705272912979126,-0.872093915939331,0.013042299076914787
1767708654825866800,11.31386669921875,-0.3264332413673401,-0.7033762335777283,0.08213295042514801
1767708654835867600,11.32386767578125,-0.1555808037519455,-0.529755711555481,0.212777778506279
1767708654845867500,11.333867431640625,0.007154049351811409,-0.44218993186950684,0.3556550443172455
1767708654855867600,11.34386767578125,0.10358711332082748,-0.3755493760108948,0.43414106965065
1767708654865868500,11.35386865234375,0.13644945621490479,-0.2630649209022522,0.4419420063495636
1767708654875868700,11.36386865234375,0.1616211235523224,-0.06725893169641495,0.4674513339996338
1767708654885869600,11.37386962890625,0.17258907854557037,0.17215019464492798,0.5552781224250793
1767708654895869400,11.383869384765624,0.11181068420410156,0.30059579014778137,0.6107555031776428
1767708654905870600,11.39387060546875,0.04537493735551834,0.2966172993183136,0.5815113186836243
1767708654915870700,11.40387060546875,-0.003707386553287506,0.2290526181459427,0.5124356150627136
1767708654925871600,11.41387158203125,-0.04807325452566147,0.13116814196109772,0.4536378085613251
1767708654935871500,11.42387158203125,-0.07949109375476837,-0.0029491845052689314,0.4040188491344452
1767708654945871600,11.43387158203125,-0.12644103169441223,-0.1714836061000824,0.3844592571258545
1767708654955872500,11.44387255859375,-0.16481105983257294,-0.3265320360660553,0.41568827629089355
1767708654965872600,11.45387255859375,-0.20196747779846191,-0.4273121953010559,0.47363972663879395
1767708654975873800,11.463873779296875,-0.20008808374404907,-0.4691174328327179,0.5435516834259033
1767708654985873700,11.473873779296875,-0.12249262630939484,-0.48035943508148193,0.6062113642692566
1767708654995874600,11.48387451171875,-0.02015347220003605,-0.4743422865867615,0.6561048626899719
1767708655005874700,11.493874755859375,0.08053132891654968,-0.44447439908981323,0.700031042098999
1767708655015874600,11.50387451171875,0.20059728622436523,-0.39403918385505676,0.74165278673172
1767708655025875500,11.51387548828125,0.3430633544921875,-0.2653437852859497,0.7715960741043091
1767708655035875600,11.52387548828125,0.49914348125457764,-0.0718318447470665,0.7835192680358887
1767708655045876500,11.53387646484375,0.5883391499519348,0.13126321136951447,0.753820538520813
1767708655055876600,11.543876708984374,0.600508451461792,0.3011673092842102,0.6777726411819458
1767708655065877800,11.553877685546874,0.5832714438438416,0.4042114019393921,0.576823890209198
1767708655075877600,11.563877685546874,0.5347981452941895,0.4712551534175873,0.47380512952804565
1767708655085878500,11.57387841796875,0.4578684866428375,0.49517539143562317,0.37031280994415283
1767708655095879000,11.58387890625,0.37407851219177246,0.4836084842681885,0.26268595457077026
1767708655105878800,11.593878662109375,0.2797107398509979,0.43196552991867065,0.157054603099823
1767708655115879700,11.603879638671875,0.1864718794822693,0.3250398635864258,0.08534419536590576
1767708655125879800,11.6138798828125,0.09399040788412094,0.15083184838294983,0.05548669397830963
1767708655135880700,11.623880615234375,-0.017610952258110046,-0.03477821871638298,0.05191486328840256
1767708655145880600,11.633880615234375,-0.15284840762615204,-0.16996480524539948,0.062252454459667206
1767708655155882000,11.643882080078125,-0.2651081085205078,-0.25936418771743774,0.07635948807001114
1767708655165881900,11.6538818359375,-0.33776286244392395,-0.2612273395061493,0.0658772811293602
1767708655175882800,11.6638828125,-0.3661801218986511,-0.19988594949245453,-0.008531169965863228
1767708655185883000,11.6738828125,-0.3724571764469147,-0.1394369900226593,-0.1399160921573639
1767708655195882800,11.6838828125,-0.362676739692688,-0.2060125470161438,-0.19819511473178864
1767708655205883600,11.693883544921874,-0.31474143266677856,-0.33383017778396606,-0.02833736501634121
1767708655215883800,11.7038837890625,-0.07126592099666595,-0.2957821190357208,0.34874680638313293
1767708655225884700,11.713884765625,0.250641793012619,-0.19228608906269073,0.6841325163841248
1767708655235884500,11.723884521484376,0.4536881446838379,-0.09640669822692871,0.666469395160675
1767708655245886000,11.733885986328126,0.433582067489624,-0.02136094868183136,0.273612380027771
1767708655255885800,11.7438857421875,0.31348443031311035,0.06519071757793427,-0.0786077231168747
1767708655265886000,11.753885986328125,0.27279236912727356,0.09832736849784851,-0.11172200739383698
1767708655275886800,11.763886962890625,0.25535160303115845,-0.09600109606981277,0.10169067233800888
1767708655285886700,11.77388671875,0.24616530537605286,-0.3001933693885803,0.4386359453201294
1767708655295887600,11.7838876953125,0.22035500407218933,-0.2963389754295349,0.6094050407409668
1767708655305887700,11.7938876953125,0.20909196138381958,-0.2548879384994507,0.5006937384605408
1767708655315889000,11.803888916015625,0.26082971692085266,-0.1653338372707367,0.28895431756973267
1767708655325888800,11.813888671875,0.30894026160240173,-0.15384230017662048,0.16708458960056305
1767708655335890000,11.823889892578125,0.2629051208496094,-0.20070300996303558,0.1698891669511795
1767708655345889800,11.833889892578124,0.17329774796962738,-0.23139514029026031,0.23808260262012482
1767708655355890000,11.843889892578124,0.07856884598731995,-0.20079141855239868,0.20463517308235168
1767708655365890800,11.853890869140624,0.0132124749943614,-0.007399593014270067,0.08203068375587463
1767708655375890700,11.863890625,-0.004977714270353317,0.24046507477760315,-0.0366634726524353
1767708655385891600,11.8738916015625,-0.031128358095884323,0.36112597584724426,-0.08845769613981247
1767708655395891700,11.8838916015625,-0.10686972737312317,0.39623576402664185,-0.1312997043132782
1767708655405892900,11.893892822265625,-0.1981722116470337,0.47222399711608887,-0.2660822868347168
1767708655415892700,11.903892822265625,-0.24553413689136505,0.5515395998954773,-0.44000160694122314
1767708655425894000,11.913893798828125,-0.2546812891960144,0.5651336908340454,-0.5242568254470825
1767708655435893800,11.923893798828125,-0.2933503985404968,0.47186315059661865,-0.4989948868751526
1767708655445894000,11.933893798828125,-0.38164404034614563,0.32163316011428833,-0.4516739845275879
1767708655455894800,11.943894775390625,-0.47607704997062683,0.09673133492469788,-0.3943052291870117
1767708655465894700,11.953894775390625,-0.5632971525192261,-0.04014129564166069,-0.3899557590484619
1767708655475895800,11.963895751953125,-0.6104713678359985,-0.15215544402599335,-0.46197962760925293
1767708655485896000,11.97389599609375,-0.5661936402320862,-0.22014035284519196,-0.5574414134025574
1767708655495896800,11.983896728515624,-0.43592163920402527,-0.21696320176124573,-0.5925373435020447
1767708655505896700,11.993896728515624,-0.26177114248275757,-0.22007803618907928,-0.5757384300231934
1767708655515896800,12.003896728515626,-0.12425803393125534,-0.23851430416107178,-0.5365942120552063
1767708655525897700,12.013897705078126,-0.056953828781843185,-0.24497219920158386,-0.48710495233535767
1767708655535897900,12.02389794921875,-0.03509353846311569,-0.2196442037820816,-0.4745899438858032
1767708655545898800,12.033898681640625,-0.05409253016114235,-0.15519917011260986,-0.5184215903282166
1767708655555898600,12.043898681640625,-0.02364354394376278,-0.057251039892435074,-0.5986123085021973
1767708655565899800,12.053899658203125,-0.042561307549476624,0.03790104389190674,-0.6746295690536499
1767708655575900000,12.06389990234375,-0.06274034827947617,0.10582496970891953,-0.6966166496276855
1767708655585900800,12.07390087890625,-0.04619545862078667,0.15572914481163025,-0.6758708357810974
1767708655595900700,12.083900634765625,-0.015086274594068527,0.20915162563323975,-0.6426958441734314
1767708655605900800,12.09390087890625,0.02461799420416355,0.24303396046161652,-0.6097160577774048
1767708655615901700,12.103901611328125,0.035656798630952835,0.29216501116752625,-0.5901812314987183
1767708655625901800,12.11390185546875,0.037027791142463684,0.3394169509410858,-0.5857201814651489
1767708655635903000,12.123903076171874,0.03578569367527962,0.3604508638381958,-0.585936963558197
1767708655645902800,12.13390283203125,0.04132320359349251,0.3441235423088074,-0.5585759282112122
1767708655655903700,12.14390380859375,0.057978346943855286,0.29946818947792053,-0.5063830614089966
1767708655665903900,12.15390380859375,0.09562745690345764,0.2231486588716507,-0.4718223810195923
1767708655675904800,12.16390478515625,0.1604088544845581,0.16288691759109497,-0.4347008466720581
1767708655685904600,12.173904541015625,0.2400328367948532,0.08322112262248993,-0.33185598254203796
1767708655695904800,12.18390478515625,0.3048275411128998,-0.024937307462096214,-0.16584409773349762
1767708655705905700,12.19390576171875,0.3440319299697876,-0.13057692348957062,0.034453049302101135
1767708655715905800,12.20390576171875,0.32924047112464905,-0.17780302464962006,0.18079587817192078
1767708655725907000,12.213906982421875,0.24777944386005402,-0.1993863433599472,0.19245360791683197
1767708655735906800,12.22390673828125,0.11245730519294739,-0.21996112167835236,0.04585270956158638
1767708655745907700,12.23390771484375,-0.08187436312437057,-0.28689008951187134,-0.2070746272802353
1767708655755907800,12.243907958984375,-0.3229692578315735,-0.3764322102069855,-0.4347868859767914
1767708655765907700,12.25390771484375,-0.5186751484870911,-0.3828696310520172,-0.541397213935852
1767708655775908600,12.26390869140625,-0.5339549779891968,-0.24010634422302246,-0.49490082263946533
1767708655785908700,12.27390869140625,-0.3256145715713501,-0.045887064188718796,-0.4068093001842499
1767708655795910000,12.283909912109374,-0.07992785423994064,0.05299344286322594,-0.3613472878932953
1767708655805909800,12.29390966796875,-0.034690603613853455,-0.059058260172605515,-0.39150652289390564
1767708655815911000,12.303910888671876,-0.1271217316389084,-0.25046205520629883,-0.4974723756313324
1767708655825910800,12.313910888671876,-0.16682760417461395,-0.22970668971538544,-0.6263999938964844
1767708655835911700,12.32391162109375,-0.26162734627723694,-0.19378039240837097,-0.7293180823326111
1767708655845911800,12.333911865234375,-0.4660601019859314,-0.2225039154291153,-0.7149016261100769
1767708655855911700,12.34391162109375,-0.6275294423103333,-0.2929573059082031,-0.5329451560974121
