time,seconds_elapsed,z,y,x
1767708643579126800,0.067126708984375,0.04469481483101845,-0.02750532515347004,0.05899506434798241
1767708643589127700,0.077127685546875,0.04090194031596184,-0.036393627524375916,0.05771169066429138
1767708643599127800,0.0871279296875,0.04115919768810272,-0.04693163186311722,0.06839277595281601
1767708643609129000,0.09712890625,0.03415375202894211,-0.054552268236875534,0.08282604068517685
1767708643619128800,0.10712890625,0.021684587001800537,-0.06756465882062912,0.09479792416095734
1767708643629129000,0.11712890625,0.008477972820401192,-0.08153693377971649,0.10118365287780762
1767708643639129900,0.1271298828125,-0.009410189464688301,-0.09817707538604736,0.10909581184387207
1767708643649130000,0.1371298828125,-0.026534315198659897,-0.11157117784023285,0.12624523043632507
1767708643659131000,0.147130859375,-0.03432806208729744,-0.11531267315149307,0.15131185948848724
1767708643669130800,0.157130859375,-0.03709482029080391,-0.10489758104085922,0.1874813288450241
1767708643679131600,0.167131591796875,-0.03148433938622475,-0.07304217666387558,0.21017785370349884
1767708643689131800,0.1771318359375,-0.024800121784210205,-0.01869882643222809,0.2114458978176117
1767708643699132000,0.1871318359375,-0.021781427785754204,0.033317502588033676,0.20402394235134125
1767708643709132800,0.1971328125,-0.02242719568312168,0.0542430654168129,0.20893920958042145
1767708643719133000,0.2071328125,-0.01862790249288082,0.03931053727865219,0.22403311729431152
1767708643729133800,0.2171337890625,-0.011596625670790672,-0.007652441971004009,0.2397758662700653
1767708643739134000,0.227134033203125,-0.007128640543669462,-0.05978089198470116,0.240359365940094
1767708643749134800,0.237134765625,-0.01487473864108324,-0.09324773401021957,0.2321496605873108
1767708643759134700,0.247134765625,-0.029767991974949837,-0.11386679112911224,0.22180597484111786
1767708643769134800,0.257134765625,-0.041848357766866684,-0.12238623946905136,0.19795310497283936
1767708643779136000,0.267135986328125,-0.050478287041187286,-0.10892793536186218,0.17305922508239746
1767708643789136000,0.277135986328125,-0.055764127522706985,-0.08190803229808807,0.1550394743680954
1767708643799136800,0.28713671875,-0.061362359672784805,-0.06797410547733307,0.13206864893436432
1767708643809137000,0.297136962890625,-0.07118494808673859,-0.06608092784881592,0.10718169808387756
1767708643819136800,0.30713671875,-0.08681472390890121,-0.07543216645717621,0.08527871966362
1767708643829138000,0.317137939453125,-0.09838482737541199,-0.09861844778060913,0.08423129469156265
1767708643839137800,0.3271376953125,-0.09558185189962387,-0.11748987436294556,0.09798546135425568
1767708643849138700,0.337138671875,-0.10202112048864365,-0.11770882457494736,0.09851627796888351
1767708643859139000,0.34713916015625,-0.10560788959264755,-0.11203772574663162,0.08615333586931229
1767708643869140000,0.357139892578125,-0.10168132930994034,-0.11570437252521515,0.08486436307430267
1767708643879139800,0.367139892578125,-0.09971937537193298,-0.13128013908863068,0.09740865230560303
1767708643889140000,0.377139892578125,-0.10141953080892563,-0.16215863823890686,0.1094231903553009
1767708643899140900,0.387140869140625,-0.10058622807264328,-0.19166380167007446,0.12225589901208878
1767708643909140700,0.397140625,-0.09308063983917236,-0.22104045748710632,0.12677960097789764
1767708643919142000,0.407141845703125,-0.08227244019508362,-0.23797036707401276,0.12245693057775497
1767708643929141800,0.417141845703125,-0.07532265037298203,-0.23147304356098175,0.11445572972297668
1767708643939143000,0.427142822265625,-0.06566949188709259,-0.25059694051742554,0.09988290816545486
1767708643949143000,0.43714306640625,-0.0633900910615921,-0.24938493967056274,0.08192894607782364
1767708643959143000,0.447142822265625,-0.06061752140522003,-0.27023378014564514,0.05190044641494751
1767708643969143800,0.457143798828125,-0.06280343979597092,-0.28206995129585266,0.022382766008377075
1767708643979144000,0.46714404296875,-0.06344067305326462,-0.3040566146373749,-0.004141584970057011
1767708643989144800,0.477144775390625,-0.06236129254102707,-0.3040963113307953,-0.022562935948371887
1767708643999144700,0.487144775390625,-0.05406504124403,-0.3055262565612793,-0.0385589674115181
1767708644009144800,0.497144775390625,-0.03337361291050911,-0.2748250663280487,-0.06588539481163025
1767708644019146000,0.50714599609375,-0.012000129558146,-0.2524467408657074,-0.0959492176771164
1767708644029145900,0.517145751953125,0.019460590556263924,-0.25392982363700867,-0.11800765246152878
1767708644039147000,0.52714697265625,0.052341584116220474,-0.2359919548034668,-0.13336247205734253
1767708644049147000,0.53714697265625,0.09689973294734955,-0.21746939420700073,-0.14445960521697998
1767708644059147800,0.547147705078125,0.15401414036750793,-0.19416333734989166,-0.16933971643447876
1767708644069148000,0.55714794921875,0.21301114559173584,-0.17240585386753082,-0.19186019897460938
1767708644079147800,0.567147705078125,0.26744991540908813,-0.1492379754781723,-0.2094925045967102
1767708644089148700,0.577148681640625,0.3160046637058258,-0.13459645211696625,-0.22230549156665802
1767708644099148800,0.587148681640625,0.35511496663093567,-0.11189578473567963,-0.23357273638248444
1767708644109149700,0.597149658203125,0.3910601735115051,-0.09029781073331833,-0.25442394614219666
1767708644119149600,0.607149658203125,0.42149168252944946,-0.0394793264567852,-0.2812965214252472
1767708644129149700,0.617149658203125,0.4473557770252228,0.03880429267883301,-0.30340448021888733
1767708644139150800,0.62715087890625,0.4663209021091461,0.11083294451236725,-0.3192196190357208
1767708644149151000,0.63715087890625,0.4758678078651428,0.1870419681072235,-0.3358105719089508
1767708644159151900,0.64715185546875,0.48201197385787964,0.24789798259735107,-0.34432923793792725
1767708644169151700,0.65715185546875,0.4835302531719208,0.25660383701324463,-0.3447878360748291
1767708644179152600,0.667152587890625,0.4840115010738373,0.2434355765581131,-0.3533805310726166
1767708644189152800,0.67715283203125,0.481715589761734,0.1916537582874298,-0.37667223811149597
1767708644199152600,0.687152587890625,0.46473366022109985,0.134069561958313,-0.40126681327819824
1767708644209153500,0.697153564453125,0.43616220355033875,0.06367301940917969,-0.4293927550315857
1767708644219154000,0.70715380859375,0.41108667850494385,0.012747515924274921,-0.48663607239723206
1767708644229154800,0.71715478515625,0.409287691116333,-0.02857261896133423,-0.5775221586227417
1767708644239154700,0.72715478515625,0.415231317281723,-0.042681511491537094,-0.6725815534591675
1767708644249155800,0.73715576171875,0.4204162657260895,-0.057410575449466705,-0.7539784908294678
1767708644259155700,0.74715576171875,0.41405245661735535,-0.08325768262147903,-0.8312216401100159
1767708644269155800,0.75715576171875,0.4037090241909027,-0.09531940519809723,-0.8978525996208191
1767708644279156700,0.76715673828125,0.40228450298309326,-0.08629874885082245,-0.9410887956619263
1767708644289156600,0.777156494140625,0.40132594108581543,-0.08266850560903549,-0.9661465883255005
1767708644299157800,0.78715771484375,0.3861858546733856,-0.0852845311164856,-0.9683655500411987
1767708644309158000,0.797157958984375,0.3665439486503601,-0.09983838349580765,-0.9388501048088074
1767708644319157800,0.80715771484375,0.3477894365787506,-0.10448239743709564,-0.8732863068580627
1767708644329158700,0.81715869140625,0.3456682860851288,-0.0759783610701561,-0.78194260597229
1767708644339158800,0.82715869140625,0.34578385949134827,-0.04669344052672386,-0.6845524311065674
1767708644349159700,0.83715966796875,0.34331345558166504,0.0057187750935554504,-0.583699643611908
1767708644359159800,0.847159912109375,0.3232097923755646,0.08033107966184616,-0.48326733708381653
1767708644369160700,0.85716064453125,0.29170486330986023,0.11646245419979095,-0.36836153268814087
1767708644379160800,0.867160888671875,0.2533910274505615,0.13787400722503662,-0.2611328065395355
1767708644389161000,0.877160888671875,0.22944499552249908,0.12389273941516876,-0.1828468292951584
1767708644399161900,0.887161865234375,0.21360823512077332,0.08359511941671371,-0.1333988606929779
1767708644409161700,0.89716162109375,0.21305590867996216,0.028251802548766136,-0.1021372377872467
1767708644419162600,0.90716259765625,0.23202985525131226,-0.023316582664847374,-0.07810913026332855
1767708644429162800,0.917162841796875,0.2524847984313965,-0.08034567534923553,-0.051693663001060486
1767708644439163600,0.92716357421875,0.24232244491577148,-0.15367470681667328,-0.021075613796710968
1767708644449163800,0.937163818359375,0.20771679282188416,-0.21131829917430878,0.008614901453256607
1767708644459163600,0.94716357421875,0.16877923905849457,-0.23394617438316345,0.024327488616108894
1767708644469164800,0.957164794921875,0.13702823221683502,-0.2257484346628189,0.025825515389442444
1767708644479165000,0.9671650390625,0.09620990604162216,-0.18954172730445862,0.025646792724728584
1767708644489165800,0.977165771484375,0.05621109530329704,-0.16890382766723633,0.029263364151120186
1767708644499165700,0.987165771484375,0.03138330206274986,-0.15159253776073456,0.045773666352033615
1767708644509165800,0.997165771484375,0.010787746869027615,-0.1376551389694214,0.07054585218429565
1767708644519166700,1.007166748046875,-0.006941759958863258,-0.13400477170944214,0.10912998020648956
1767708644529166600,1.01716650390625,-0.017378157004714012,-0.1477797031402588,0.15616007149219513
1767708644539168000,1.02716796875,-0.02770724892616272,-0.1645030975341797,0.20760363340377808
1767708644549167900,1.03716796875,-0.0386672206223011,-0.15906040370464325,0.26585736870765686
1767708644559168800,1.047168701171875,-0.07377192378044128,-0.14671537280082703,0.3123558461666107
1767708644569169000,1.0571689453125,-0.11306951940059662,-0.14397470653057098,0.34615054726600647
1767708644579168800,1.067168701171875,-0.1555408090353012,-0.22115802764892578,0.3779117465019226
1767708644589169700,1.077169677734375,-0.20212535560131073,-0.29274511337280273,0.4364922344684601
1767708644599169800,1.087169677734375,-0.23789747059345245,-0.32101666927337646,0.5014913082122803
1767708644609170700,1.097170654296875,-0.27142268419265747,-0.3053831160068512,0.5509962439537048
1767708644619170600,1.107170654296875,-0.302318811416626,-0.2740286588668823,0.569290041923523
1767708644629172000,1.117171875,-0.3363126814365387,-0.24056226015090942,0.5732614398002625
1767708644639171800,1.127171875,-0.36308199167251587,-0.21973048150539398,0.5634247660636902
1767708644649171700,1.137171630859375,-0.39081162214279175,-0.21195514500141144,0.5545353293418884
1767708644659172900,1.1471728515625,-0.4009993076324463,-0.2266409546136856,0.5591834187507629
1767708644669172700,1.1571728515625,-0.41355717182159424,-0.27082812786102295,0.586071789264679
1767708644679173600,1.167173583984375,-0.4351311922073364,-0.283041387796402,0.6303465962409973
1767708644689173800,1.177173828125,-0.46649473905563354,-0.2664298117160797,0.6709383130073547
1767708644699173600,1.187173583984375,-0.47833487391471863,-0.22676841914653778,0.6905463337898254
1767708644709174800,1.1971748046875,-0.47645437717437744,-0.17388837039470673,0.7025727033615112
1767708644719175000,1.2071748046875,-0.47107505798339844,-0.12975206971168518,0.7217740416526794
1767708644729175800,1.21717578125,-0.46714478731155396,-0.060701608657836914,0.7621405124664307
1767708644739175700,1.22717578125,-0.4607289433479309,0.03364194184541702,0.8086102604866028
1767708644749176800,1.2371767578125,-0.42780476808547974,0.18205511569976807,0.8358556628227234
1767708644759176700,1.2471767578125,-0.3720320463180542,0.344015508890152,0.8306412100791931
1767708644769176800,1.2571767578125,-0.32221361994743347,0.3945271670818329,0.7808563113212585
1767708644779177700,1.267177734375,-0.30064520239830017,0.34304800629615784,0.700124979019165
1767708644789177600,1.277177490234375,-0.28195324540138245,0.2761460244655609,0.6261445879936218
1767708644799178800,1.2871787109375,-0.2477409690618515,0.2100817859172821,0.5668703317642212
1767708644809179000,1.297178955078125,-0.2157578021287918,0.12326144427061081,0.5240933895111084
1767708644819178800,1.3071787109375,-0.1941787451505661,0.0226576067507267,0.48880305886268616
1767708644829179600,1.3171796875,-0.17142386734485626,-0.027188921347260475,0.46296361088752747
1767708644839179800,1.3271796875,-0.14500051736831665,-0.007328396663069725,0.4625726640224457
1767708644849180700,1.3371806640625,-0.13395586609840393,0.028079187497496605,0.5040251612663269
1767708644859180800,1.347180908203125,-0.16233137249946594,0.03476673364639282,0.5519384145736694
1767708644869182000,1.357181884765625,-0.21102434396743774,0.00024337554350495338,0.5899845957756042
1767708644879181800,1.367181884765625,-0.2568991184234619,-0.016030829399824142,0.6086997389793396
1767708644889182000,1.377181884765625,-0.27483871579170227,0.01977537013590336,0.6048296093940735
1767708644899182800,1.387182861328125,-0.2594703435897827,0.06469187140464783,0.6112806797027588
1767708644909182700,1.3971826171875,-0.23087041079998016,0.07788784056901932,0.6238343119621277
1767708644919183600,1.40718359375,-0.2060766965150833,0.05469350889325142,0.6297052502632141
1767708644929183700,1.417183837890625,-0.19681581854820251,0.03918112814426422,0.6323239803314209
1767708644939184600,1.4271845703125,-0.21255050599575043,0.031513601541519165,0.6351932287216187
1767708644949184800,1.437184814453125,-0.233073890209198,0.013448048382997513,0.622162938117981
1767708644959185000,1.447184814453125,-0.2510608732700348,-0.0045701609924435616,0.5801101922988892
1767708644969185800,1.457185791015625,-0.2617010176181793,-0.018935784697532654,0.5107039213180542
1767708644979186000,1.46718603515625,-0.2573818862438202,-0.027122875675559044,0.43433091044425964
1767708644989186800,1.477186767578125,-0.25745272636413574,-0.03871721401810646,0.3835790455341339
1767708644999186700,1.487186767578125,-0.25459009408950806,-0.03679664060473442,0.3597375154495239
1767708645009186800,1.497186767578125,-0.25010374188423157,-0.019303137436509132,0.33783966302871704
1767708645019187700,1.507187744140625,-0.23652803897857666,0.008072356693446636,0.32052552700042725
1767708645029187600,1.5171875,-0.22657181322574615,0.012141400016844273,0.29237326979637146
1767708645039188700,1.527188720703125,-0.21511590480804443,0.004923331085592508,0.2584311068058014
1767708645049188900,1.53718896484375,-0.2053961604833603,-0.025206606835126877,0.22465449571609497
1767708645059189800,1.547189697265625,-0.19969730079174042,-0.07267726957798004,0.20375382900238037
1767708645069190000,1.55718994140625,-0.19395019114017487,-0.09619138389825821,0.19910076260566711
1767708645079189800,1.567189697265625,-0.1799667477607727,-0.08580419421195984,0.19926121830940247
1767708645089190700,1.577190673828125,-0.16744430363178253,-0.06939087063074112,0.171352356672287
1767708645099190800,1.587190673828125,-0.15439960360527039,-0.05702634155750275,0.14634661376476288
1767708645109191700,1.597191650390625,-0.1476585865020752,-0.053872257471084595,0.13943998515605927
1767708645119191800,1.60719189453125,-0.14433495700359344,-0.05023730918765068,0.133372500538826
1767708645129192000,1.61719189453125,-0.1510392278432846,-0.06156899780035019,0.12027576565742493
1767708645139192800,1.62719287109375,-0.15148185193538666,-0.049507543444633484,0.12784606218338013
1767708645149192700,1.637192626953125,-0.12860822677612305,-0.01807638257741928,0.16665524244308472
1767708645159193900,1.64719384765625,-0.09504147619009018,-0.007202696055173874,0.20829056203365326
1767708645169193700,1.65719384765625,-0.04813528433442116,0.009971125982701778,0.23624317348003387
1767708645179194600,1.667194580078125,0.0015933908289298415,0.029034297913312912,0.24286486208438873
1767708645189194800,1.67719482421875,0.04725892096757889,0.038986414670944214,0.2450728565454483
1767708645199194600,1.687194580078125,0.08878026902675629,0.02679792232811451,0.24190662801265717
1767708645209195800,1.69719580078125,0.1415659785270691,0.008174559101462364,0.230858713388443
1767708645219196000,1.70719580078125,0.20022262632846832,0.0016828381922096014,0.2219776064157486
1767708645229196800,1.71719677734375,0.2372710406780243,-0.0030817841179668903,0.21655414998531342
1767708645239196700,1.72719677734375,0.27693936228752136,-0.015087846666574478,0.20659631490707397
1767708645249197800,1.73719775390625,0.30402812361717224,-0.028245458379387856,0.1866302192211151
1767708645259197700,1.74719775390625,0.31693407893180847,-0.006360932253301144,0.16013416647911072
1767708645269197800,1.75719775390625,0.3223784565925598,0.06261643767356873,0.14346125721931458
1767708645279199000,1.767198974609375,0.300216406583786,0.17199112474918365,0.1382470577955246
1767708645289198800,1.77719873046875,0.2635901868343353,0.241559237241745,0.15468108654022217
1767708645299199700,1.78719970703125,0.22928495705127716,0.23557297885417938,0.20926524698734283
1767708645309200000,1.797199951171875,0.20313000679016113,0.20568057894706726,0.32030928134918213
1767708645319199700,1.80719970703125,0.13195303082466125,0.18711967766284943,0.44109296798706055
1767708645329200600,1.81720068359375,0.0384603850543499,0.10547548532485962,0.49062010645866394
1767708645339200800,1.82720068359375,-0.00883153360337019,-0.02912520430982113,0.46786612272262573
1767708645349201700,1.83720166015625,-0.02847740426659584,-0.14907237887382507,0.45430558919906616
1767708645359201800,1.847201904296875,-0.0490279421210289,-0.1995972841978073,0.44248855113983154
1767708645369203000,1.857202880859375,-0.060137320309877396,-0.1889454424381256,0.4098901152610779
1767708645379202800,1.867202880859375,-0.06369980424642563,-0.14796343445777893,0.3215482532978058
1767708645389203000,1.877202880859375,-0.062036655843257904,-0.10644476115703583,0.19230957329273224
1767708645399203800,1.887203857421875,-0.02409728243947029,-0.02789846993982792,0.07294908165931702
1767708645409203700,1.89720361328125,0.05142304301261902,0.08527202904224396,0.012512639164924622
1767708645419204600,1.90720458984375,0.10585220158100128,0.16442252695560455,0.02018611691892147
1767708645429204700,1.917204833984375,0.12513402104377747,0.21710304915905,0.04515698179602623
1767708645439204600,1.92720458984375,0.13928818702697754,0.25621646642684937,0.06150926649570465
1767708645449205800,1.937205810546875,0.15690873563289642,0.25938138365745544,0.06720257550477982
1767708645459206000,1.947205810546875,0.16651131212711334,0.23107731342315674,0.07553871721029282
1767708645469206800,1.957206787109375,0.16441354155540466,0.18163679540157318,0.09333555400371552
1767708645479207000,1.96720703125,0.15780594944953918,0.10270897299051285,0.11372597515583038
1767708645489207800,1.977207763671875,0.14594635367393494,0.016806049272418022,0.12629848718643188
1767708645499207700,1.987207763671875,0.13788683712482452,-0.05462220683693886,0.12817223370075226
1767708645509207800,1.997207763671875,0.12793166935443878,-0.09204041212797165,0.11297784000635147
1767708645519208700,2.007208740234375,0.11632215976715088,-0.09711771458387375,0.08452153950929642
1767708645529208600,2.01720849609375,0.09569384902715683,-0.09517733752727509,0.0510844886302948
1767708645539209700,2.027209716796875,0.08572347462177277,-0.08066851645708084,0.013021349906921387
1767708645549209900,2.0372099609375,0.07161351293325424,-0.05504224821925163,-0.014582314528524876
1767708645559210800,2.047210693359375,0.05758160725235939,-0.02731349505484104,-0.03706178069114685
1767708645569211000,2.0572109375,0.04092593118548393,-0.01689920388162136,-0.06150667369365692
1767708645579210800,2.067210693359375,0.03369304910302162,-0.003327735001221299,-0.08438695222139359
1767708645589211600,2.077211669921875,0.02953188493847847,0.010468177497386932,-0.09183462709188461
1767708645599211800,2.087211669921875,0.02375841699540615,0.019323719665408134,-0.08228932321071625
1767708645609213000,2.097212890625,0.020513612776994705,0.02532658725976944,-0.06836622208356857
1767708645619212800,2.107212890625,0.02144891396164894,0.02979430742561817,-0.0566863939166069
1767708645629213700,2.117213623046875,0.024940291419625282,0.017509983852505684,-0.046324264258146286
1767708645639213800,2.1272138671875,0.034402500838041306,0.000576274236664176,-0.031223874539136887
1767708645649213700,2.137213623046875,0.04149239510297775,-0.01059119962155819,-0.012137036770582199
1767708645659214800,2.14721484375,0.045708443969488144,-0.01780650205910206,0.0027846544981002808
1767708645669214700,2.157214599609375,0.05228136479854584,-0.020631419494748116,0.009941082447767258
1767708645679215600,2.167215576171875,0.052442219108343124,-0.018651094287633896,0.012812236323952675
1767708645689215700,2.1772158203125,0.04861614108085632,-0.010807940736413002,0.010433393530547619
1767708645699215600,2.187215576171875,0.03631260246038437,-0.00610053725540638,-0.0010935664176940918
1767708645709216800,2.197216796875,0.02366361767053604,-0.005237651523202658,-0.012648031115531921
1767708645719217000,2.207216796875,0.015938319265842438,-0.0035505390260368586,-0.019573315978050232
1767708645729217800,2.2172177734375,0.012700671330094337,0.004170619882643223,-0.023188797757029533
1767708645739217700,2.2272177734375,0.010445507243275642,0.001280557131394744,-0.03105337731540203
1767708645749218800,2.23721875,0.014344383962452412,0.008831849321722984,-0.04285208135843277
1767708645759218700,2.24721875,0.020300542935729027,0.01988130249083042,-0.05849362537264824
1767708645769218600,2.257218505859375,0.02306467294692993,0.029068121686577797,-0.07305704802274704
1767708645779220000,2.267219970703125,0.031687188893556595,0.038873616605997086,-0.08748552203178406
1767708645789219800,2.2772197265625,0.04013581946492195,0.04622811824083328,-0.09567180275917053
1767708645799220700,2.287220703125,0.04618785157799721,0.04791096970438957,-0.10730209201574326
1767708645809220900,2.297220947265625,0.05240920931100845,0.04521914944052696,-0.1260891705751419
1767708645819221800,2.3072216796875,0.059403736144304276,0.020631516352295876,-0.14434674382209778
1767708645829221600,2.3172216796875,0.0708569809794426,-0.01593911461532116,-0.15905024111270905
1767708645839221800,2.3272216796875,0.08890838176012039,-0.04842474311590195,-0.1703845113515854
1767708645849222700,2.33722265625,0.10300476104021072,-0.08705122768878937,-0.18175487220287323
1767708645859222500,2.347222412109375,0.11970467865467072,-0.13104359805583954,-0.2024989128112793
1767708645869224000,2.357223876953125,0.14718636870384216,-0.16652515530586243,-0.25003233551979065
1767708645879223800,2.367223876953125,0.17392073571681976,-0.19577240943908691,-0.31794050335884094
1767708645889224700,2.377224609375,0.21123668551445007,-0.20343272387981415,-0.38698455691337585
1767708645899224800,2.387224853515625,0.24224914610385895,-0.19892270863056183,-0.4615212678909302
1767708645909224700,2.397224609375,0.25300484895706177,-0.2252160906791687,-0.5324644446372986
1767708645919225600,2.4072255859375,0.23563867807388306,-0.26084575057029724,-0.5964640974998474
1767708645929225700,2.417225830078125,0.21510598063468933,-0.30093616247177124,-0.6684719920158386
1767708645939227000,2.427226806640625,0.19891025125980377,-0.3628179132938385,-0.7457817792892456
1767708645949226800,2.437226806640625,0.1772017627954483,-0.4246272146701813,-0.8198557496070862
1767708645959227000,2.447226806640625,0.15526318550109863,-0.4917844831943512,-0.8712283372879028
1767708645969227800,2.457227783203125,0.12875781953334808,-0.5212079286575317,-0.8954916000366211
1767708645979228000,2.467227783203125,0.11437808722257614,-0.48251867294311523,-0.890511691570282
1767708645989228800,2.477228759765625,0.10548712313175201,-0.398628830909729,-0.8458635210990906
1767708645999228700,2.487228759765625,0.0835098922252655,-0.3115634024143219,-0.7787888050079346
1767708646009229600,2.4972294921875,0.03640284016728401,-0.24392922222614288,-0.7333803176879883
1767708646019229700,2.507229736328125,-0.01624014973640442,-0.19585976004600525,-0.7222006320953369
1767708646029229800,2.517229736328125,-0.06100788712501526,-0.17036372423171997,-0.7230768203735352
1767708646039230700,2.527230712890625,-0.07583396881818771,-0.15590594708919525,-0.7095194458961487
1767708646049230800,2.53723095703125,-0.05762479454278946,-0.1605936735868454,-0.6727529764175415
1767708646059231700,2.547231689453125,-0.015227539464831352,-0.18075406551361084,-0.6207238435745239
1767708646069231900,2.55723193359375,0.033296823501586914,-0.22295193374156952,-0.5552046298980713
1767708646079232800,2.567232666015625,0.08414216339588165,-0.2681726813316345,-0.48864269256591797
1767708646089232100,2.577232177734375,0.14083656668663025,-0.2928553819656372,-0.41120532155036926
1767708646099232300,2.587232177734375,0.19033381342887878,-0.27928364276885986,-0.34063130617141724
1767708646109233200,2.597233154296875,0.22417008876800537,-0.24908038973808289,-0.2897634208202362
1767708646119233000,2.60723291015625,0.24373313784599304,-0.21856242418289185,-0.2666413187980652
1767708646129234400,2.617234375,0.2569515109062195,-0.17499080300331116,-0.2579282522201538
1767708646139234300,2.627234375,0.2583045959472656,-0.12165173143148422,-0.25031372904777527
1767708646149235200,2.637235107421875,0.2490444928407669,-0.06842207163572311,-0.23621946573257446
1767708646159235300,2.6472353515625,0.2445802390575409,0.0026158872060477734,-0.23279064893722534
1767708646169235200,2.657235107421875,0.24782432615756989,0.10265953838825226,-0.2369452863931656
1767708646179236000,2.667236083984375,0.2488563060760498,0.20404048264026642,-0.23500756919384003
1767708646189236200,2.677236328125,0.24256347119808197,0.25604748725891113,-0.22511757910251617
1767708646199237000,2.687237060546875,0.21455207467079163,0.2859281599521637,-0.21496213972568512
1767708646209237200,2.6972373046875,0.172780379652977,0.2894243001937866,-0.20957447588443756
1767708646219237400,2.7072373046875,0.1314300149679184,0.30989521741867065,-0.20789988338947296
1767708646229238300,2.71723828125,0.09885375946760178,0.35876548290252686,-0.20892302691936493
1767708646239238100,2.727238037109375,0.07195822894573212,0.41316428780555725,-0.21019256114959717
1767708646249239300,2.7372392578125,0.053713951259851456,0.4437626004219055,-0.20472222566604614
1767708646259239200,2.7472392578125,0.03291839361190796,0.47470319271087646,-0.17592759430408478
1767708646269240000,2.757239990234375,0.01859372667968273,0.5056750178337097,-0.13762594759464264
1767708646279240200,2.767240234375,-0.008208592422306538,0.5239714980125427,-0.10639238357543945
1767708646289240000,2.777239990234375,-0.03179771825671196,0.5439544916152954,-0.08432361483573914
1767708646299241200,2.7872412109375,-0.04959806427359581,0.5717969536781311,-0.07209089398384094
1767708646309241300,2.797241455078125,-0.06913075596094131,0.5922402143478394,-0.06131282076239586
1767708646319242200,2.8072421875,-0.0855422243475914,0.5888635516166687,-0.058462973684072495
1767708646329242000,2.8172421875,-0.09104937314987183,0.5739003419876099,-0.05692819133400917
1767708646339243300,2.8272431640625,-0.08296032249927521,0.5529098510742188,-0.046211279928684235
1767708646349243100,2.8372431640625,-0.06731132417917252,0.529511570930481,-0.02458534948527813
1767708646359243300,2.8472431640625,-0.05739336088299751,0.5037551522254944,0.000053046271204948425
1767708646369244400,2.857244384765625,-0.04112038016319275,0.4687495529651642,0.021071776747703552
1767708646379244300,2.867244384765625,-0.03822449967265129,0.42730677127838135,0.04418729618191719
1767708646389245200,2.8772451171875,-0.06011515110731125,0.37826305627822876,0.08243828266859055
1767708646399245300,2.887245361328125,-0.09520172327756882,0.3105263411998749,0.1289369910955429
1767708646409246200,2.89724609375,-0.13974708318710327,0.22245322167873383,0.1747092753648758
1767708646419246000,2.90724609375,-0.17923030257225037,0.13187198340892792,0.20321236550807953
1767708646429246200,2.91724609375,-0.21385644376277924,0.03960090130567551,0.2156463861465454
1767708646439247000,2.9272470703125,-0.23538362979888916,-0.047644149512052536,0.21882398426532745
1767708646449247200,2.937247314453125,-0.23852375149726868,-0.0860368087887764,0.2191355675458908
1767708646459248400,2.947248291015625,-0.21003639698028564,-0.0643191859126091,0.22624284029006958
1767708646469248300,2.957248291015625,-0.14062589406967163,0.006370159797370434,0.2383652925491333
1767708646479249200,2.967249267578125,-0.040463849902153015,0.10284148901700974,0.2767859101295471
1767708646489249300,2.977249267578125,0.041599858552217484,0.12679849565029144,0.31510162353515625
1767708646499249200,2.987249267578125,0.08038128912448883,0.07810310274362564,0.30366119742393494
1767708646509250000,2.99725,0.09612083435058594,-0.008216870948672295,0.2289733737707138
1767708646519250200,3.007250244140625,0.13051874935626984,-0.07718315720558167,0.1243090033531189
1767708646529251300,3.017251220703125,0.16173067688941956,-0.1268688589334488,0.033861469477415085
1767708646539251200,3.027251220703125,0.1392994076013565,-0.13927999138832092,0.016692867502570152
1767708646549252400,3.03725244140625,-0.0033476585522294044,-0.10908998548984528,0.10819296538829803
1767708646559252200,3.047252197265625,-0.1889641135931015,-0.13115720450878143,0.25975504517555237
1767708646569252400,3.05725244140625,-0.2965066134929657,-0.1654599905014038,0.38510367274284363
1767708646579253200,3.067253173828125,-0.354878306388855,-0.11938251554965973,0.4476589560508728
1767708646589253000,3.077253173828125,-0.3743401765823364,-0.010044699534773827,0.45087671279907227
1767708646599254000,3.08725390625,-0.3446912169456482,0.1040528416633606,0.4197739362716675
1767708646609254100,3.097254150390625,-0.3027171194553375,0.19935178756713867,0.3813955783843994
1767708646619255300,3.10725537109375,-0.26553407311439514,0.24666523933410645,0.31071528792381287
1767708646629255200,3.117255126953125,-0.2466905564069748,0.21455608308315277,0.2110799103975296
1767708646639255300,3.12725537109375,-0.2608377933502197,0.17808941006660461,0.1143358051776886
1767708646649256200,3.137256103515625,-0.3019714653491974,0.16348682343959808,0.029374951496720314
1767708646659256300,3.14725634765625,-0.3499424159526825,0.1652841717004776,-0.06022622436285019
1767708646669257200,3.15725732421875,-0.39570140838623047,0.201346293091774,-0.1425946056842804
1767708646679257000,3.167257080078125,-0.41894200444221497,0.2593741714954376,-0.19975750148296356
1767708646689258200,3.17725830078125,-0.4105471968650818,0.29493963718414307,-0.2179330438375473
1767708646699258400,3.18725830078125,-0.39806413650512695,0.3155018985271454,-0.20437808334827423
1767708646709259300,3.19725927734375,-0.39148908853530884,0.3495875298976898,-0.17035254836082458
1767708646719259100,3.207259033203125,-0.39131227135658264,0.4011921286582947,-0.13924123346805573
1767708646729259300,3.21725927734375,-0.38920271396636963,0.4641075134277344,-0.12500424683094025
1767708646739260200,3.22726025390625,-0.38161778450012207,0.4824947714805603,-0.1283784806728363
1767708646749260300,3.23726025390625,-0.3823632001876831,0.4780161678791046,-0.12600789964199066
1767708646759261200,3.24726123046875,-0.3821248412132263,0.4582751989364624,-0.115159772336483
1767708646769261000,3.257260986328125,-0.3833637535572052,0.40378737449645996,-0.12331917881965637
1767708646779261200,3.26726123046875,-0.3843427002429962,0.3676981031894684,-0.1614132672548294
1767708646789262300,3.277262451171875,-0.36832910776138306,0.3693031668663025,-0.2258407324552536
1767708646799262200,3.28726220703125,-0.3275598883628845,0.40621328353881836,-0.2992010712623596
1767708646809263000,3.29726318359375,-0.2672739028930664,0.41117793321609497,-0.35486164689064026
1767708646819263200,3.30726318359375,-0.1997113972902298,0.3795381784439087,-0.3657742738723755
1767708646829264100,3.31726416015625,-0.14077350497245789,0.32980579137802124,-0.3292247951030731
1767708646839264300,3.32726416015625,-0.09564806520938873,0.26901501417160034,-0.26543766260147095
1767708646849265400,3.337265380859375,-0.07627969235181808,0.1920216828584671,-0.19982139766216278
1767708646859265300,3.347265380859375,-0.07290763407945633,0.14281198382377625,-0.14054866135120392
1767708646869265400,3.357265380859375,-0.07653272897005081,0.1346171647310257,-0.07549562305212021
1767708646879266300,3.367266357421875,-0.08315332233905792,0.1433449387550354,-0.009197233244776726
1767708646889266200,3.37726611328125,-0.09552477300167084,0.15991619229316711,0.034261029213666916
1767708646899267000,3.38726708984375,-0.11298152059316635,0.196498841047287,0.05284648388624191
1767708646909267200,3.39726708984375,-0.12238753587007523,0.22764691710472107,0.053641706705093384
1767708646919268000,3.40726806640625,-0.125049889087677,0.25265926122665405,0.03965170681476593
1767708646929268200,3.417268310546875,-0.12544003129005432,0.26127538084983826,0.014651019126176834
1767708646939268000,3.42726806640625,-0.11904153972864151,0.2556520700454712,-0.019152818247675896
1767708646949269200,3.437269287109375,-0.09076276421546936,0.2555362284183502,-0.09358017891645432
1767708646959269400,3.447269287109375,-0.03742581978440285,0.2516593337059021,-0.19907595217227936
1767708646969270300,3.457270263671875,0.03469817712903023,0.2342563420534134,-0.30559679865837097
1767708646979270100,3.467270263671875,0.13160954415798187,0.17070773243904114,-0.3884141743183136
1767708646989271000,3.47727099609375,0.24115712940692902,0.07267602533102036,-0.4324013590812683
1767708646999271200,3.487271240234375,0.3583069443702698,-0.026040691882371902,-0.4273826479911804
1767708647009271000,3.49727099609375,0.4470285177230835,-0.1270054578781128,-0.38678494095802307
1767708647019272400,3.5072724609375,0.46252545714378357,-0.1668625771999359,-0.3316359221935272
1767708647029272300,3.517272216796875,0.41011470556259155,-0.1930214762687683,-0.2783668637275696
1767708647039273200,3.527273193359375,0.2962890863418579,-0.2107139229774475,-0.2929830849170685
1767708647049273300,3.5372734375,0.08977698534727097,-0.21332404017448425,-0.411588579416275
1767708647059274200,3.547274169921875,-0.09739183634519577,-0.27435383200645447,-0.5989435315132141
1767708647069274000,3.557274169921875,-0.21628183126449585,-0.33705008029937744,-0.7774544954299927
1767708647079274200,3.567274169921875,-0.25463560223579407,-0.359719455242157,-0.8707442283630371
1767708647089275600,3.577275634765625,-0.16316424310207367,-0.32201269268989563,-0.8806617259979248
1767708647099275500,3.587275634765625,-0.009218884631991386,-0.1599164605140686,-0.7724739909172058
1767708647109276400,3.5972763671875,0.15411488711833954,-0.0041713230311870575,-0.5967978835105896
1767708647119276800,3.60727685546875,0.24616731703281403,0.08402751386165619,-0.39667195081710815
1767708647129277700,3.617277587890625,0.241002157330513,0.06400707364082336,-0.23782585561275482
1767708647139277800,3.62727783203125,0.15700897574424744,-0.10670527815818787,-0.18164780735969543
1767708647149278700,3.63727880859375,0.046800464391708374,-0.23860590159893036,-0.22159665822982788
1767708647159278600,3.647278564453125,-0.061605192720890045,-0.28987210988998413,-0.24227721989154816
1767708647169278700,3.65727880859375,-0.15324430167675018,-0.3011695146560669,-0.13676810264587402
1767708647179279600,3.667279541015625,-0.1993635892868042,-0.38549691438674927,0.00016604363918304443
1767708647189279500,3.677279541015625,-0.16028860211372375,-0.5362159013748169,0.0143722640350461
1767708647199280600,3.68728076171875,-0.02210196666419506,-0.60538649559021,-0.015781110152602196
1767708647209280800,3.69728076171875,0.1737930029630661,-0.5711868405342102,0.0049890149384737015
1767708647219281700,3.70728173828125,0.36844080686569214,-0.5014133453369141,0.04191400855779648
1767708647229281500,3.717281494140625,0.48816272616386414,-0.4649049639701843,0.05311961472034454
1767708647239281700,3.72728173828125,0.4719134569168091,-0.4182959198951721,-0.011320624500513077
1767708647249282600,3.737282470703125,0.3908297121524811,-0.3233516812324524,-0.11724524945020676
1767708647259282700,3.74728271484375,0.33160239458084106,-0.20890402793884277,-0.15670537948608398
1767708647269283600,3.75728369140625,0.23292160034179688,-0.10943762212991714,-0.09714671224355698
1767708647279283700,3.76728369140625,0.12426857650279999,-0.06854654103517532,-0.03388100862503052
1767708647289284600,3.77728466796875,0.06421110033988953,-0.07329149544239044,-0.011033216491341591
1767708647299284700,3.78728466796875,0.014381169341504574,-0.07812916487455368,-0.005593318957835436
1767708647309284600,3.79728466796875,-0.038717735558748245,-0.07839149236679077,0.009386163204908371
1767708647319285500,3.807285400390625,-0.09359533339738846,-0.07422301173210144,0.0348886139690876
1767708647329285600,3.81728564453125,-0.1293029934167862,-0.05735534802079201,0.05829433724284172
1767708647339286500,3.82728662109375,-0.13763463497161865,-0.07450354099273682,0.09238342195749283
1767708647349286700,3.83728662109375,-0.11952435225248337,-0.09953832626342773,0.17685995995998383
1767708647359287800,3.847287841796875,-0.08528438955545425,-0.16597245633602142,0.30987200140953064
1767708647369287700,3.85728759765625,-0.04330231621861458,-0.20519575476646423,0.46809545159339905
1767708647379288600,3.86728857421875,0.028297556564211845,-0.187269389629364,0.6151952147483826
1767708647389288700,3.877288818359375,0.14582763612270355,-0.16143698990345,0.7409989833831787
1767708647399288600,3.88728857421875,0.28124281764030457,-0.10537735372781754,0.8335397839546204
1767708647409289500,3.89728955078125,0.4019002616405487,-0.027430089190602303,0.9009065628051758
1767708647419289600,3.90728955078125,0.4690339267253876,0.03115798719227314,0.9342969059944153
1767708647429290500,3.91729052734375,0.4958426356315613,0.07736356556415558,0.9341722726821899
1767708647439291000,3.927290771484375,0.4773518741130829,0.07158224284648895,0.8869417905807495
1767708647449291800,3.937291748046875,0.41590234637260437,0.023589685559272766,0.7880628705024719
1767708647459291600,3.947291748046875,0.32934510707855225,-0.004554068204015493,0.6675918698310852
1767708647469291800,3.957291748046875,0.2422008216381073,-0.0436580553650856,0.547821581363678
1767708647479292700,3.967292724609375,0.15386298298835754,-0.09203863888978958,0.4544287621974945
1767708647489292500,3.97729248046875,0.07012920081615448,-0.061935167759656906,0.40767741203308105
1767708647499293400,3.98729345703125,0.009762533009052277,0.009482556954026222,0.4130178391933441
1767708647509293600,3.99729345703125,-0.0559929758310318,0.06561657786369324,0.43144604563713074
1767708647519294700,4.007294677734375,-0.119561567902565,0.11582887917757034,0.45609918236732483
1767708647529294800,4.017294921875,-0.17552046477794647,0.1363535225391388,0.48824256658554077
1767708647539295700,4.027295654296875,-0.24239963293075562,0.09530461579561234,0.5393185615539551
1767708647549295600,4.037295654296875,-0.3178315758705139,-0.010061134584248066,0.5981954336166382
1767708647559295700,4.047295654296875,-0.3980467915534973,-0.09437495470046997,0.6408874988555908
1767708647569296600,4.057296630859375,-0.46212053298950195,-0.14112764596939087,0.6489480137825012
1767708647579296500,4.067296630859375,-0.4701038897037506,-0.20089270174503326,0.6099795699119568
1767708647589297400,4.07729736328125,-0.4629581570625305,-0.26603707671165466,0.5406109690666199
1767708647599297800,4.0872978515625,-0.4368860721588135,-0.28685128688812256,0.4985508322715759
1767708647609298700,4.097298583984375,-0.36186426877975464,-0.2676544487476349,0.5722829103469849
1767708647619298800,4.107298828125,-0.17047831416130066,-0.24364125728607178,0.8006892204284668
1767708647629298700,4.117298583984375,0.03921122848987579,-0.18867981433868408,1.0834778547286987
1767708647639299600,4.127299560546875,0.23661723732948303,-0.06302202492952347,1.2824844121932983
1767708647649299700,4.1372998046875,0.36291053891181946,0.03019583597779274,1.2329574823379517
1767708647659300600,4.147300537109375,0.4035370647907257,-0.010938016697764397,0.9460442066192627
1767708647669300500,4.157300537109375,0.36650368571281433,-0.06386592984199524,0.5941576361656189
1767708647679301600,4.167301513671875,0.30006179213523865,0.0033157735597342253,0.36775729060173035
1767708647689301800,4.1773017578125,0.2895667850971222,0.10127659887075424,0.24549899995326996
1767708647699302700,4.187302734375,0.32294151186943054,0.16198042035102844,0.17704564332962036
1767708647709302800,4.197302734375,0.35242748260498047,0.11147754639387131,0.1799321323633194
1767708647719302700,4.207302734375,0.35374733805656433,0.030216656625270844,0.22167004644870758
1767708647729303600,4.217303466796875,0.3323083519935608,-0.05639147385954857,0.24310770630836487
1767708647739303700,4.2273037109375,0.3031217157840729,-0.13492070138454437,0.23091886937618256
1767708647749304600,4.2373046875,0.22500452399253845,-0.14849217236042023,0.17268112301826477
1767708647759304700,4.2473046875,0.08877190947532654,-0.07380501925945282,0.12025321274995804
1767708647769305600,4.2573056640625,-0.09546184539794922,-0.004323951434344053,0.14370234310626984
1767708647779305700,4.2673056640625,-0.22860528528690338,0.05381994694471359,0.21390751004219055
1767708647789305600,4.2773056640625,-0.2536610960960388,0.10088013857603073,0.25574442744255066
1767708647799306800,4.287306640625,-0.2229791134595871,0.21751777827739716,0.22585220634937286
1767708647809306600,4.297306640625,-0.17490053176879883,0.3515520393848419,0.18336306512355804
1767708647819307500,4.3073076171875,-0.13661913573741913,0.4445303976535797,0.17451894283294678
1767708647829307600,4.3173076171875,-0.09694363921880722,0.49545347690582275,0.17214393615722656
1767708647839308800,4.327308837890625,-0.03635333105921745,0.5734168887138367,0.12127330899238586
1767708647849308700,4.33730859375,0.01992884837090969,0.6431099772453308,0.03437143936753273
1767708647859309600,4.3473095703125,0.011987924575805664,0.6626095175743103,-0.01874152384698391
1767708647869309700,4.357309814453125,-0.0670831948518753,0.6111367344856262,-0.013128377497196198
1767708647879309600,4.3673095703125,-0.17891651391983032,0.5187829732894897,0.020374774932861328
1767708647889310700,4.377310791015625,-0.26404204964637756,0.44564881920814514,0.04625244438648224
1767708647899310600,4.387310546875,-0.289903461933136,0.3835906684398651,0.05308324098587036
1767708647909311500,4.3973115234375,-0.2601777911186218,0.3229747414588928,0.037944767624139786
1767708647919312000,4.407311767578125,-0.1927039474248886,0.27963924407958984,0.014316139742732048
1767708647929312800,4.417312744140625,-0.1178949847817421,0.25704681873321533,-0.00766421714797616
1767708647939312600,4.427312744140625,-0.035088516771793365,0.2269967645406723,-0.021704401820898056
1767708647949312800,4.437312744140625,0.051545411348342896,0.21231332421302795,-0.03534194082021713
1767708647959313700,4.447313720703125,0.08338509500026703,0.21787799894809723,-0.062914177775383
1767708647969313500,4.4573134765625,0.06522525101900101,0.21383795142173767,-0.11215092241764069
1767708647979314700,4.467314697265625,0.002203679410740733,0.22226738929748535,-0.17381800711154938
1767708647989314600,4.477314453125,-0.07422211021184921,0.24640482664108276,-0.2430214136838913
1767708647999315700,4.487315673828125,-0.1441151648759842,0.29501232504844666,-0.32019850611686707
1767708648009315800,4.49731591796875,-0.2078211009502411,0.3166294991970062,-0.40950921177864075
1767708648019316700,4.507316650390625,-0.2557942271232605,0.30735746026039124,-0.49799275398254395
1767708648029316600,4.517316650390625,-0.24699677526950836,0.2895738184452057,-0.5464391112327576
1767708648039316700,4.527316650390625,-0.2054932862520218,0.27719810605049133,-0.5624105930328369
1767708648049317600,4.537317626953125,-0.17360034584999084,0.2750735282897949,-0.5432114005088806
1767708648059317500,4.5473173828125,-0.13211362063884735,0.3198375403881073,-0.47577160596847534
1767708648069318700,4.557318603515625,-0.12411719560623169,0.3931731879711151,-0.3681335747241974
1767708648079318800,4.56731884765625,-0.09241572767496109,0.4827243685722351,-0.26415151357650757
1767708648089319400,4.5773193359375,0.0028105895034968853,0.5048030018806458,-0.2241436243057251
1767708648099319600,4.587319580078125,0.12131592631340027,0.4385981559753418,-0.22498224675655365
1767708648109319400,4.5973193359375,0.26640525460243225,0.2959934175014496,-0.22193370759487152
1767708648119320300,4.6073203125,0.4176653325557709,0.16486230492591858,-0.20206919312477112
1767708648129320400,4.617320556640625,0.535444438457489,0.015696486458182335,-0.17575666308403015
1767708648139321300,4.6273212890625,0.5951471924781799,-0.14142681658267975,-0.1518971472978592
1767708648149321200,4.6373212890625,0.5756046175956726,-0.30795150995254517,-0.13808314502239227
1767708648159322400,4.647322265625,0.4542075991630554,-0.44396525621414185,-0.13900458812713623
1767708648169322200,4.657322265625,0.26219502091407776,-0.448986679315567,-0.1861831396818161
1767708648179323400,4.667323486328125,0.06605161726474762,-0.4105178415775299,-0.3131818175315857
1767708648189323500,4.677323486328125,-0.12546394765377045,-0.43799281120300293,-0.4995834529399872
1767708648199323400,4.687323486328125,-0.2552608251571655,-0.4559635818004608,-0.6634296774864197
1767708648209324300,4.69732421875,-0.27732113003730774,-0.48846161365509033,-0.7044135928153992
1767708648219324400,4.707324462890625,-0.20881719887256622,-0.5234355330467224,-0.6777568459510803
1767708648229325300,4.7173251953125,-0.17309169471263885,-0.5733543634414673,-0.6577088236808777
1767708648239325200,4.7273251953125,-0.12481063604354858,-0.4831100106239319,-0.6425670981407166
1767708648249326600,4.73732666015625,-0.03446635976433754,-0.34043434262275696,-0.5909995436668396
1767708648259326500,4.747326416015625,0.01128110010176897,-0.23258258402347565,-0.47668546438217163
1767708648269327400,4.757327392578125,-0.007478472776710987,-0.14156505465507507,-0.37055903673171997
1767708648279327500,4.767327392578125,-0.10326781123876572,-0.15991269052028656,-0.349519282579422
1767708648289327400,4.777327392578125,-0.2889932096004486,-0.3120766580104828,-0.34627529978752136
1767708648299328300,4.787328369140625,-0.4985957443714142,-0.3742065131664276,-0.2589491009712219
1767708648309328400,4.797328369140625,-0.5964664220809937,-0.45712989568710327,-0.11448512971401215
1767708648319329300,4.807329345703125,-0.6022879481315613,-0.5726200342178345,0.0228398647159338
1767708648329329200,4.8173291015625,-0.5212882161140442,-0.6242284178733826,0.20334598422050476
1767708648339330600,4.82733056640625,-0.38292795419692993,-0.6311654448509216,0.3476836681365967
1767708648349330400,4.837330322265625,-0.20155179500579834,-0.5011683106422424,0.40354615449905396
1767708648359330300,4.847330322265625,0.029707252979278564,-0.29038435220718384,0.39239946007728577
1767708648369331500,4.85733154296875,0.21054786443710327,-0.063569575548172,0.3471267819404602
1767708648379331300,4.867331298828125,0.3180002272129059,0.10120376944541931,0.3021498918533325
1767708648389332200,4.877332275390625,0.347761869430542,0.17589931190013885,0.2877728044986725
1767708648399332400,4.887332275390625,0.2979687452316284,0.18977464735507965,0.32090041041374207
1767708648409333500,4.89733349609375,0.17221616208553314,0.25024938583374023,0.3819010257720947
1767708648419333400,4.90733349609375,0.035793405026197433,0.26882895827293396,0.4417027235031128
1767708648429334500,4.91733447265625,-0.06323917210102081,0.2454136461019516,0.4896439015865326
1767708648439334400,4.92733447265625,-0.1252695620059967,0.21174556016921997,0.5447971820831299
1767708648449334300,4.937334228515625,-0.14681267738342285,0.18599039316177368,0.6051436066627502
1767708648459335400,4.94733544921875,-0.1662321835756302,0.14694605767726898,0.6822266578674316
1767708648469335300,4.957335205078125,-0.18853908777236938,0.08759952336549759,0.7769764065742493
1767708648479336200,4.967336181640625,-0.1778571456670761,0.06993450969457626,0.8637171983718872
1767708648489336300,4.97733642578125,-0.1184026300907135,0.045929618179798126,0.9479863047599792
1767708648499337500,4.98733740234375,-0.006030555348843336,0.04107174277305603,1.025873064994812
1767708648509337300,4.99733740234375,0.12170663475990295,0.05160827189683914,1.0680564641952515
1767708648519338500,5.00733837890625,0.24662519991397858,0.025578591972589493,1.0549335479736328
1767708648529338400,5.01733837890625,0.3129885196685791,-0.0019782003946602345,1.015340805053711
1767708648539338200,5.027338134765625,0.3668235242366791,0.03144500404596329,1.0089935064315796
1767708648549339400,5.03733935546875,0.39995691180229187,0.10854948312044144,1.0278642177581787
1767708648559339300,5.04733935546875,0.39279595017433167,0.16071441769599915,1.0109938383102417
1767708648569340400,5.05734033203125,0.35150980949401855,0.18731412291526794,0.9443986415863037
1767708648579340500,5.067340576171875,0.305706650018692,0.1817355901002884,0.8525139689445496
1767708648589341400,5.077341552734375,0.2483959197998047,0.16635043919086456,0.756959855556488
1767708648599341300,5.08734130859375,0.1789124459028244,0.1421540230512619,0.6751350164413452
1767708648609341400,5.097341552734375,0.09117139130830765,0.12010218948125839,0.6197004318237305
1767708648619342300,5.10734228515625,0.021216006949543953,0.08149008452892303,0.5833941102027893
1767708648629342200,5.11734228515625,-0.0325683057308197,0.054224200546741486,0.5610077381134033
1767708648639343400,5.12734326171875,-0.09725063294172287,0.03648008778691292,0.5420972108840942
1767708648649343200,5.13734326171875,-0.14679428935050964,0.012968218885362148,0.5294647216796875
1767708648659344400,5.147344482421875,-0.182185560464859,-0.03657509759068489,0.538322389125824
1767708648669344500,5.157344482421875,-0.21916702389717102,-0.11289682239294052,0.5794329643249512
1767708648679345400,5.167345458984375,-0.24054822325706482,-0.17714279890060425,0.6341779232025146
1767708648689345300,5.17734521484375,-0.2000705748796463,-0.1743195801973343,0.6516109704971313
1767708648699345400,5.187345458984375,-0.1313607543706894,-0.18975970149040222,0.5777421593666077
1767708648709346300,5.19734619140625,-0.09882678836584091,-0.25172585248947144,0.4043525457382202
1767708648719346200,5.20734619140625,-0.11294151842594147,-0.3427942991256714,0.24777212738990784
1767708648729347600,5.21734765625,-0.1938917487859726,-0.3829371929168701,0.2432018667459488
1767708648739347500,5.227347412109375,-0.2766420841217041,-0.43802785873413086,0.5059322118759155
1767708648749348400,5.237348388671875,-0.1478305608034134,-0.44571322202682495,0.9147039651870728
1767708648759348500,5.247348388671875,0.13588698208332062,-0.3328193426132202,1.0979695320129395
1767708648769349400,5.257349365234375,0.34669187664985657,-0.23691625893115997,0.9753621220588684
1767708648779349200,5.267349365234375,0.3906850814819336,-0.11659777164459229,0.5992469787597656
1767708648789349400,5.277349365234375,0.37664249539375305,-0.012034882791340351,0.15619812905788422
1767708648799350300,5.287350341796875,0.34204941987991333,0.08329571038484573,-0.1288565993309021
1767708648809350100,5.29735009765625,0.36334431171417236,0.2695167362689972,-0.21396483480930328
1767708648819351600,5.3073515625,0.4478035271167755,0.39866548776626587,-0.1760273277759552
1767708648829351400,5.317351318359375,0.5178816318511963,0.36520498991012573,0.0020534684881567955
1767708648839352300,5.327352294921875,0.4839908480644226,0.2094792127609253,0.19903498888015747
1767708648849352400,5.3373525390625,0.4155731499195099,0.05211275815963745,0.3009592294692993
1767708648859353300,5.347353271484375,0.4043862819671631,0.011317923665046692,0.2906320095062256
1767708648869353200,5.357353271484375,0.32912665605545044,0.0009963542688637972,0.12137777358293533
1767708648879353300,5.367353271484375,0.14815768599510193,0.034672290086746216,-0.1269177943468094
1767708648889354500,5.3773544921875,-0.0507156141102314,0.04968631640076637,-0.235899418592453
1767708648899354400,5.387354248046875,-0.17210888862609863,0.08351325243711472,-0.2580862045288086
1767708648909355500,5.39735546875,-0.2016461044549942,0.18300125002861023,-0.3207356035709381
1767708648919355400,5.40735546875,-0.18229131400585175,0.29947513341903687,-0.3977491557598114
1767708648929356300,5.417356201171875,-0.17367835342884064,0.3248182535171509,-0.4136206805706024
1767708648939356400,5.4273564453125,-0.20129747688770294,0.38647016882896423,-0.42142242193222046
1767708648949357300,5.437357421875,-0.22055935859680176,0.541928768157959,-0.533439040184021
1767708648959357200,5.447357177734375,-0.17431730031967163,0.705706775188446,-0.658953845500946
1767708648969357300,5.457357421875,-0.1371704339981079,0.7256806492805481,-0.6486194133758545
1767708648979358500,5.4673583984375,-0.2255229353904724,0.5796864032745361,-0.4981551170349121
1767708648989358300,5.4773583984375,-0.3656613826751709,0.3747555911540985,-0.32366397976875305
1767708648999359500,5.487359375,-0.46481990814208984,0.22811901569366455,-0.21923291683197021
1767708649009359400,5.497359375,-0.5073437690734863,0.15319761633872986,-0.22177612781524658
1767708649019360300,5.5073603515625,-0.4695252478122711,0.13225078582763672,-0.2867375612258911
1767708649029360400,5.5173603515625,-0.39634257555007935,0.14190256595611572,-0.35703232884407043
1767708649039361300,5.527361328125,-0.3238459825515747,0.14757509529590607,-0.39379647374153137
1767708649049361400,5.537361328125,-0.24512191116809845,0.0933569073677063,-0.40101999044418335
1767708649059361500,5.547361572265625,-0.17297261953353882,0.06015261262655258,-0.3998274505138397
1767708649069362400,5.557362548828125,-0.12992851436138153,0.05529853701591492,-0.41238436102867126
1767708649079362300,5.5673623046875,-0.0991937667131424,0.1223076656460762,-0.44117632508277893
1767708649089363200,5.57736328125,-0.08984178304672241,0.17407026886940002,-0.45740172266960144
1767708649099363000,5.587363037109375,-0.11911418288946152,0.22826187312602997,-0.48373478651046753
1767708649109364000,5.597364013671875,-0.14513671398162842,0.2066570371389389,-0.5411695241928101
1767708649119364000,5.607364013671875,-0.17042715847492218,0.23661653697490692,-0.6021889448165894
1767708649129364000,5.617364013671875,-0.19837093353271484,0.26511746644973755,-0.6367042660713196
1767708649139365000,5.627365234375,-0.21608227491378784,0.24329420924186707,-0.6300773620605469
1767708649149365200,5.637365234375,-0.21240605413913727,0.22322489321231842,-0.6081752777099609
1767708649159366100,5.6473662109375,-0.18749935925006866,0.21109595894813538,-0.5781753659248352
1767708649169366000,5.657365966796875,-0.11438412964344025,0.21026133000850677,-0.5637356638908386
1767708649179367200,5.6673671875,-0.014443689957261086,0.22648943960666656,-0.574225902557373
1767708649189367000,5.677366943359375,0.0665382444858551,0.1858125776052475,-0.5505789518356323
1767708649199368000,5.687367919921875,0.15463462471961975,0.058893971145153046,-0.49018529057502747
1767708649209368000,5.6973681640625,0.25106608867645264,-0.14810235798358917,-0.4206022024154663
1767708649219368200,5.7073681640625,0.35126760601997375,-0.3246932625770569,-0.3736717700958252
1767708649229369000,5.717369140625,0.4200301766395569,-0.4074475169181824,-0.34428858757019043
1767708649239369200,5.727369140625,0.4294157326221466,-0.4629848003387451,-0.2948194146156311
1767708649249370000,5.7373701171875,0.3766273558139801,-0.5157867670059204,-0.18738456070423126
1767708649259370000,5.747369873046875,0.29059743881225586,-0.5727112889289856,-0.07314576953649521
1767708649269371100,5.75737109375,0.18521960079669952,-0.5048467516899109,-0.03884878009557724
1767708649279371000,5.76737109375,0.07298441231250763,-0.4334762692451477,-0.09892883896827698
1767708649289372200,5.7773720703125,-0.039738673716783524,-0.35224318504333496,-0.2353772222995758
1767708649299372300,5.787372314453125,-0.1863560825586319,-0.32005801796913147,-0.4113026261329651
1767708649309372200,5.7973720703125,-0.4313775599002838,-0.24974095821380615,-0.5333970785140991
1767708649319373000,5.807373046875,-0.620314359664917,-0.1862863004207611,-0.4956207275390625
1767708649329373200,5.817373291015625,-0.5449138879776001,-0.054496049880981445,-0.45986032485961914
1767708649339374000,5.8273740234375,-0.3265104591846466,-0.11684224754571915,-0.48228999972343445
1767708649349374000,5.8373740234375,-0.207600399851799,-0.09028209745883942,-0.5069348216056824
1767708649359375000,5.847375,-0.09410899877548218,-0.07851971685886383,-0.4923921227455139
1767708649369375000,5.857375,-0.06225058063864708,-0.20835697650909424,-0.4684905707836151
1767708649379376000,5.867376220703125,-0.09837130457162857,-0.40316563844680786,-0.46358048915863037
1767708649389376300,5.877376220703125,-0.20250418782234192,-0.5132018327713013,-0.40623608231544495
1767708649399376100,5.887376220703125,-0.4277234375476837,-0.3332328498363495,-0.3167690336704254
1767708649409377000,5.897376953125,-0.7235639095306396,-0.355977326631546,-0.16440176963806152
1767708649419377200,5.907377197265625,-0.7132241725921631,-0.40900084376335144,0.004698575474321842
1767708649429378000,5.9173779296875,-0.5601698160171509,-0.3861810863018036,0.12231729179620743
1767708649439378000,5.9273779296875,-0.340075820684433,-0.44369789958000183,0.230232834815979
1767708649449379300,5.93737939453125,-0.12593026459217072,-0.40550222992897034,0.29449447989463806
1767708649459379200,5.947379150390625,0.08116939663887024,-0.2917112410068512,0.2724888026714325
1767708649469380000,5.957380126953125,0.26731714606285095,-0.11989530920982361,0.20513391494750977
1767708649479380200,5.967380126953125,0.40600472688674927,-0.00327122351154685,0.15973234176635742
1767708649489380000,5.977380126953125,0.4782629609107971,0.08808457851409912,0.18031491339206696
1767708649499381000,5.987381103515625,0.42010167241096497,0.2318532019853592,0.28417447209358215
1767708649509381000,5.997381103515625,0.2504958212375641,0.28618255257606506,0.4003824293613434
1767708649519382000,6.007382080078125,0.042453136295080185,0.2582840919494629,0.42958638072013855
1767708649529382000,6.0173818359375,-0.09458646923303604,0.21583198010921478,0.39454808831214905
1767708649539383300,6.02738330078125,-0.17683660984039307,0.18286924064159393,0.3706637918949127
1767708649549383200,6.037383056640625,-0.24372297525405884,0.1671191304922104,0.3943101167678833
1767708649559383000,6.047383056640625,-0.31853461265563965,0.10625524818897247,0.4525366723537445
1767708649569384200,6.05738427734375,-0.36333462595939636,0.04349509999155998,0.516071617603302
1767708649579384000,6.067384033203125,-0.3711118698120117,-0.01970277912914753,0.5514424443244934
1767708649589385000,6.077385009765625,-0.33576929569244385,-0.13897955417633057,0.5711204409599304
1767708649599385000,6.087385009765625,-0.25974318385124207,-0.11831626296043396,0.5796116590499878
1767708649609386200,6.09738623046875,-0.13955606520175934,-0.08603369444608688,0.5775330662727356
1767708649619386000,6.10738623046875,-0.009399103932082653,-0.06875692307949066,0.569067120552063
1767708649629387300,6.11738720703125,0.11588983982801437,-0.041161518543958664,0.5675262212753296
1767708649639387100,6.12738720703125,0.2494497150182724,0.006281781941652298,0.5813663005828857
1767708649649387000,6.137386962890625,0.3645070791244507,0.058742061257362366,0.5914791226387024
1767708649659388200,6.14738818359375,0.4303518831729889,0.10625460743904114,0.5867806673049927
1767708649669388000,6.157387939453125,0.4243389964103699,0.11837013065814972,0.5649334192276001
1767708649679389000,6.167388916015625,0.36893677711486816,0.09315455704927444,0.5321361422538757
1767708649689389000,6.17738916015625,0.28673431277275085,0.05727272108197212,0.49417176842689514
1767708649699390200,6.18739013671875,0.20057936012744904,0.025088166818022728,0.4410881996154785
1767708649709390000,6.19739013671875,0.14715927839279175,0.01577882096171379,0.36623552441596985
1767708649719391200,6.20739111328125,0.1291116178035736,0.07801143825054169,0.28056082129478455
1767708649729391000,6.21739111328125,0.10758369415998459,0.09689271450042725,0.23542264103889465
1767708649739391000,6.227390869140625,0.051591016352176666,0.05814562737941742,0.250578910112381
1767708649749392100,6.23739208984375,-0.04281964153051376,-0.03540189936757088,0.29826146364212036
1767708649759392000,6.24739208984375,-0.15826375782489777,-0.12243448197841644,0.34559500217437744
1767708649769393200,6.25739306640625,-0.2788381278514862,-0.17477545142173767,0.3540119230747223
1767708649779393300,6.267393310546875,-0.3657474219799042,-0.18998894095420837,0.32256603240966797
1767708649789394200,6.277394287109375,-0.42799270153045654,-0.1938987374305725,0.2919468879699707
1767708649799394000,6.28739404296875,-0.4765234887599945,-0.22281213104724884,0.31320902705192566
1767708649809395200,6.297395263671875,-0.5309842824935913,-0.2926679253578186,0.4051802158355713
1767708649819395000,6.30739501953125,-0.4898824393749237,-0.3556934893131256,0.5649251341819763
1767708649829395000,6.31739501953125,-0.28312256932258606,-0.31629279255867004,0.772998034954071
1767708649839396000,6.32739599609375,0.013300304301083088,-0.20902787148952484,0.941783607006073
1767708649849396000,6.33739599609375,0.28660985827445984,-0.13521045446395874,0.9491726160049438
1767708649859397000,6.347397216796875,0.4341753423213959,-0.022229567170143127,0.7480037808418274
1767708649869397200,6.357397216796875,0.41045400500297546,0.1512945294380188,0.4429149031639099
1767708649879398100,6.367398193359375,0.3107963800430298,0.34915727376937866,0.1994796097278595
1767708649889398000,6.37739794921875,0.29684892296791077,0.5297473073005676,0.07524760067462921
1767708649899398100,6.387398193359375,0.443237841129303,0.5390515923500061,0.09281007945537567
1767708649909399000,6.39739892578125,0.580186128616333,0.42625969648361206,0.1652185171842575
1767708649919399000,6.40739892578125,0.6300809383392334,0.23560480773448944,0.1749153435230255
1767708649929400300,6.417400390625,0.7023839354515076,0.06630730628967285,0.16843755543231964
1767708649939400200,6.427400146484375,0.7403896450996399,-0.030277825891971588,0.1879713088274002
1767708649949401000,6.437401123046875,0.6373820304870605,-0.036669496446847916,0.13695794343948364
1767708649959401200,6.447401123046875,0.4158112704753876,-0.03911694139242172,0.045700736343860626
1767708649969402000,6.457402099609375,0.18603768944740295,-0.11480053514242172,-0.012588434852659702
1767708649979402000,6.467402099609375,-0.001879216404631734,-0.13005778193473816,-0.08865737169981003
1767708649989402000,6.477402099609375,-0.14465495944023132,-0.03782733529806137,-0.18536487221717834
1767708649999403000,6.487403076171875,-0.2086629718542099,0.15799729526042938,-0.27960750460624695
1767708650009403000,6.49740283203125,-0.22385817766189575,0.30640047788619995,-0.35843604803085327
1767708650019404300,6.507404296875,-0.2299317717552185,0.41462868452072144,-0.41030776500701904
1767708650029404200,6.517404052734375,-0.24150745570659637,0.5131248831748962,-0.4674014449119568
1767708650039405000,6.527405029296875,-0.23988613486289978,0.5598577857017517,-0.5454118847846985
1767708650049405200,6.5374052734375,-0.24351175129413605,0.5515007972717285,-0.5898364782333374
1767708650059406000,6.547406005859375,-0.2994932532310486,0.4445677399635315,-0.5659015774726868
1767708650069406000,6.557406005859375,-0.34374940395355225,0.3112589716911316,-0.5168850421905518
1767708650079406000,6.567406005859375,-0.34417709708213806,0.20994685590267181,-0.48140275478363037
1767708650089407200,6.5774072265625,-0.32638877630233765,0.12361302971839905,-0.47477972507476807
1767708650099408000,6.587407958984375,-0.2788495421409607,0.06143529340624809,-0.4794885814189911
1767708650109409000,6.597408935546875,-0.21140365302562714,0.03435787186026573,-0.4752160906791687
1767708650119409200,6.6074091796875,-0.13539941608905792,0.05052702873945236,-0.46276453137397766
1767708650129410000,6.61741015625,-0.07089632004499435,0.07172072678804398,-0.462627649307251
1767708650139410000,6.627409912109375,-0.05047649145126343,0.07936517894268036,-0.47146812081336975
1767708650149411000,6.6374111328125,-0.06595584750175476,0.0784253478050232,-0.4786647856235504
1767708650159411000,6.647410888671875,-0.08262860029935837,0.10037119686603546,-0.4917977452278137
1767708650169410800,6.657410888671875,-0.10262414067983627,0.13700351119041443,-0.5321894288063049
1767708650179412000,6.667411865234375,-0.13681435585021973,0.15859784185886383,-0.5981864929199219
1767708650189411800,6.677411865234375,-0.17185541987419128,0.20052744448184967,-0.6554402112960815
1767708650199413000,6.6874130859375,-0.20105212926864624,0.24822720885276794,-0.6833058595657349
1767708650209413000,6.6974130859375,-0.2183150053024292,0.29310518503189087,-0.6862539649009705
1767708650219414000,6.7074140625,-0.19759617745876312,0.32037976384162903,-0.6773064136505127
1767708650229414000,6.717413818359375,-0.159031480550766,0.34886202216148376,-0.6716890335083008
1767708650239415000,6.7274150390625,-0.11275296658277512,0.3297036588191986,-0.6584272980690002
1767708650249415000,6.737414794921875,-0.07187610864639282,0.29520267248153687,-0.6017285585403442
1767708650259414800,6.747414794921875,-0.046128127723932266,0.2770364582538605,-0.5116847157478333
1767708650269416200,6.757416259765625,-0.005841427948325872,0.2471770942211151,-0.4460921287536621
1767708650279416000,6.767416015625,0.052982475608587265,0.18322448432445526,-0.4489249289035797
1767708650289417000,6.7774169921875,0.139185830950737,0.07857471704483032,-0.4943654239177704
1767708650299417000,6.7874169921875,0.2456236034631729,-0.02409413456916809,-0.5320768356323242
1767708650309418000,6.79741796875,0.3342568278312683,-0.0758623257279396,-0.5130696892738342
1767708650319417900,6.80741796875,0.3917731046676636,-0.09537184238433838,-0.4046953320503235
1767708650329419000,6.8174189453125,0.40082672238349915,-0.17450036108493805,-0.2285424917936325
1767708650339419000,6.8274189453125,0.3633105158805847,-0.2819269597530365,-0.07585654407739639
1767708650349418800,6.837418701171875,0.2748722732067108,-0.32781752943992615,-0.04330696538090706
1767708650359420200,6.847420166015625,0.13958260416984558,-0.32997679710388184,-0.1857898235321045
1767708650369420000,6.857419921875,-0.011873717419803143,-0.3668558597564697,-0.4743221402168274
1767708650379421000,6.8674208984375,-0.20346525311470032,-0.4355587661266327,-0.7647779583930969
1767708650389421000,6.877421142578125,-0.4173174202442169,-0.5121054649353027,-0.9115100502967834
1767708650399422000,6.887421875,-0.5160245299339294,-0.5522124171257019,-0.8699026703834534
1767708650409421800,6.897421875,-0.36968278884887695,-0.45527246594429016,-0.6961517930030823
1767708650419422000,6.907421875,-0.13669365644454956,-0.3604240417480469,-0.5838570594787598
1767708650429423000,6.917423095703125,0.00025274395011365414,-0.1725718230009079,-0.5494434237480164
1767708650439423000,6.927423095703125,0.1142493486404419,-0.04466632008552551,-0.5313584208488464
1767708650449424100,6.937424072265625,0.12507343292236328,-0.21927890181541443,-0.54373699426651
1767708650459424000,6.947424072265625,0.004070054739713669,-0.4267716407775879,-0.5068737864494324
1767708650469425000,6.9574248046875,-0.2317752093076706,-0.39859694242477417,-0.35777050256729126
1767708650479425000,6.967425048828125,-0.6453481316566467,-0.3303171992301941,-0.2867618501186371
1767708650489426000,6.977426025390625,-0.814186692237854,-0.48137718439102173,-0.30022603273391724
1767708650499425800,6.98742578125,-0.6956523656845093,-0.47094425559043884,-0.22682026028633118
1767708650509426000,6.997426025390625,-0.4479784071445465,-0.3446691930294037,-0.013482037000358105
1767708650519427000,7.007427001953125,-0.16119244694709778,-0.20737868547439575,0.2264123111963272
1767708650529427000,7.017427001953125,0.09911351650953293,-0.15184876322746277,0.37658071517944336
1767708650539428000,7.027427978515625,0.23549716174602509,-0.16805937886238098,0.4378401041030884
1767708650549428000,7.037427978515625,0.2797122895717621,-0.16781623661518097,0.4676550030708313
1767708650559428900,7.047428955078125,0.32530322670936584,-0.09583819657564163,0.522240936756134
1767708650569429000,7.057428955078125,0.35792186856269836,0.012391605414450169,0.6298853754997253
1767708650579430000,7.067429931640625,0.3434830904006958,0.07349536567926407,0.776361882686615
1767708650589430000,7.077429931640625,0.24655945599079132,0.06805505603551865,0.8890929818153381
1767708650599430100,7.08743017578125,0.12046033143997192,0.011518537998199463,0.9047570824623108
1767708650609431000,7.09743115234375,-0.0014157721307128668,-0.05515982210636139,0.8609305620193481
1767708650619431000,7.107430908203125,-0.10919259488582611,-0.08931399881839752,0.8118345141410828
1767708650629432000,7.11743212890625,-0.1870597004890442,-0.11100783944129944,0.8065752983093262
1767708650639432000,7.127431884765625,-0.2449629306793213,-0.1589387059211731,0.8526597619056702
1767708650649432800,7.137432861328125,-0.2601645290851593,-0.20523136854171753,0.9165394306182861
1767708650659433000,7.147432861328125,-0.21093356609344482,-0.2060658484697342,0.9565277099609375
1767708650669434000,7.15743408203125,-0.1070612370967865,-0.17932717502117157,0.9730126261711121
1767708650679434000,7.16743408203125,0.021604828536510468,-0.14972636103630066,0.9811444282531738
1767708650689434000,7.17743408203125,0.1374611258506775,-0.12117461115121841,1.0126781463623047
1767708650699435000,7.18743505859375,0.2329740822315216,-0.09132598340511322,1.0669440031051636
1767708650709435000,7.197434814453125,0.33355289697647095,-0.04181275516748428,1.0979887247085571
1767708650719436000,7.20743603515625,0.4232273995876312,0.054893992841243744,1.0848987102508545
1767708650729436000,7.217435791015625,0.47008201479911804,0.16224229335784912,1.038590908050537
1767708650739436800,7.227436767578125,0.4710109233856201,0.19627535343170166,0.9719631671905518
1767708650749437200,7.237437255859375,0.41759559512138367,0.16868962347507477,0.8739469051361084
1767708650759438000,7.24743798828125,0.3348991274833679,0.13372710347175598,0.7699615955352783
1767708650769438000,7.25743798828125,0.23566283285617828,0.08413203805685043,0.6897588968276978
1767708650779438000,7.26743798828125,0.12069043517112732,0.055078282952308655,0.6359068751335144
1767708650789439000,7.27743896484375,0.024850204586982727,0.08827022463083267,0.5845538377761841
1767708650799438800,7.28743896484375,-0.03512844070792198,0.12523570656776428,0.49977797269821167
1767708650809440000,7.29743994140625,-0.06585602462291718,0.1032504215836525,0.42046910524368286
1767708650819439900,7.30743994140625,-0.11851444095373154,0.00865680817514658,0.3933482766151428
1767708650829441000,7.31744091796875,-0.19694741070270538,-0.07618149369955063,0.4239558279514313
1767708650839441200,7.327441162109375,-0.2891122102737427,-0.11519014835357666,0.47788190841674805
1767708650849441000,7.33744091796875,-0.36971232295036316,-0.12072046101093292,0.526519775390625
1767708650859442000,7.34744189453125,-0.4372338354587555,-0.13217391073703766,0.5234038829803467
1767708650869442000,7.357442138671875,-0.5162306427955627,-0.15583716332912445,0.4649675190448761
1767708650879443000,7.36744287109375,-0.5658243298530579,-0.21016591787338257,0.392839252948761
1767708650889442800,7.37744287109375,-0.4839581847190857,-0.3097344934940338,0.41968658566474915
1767708650899444000,7.38744384765625,-0.2503547668457031,-0.2618955969810486,0.6056455373764038
1767708650909444000,7.397444091796875,0.06544123589992523,-0.11832403391599655,0.8222776651382446
1767708650919445000,7.407445068359375,0.33118394017219543,-0.0019942326471209526,0.9062622785568237
1767708650929445000,7.417445068359375,0.5207797884941101,0.08760533481836319,0.7884178161621094
1767708650939445000,7.427445068359375,0.5842596888542175,0.1318625509738922,0.4614062011241913
1767708650949446000,7.43744580078125,0.45987939834594727,0.16946609318256378,0.11911583691835403
1767708650959446000,7.447446044921875,0.3524898290634155,0.18645280599594116,-0.05778064951300621
1767708650969447000,7.457447021484375,0.3718473017215729,0.2197231501340866,-0.06449276208877563
1767708650979446800,7.46744677734375,0.4625103771686554,0.24873216450214386,-0.012520644813776016
1767708650989448200,7.4774482421875,0.5093368887901306,0.19277337193489075,0.042908743023872375
1767708650999448000,7.487447998046875,0.4652232527732849,0.05314436927437782,0.060057371854782104
1767708651009449000,7.497448974609375,0.4051498472690582,-0.0075422972440719604,0.04882002994418144
1767708651019449000,7.507448974609375,0.3793422281742096,0.03304390609264374,0.014846517704427242
1767708651029449000,7.517448974609375,0.33768078684806824,0.07274843752384186,-0.07527618855237961
1767708651039449900,7.527449951171875,0.22297468781471252,0.08241338282823563,-0.16726800799369812
1767708651049450000,7.537449951171875,0.03290008753538132,0.10201744735240936,-0.25783413648605347
1767708651059451000,7.547450927734375,-0.09447669982910156,0.16758586466312408,-0.3293311297893524
1767708651069451000,7.557450927734375,-0.10822952538728714,0.26548901200294495,-0.3779231607913971
1767708651079452200,7.5674521484375,-0.06520543247461319,0.32444533705711365,-0.3418988883495331
1767708651089452000,7.5774521484375,-0.029065808281302452,0.3105415105819702,-0.26731041073799133
1767708651099452200,7.5874521484375,-0.06281200051307678,0.38325420022010803,-0.3006502687931061
1767708651109452300,7.597452392578125,-0.10813713818788528,0.5614097714424133,-0.49129027128219604
1767708651119452200,7.6074521484375,-0.11692669242620468,0.7046172618865967,-0.6978093981742859
1767708651129453000,7.617453125,-0.1546972393989563,0.7371078133583069,-0.7451872825622559
1767708651139453200,7.627453125,-0.2719862759113312,0.6272668838500977,-0.657410204410553
1767708651149454300,7.637454345703125,-0.38475358486175537,0.4876677393913269,-0.5870247483253479
1767708651159454500,7.647454345703125,-0.4449722170829773,0.4005548655986786,-0.6160221099853516
1767708651169455400,7.657455322265625,-0.44461214542388916,0.34435659646987915,-0.708422064781189
1767708651179455200,7.667455322265625,-0.3580951392650604,0.29333871603012085,-0.7890183329582214
1767708651189456100,7.6774560546875,-0.1505288928747177,0.2743107080459595,-0.8192569613456726
1767708651199456300,7.687456298828125,-0.022668322548270226,0.2939784824848175,-0.7928556203842163
1767708651209456000,7.6974560546875,-0.013957655057311058,0.28328803181648254,-0.7700033187866211
1767708651219457000,7.70745703125,0.011650502681732178,0.24969731271266937,-0.7921416163444519
1767708651229457400,7.71745751953125,0.02191060781478882,0.2746827006340027,-0.8293213248252869
1767708651239458300,7.727458251953125,-0.0224818903952837,0.37408891320228577,-0.85233074426651
1767708651249458400,7.73745849609375,-0.06536226719617844,0.4658166468143463,-0.8607064485549927
1767708651259459300,7.747459228515625,-0.13112184405326843,0.5447183847427368,-0.8446800708770752
1767708651269459200,7.757459228515625,-0.2174636423587799,0.6177942156791687,-0.8032052516937256
1767708651279459300,7.767459228515625,-0.27757811546325684,0.6888694763183594,-0.7652994394302368
1767708651289460200,7.777460205078125,-0.3223026990890503,0.7684117555618286,-0.7517694234848022
1767708651299460000,7.787460205078125,-0.35081103444099426,0.774879515171051,-0.7649432420730591
1767708651309461200,7.797461181640625,-0.34704992175102234,0.7262970209121704,-0.7426795363426208
1767708651319461400,7.80746142578125,-0.31087353825569153,0.7070434093475342,-0.656668484210968
1767708651329462300,7.817462158203125,-0.2255021184682846,0.7431635856628418,-0.5585904717445374
1767708651339462400,7.82746240234375,-0.10208297520875931,0.747400164604187,-0.4619496762752533
1767708651349463300,7.83746337890625,0.016955766826868057,0.6232230067253113,-0.35929325222969055
1767708651359463200,7.847463134765625,0.11001703143119812,0.4158395826816559,-0.27726373076438904
1767708651369463300,7.85746337890625,0.1967386156320572,0.20721019804477692,-0.22122788429260254
1767708651379464200,7.867464111328125,0.27224427461624146,0.022515177726745605,-0.20869211852550507
1767708651389464300,7.87746435546875,0.3299376666545868,-0.09679353982210159,-0.22267761826515198
1767708651399465200,7.88746533203125,0.3572806119918823,-0.16299866139888763,-0.22742363810539246
1767708651409465300,7.89746533203125,0.3480285108089447,-0.2334602177143097,-0.1833970546722412
1767708651419466200,7.90746630859375,0.2796100378036499,-0.3081171214580536,-0.10848234593868256
1767708651429466400,7.91746630859375,0.1381637305021286,-0.3770201802253723,-0.08137164264917374
1767708651439467300,7.92746728515625,-0.022050725296139717,-0.44926273822784424,-0.15780124068260193
1767708651449467100,7.937467041015625,-0.19596925377845764,-0.480660080909729,-0.30414700508117676
1767708651459467300,7.94746728515625,-0.3619396388530731,-0.5092539191246033,-0.40948250889778137
1767708651469468400,7.957468505859375,-0.48303091526031494,-0.5332533121109009,-0.4209783375263214
1767708651479468300,7.96746826171875,-0.5194344520568848,-0.5450524091720581,-0.3837531805038452
1767708651489469200,7.97746923828125,-0.4269804358482361,-0.5343904495239258,-0.35737526416778564
1767708651499469300,7.98746923828125,-0.24585960805416107,-0.4654158353805542,-0.3602573871612549
1767708651509470200,7.99747021484375,-0.07576937973499298,-0.32512930035591125,-0.3408583998680115
1767708651519470300,8.00747021484375,0.02123999036848545,-0.15575836598873138,-0.2567538917064667
1767708651529471200,8.01747119140625,0.010775099508464336,-0.12369365245103836,-0.18295636773109436
1767708651539471000,8.02747119140625,-0.09638568758964539,-0.17665469646453857,-0.1905823051929474
1767708651549471500,8.037471435546875,-0.26890847086906433,-0.2277916520833969,-0.1695244312286377
1767708651559472400,8.047472412109375,-0.4730651378631592,-0.3437311053276062,-0.057130880653858185
1767708651569472300,8.05747216796875,-0.629170298576355,-0.5475186109542847,0.07729697227478027
1767708651579473200,8.06747314453125,-0.6390708684921265,-0.7324182987213135,0.11151119321584702
1767708651589473300,8.077473388671875,-0.5349372625350952,-0.7178332805633545,0.16930286586284637
1767708651599474200,8.08747412109375,-0.35516107082366943,-0.5523400902748108,0.24255099892616272
1767708651609474300,8.097474365234374,-0.15797902643680573,-0.37085017561912537,0.2782069742679596
1767708651619474200,8.10747412109375,-0.0027460786513984203,-0.2371865212917328,0.25408101081848145
1767708651629475300,8.117475341796874,0.07959087193012238,-0.13028615713119507,0.19755035638809204
1767708651639475500,8.127475341796876,0.1255703717470169,-0.03748183697462082,0.19148172438144684
1767708651649476400,8.137476318359376,0.16759106516838074,0.11935970187187195,0.31060466170310974
1767708651659476200,8.147476318359375,0.19150543212890625,0.33470427989959717,0.5008633136749268
1767708651669477000,8.15747705078125,0.17972919344902039,0.45335209369659424,0.6210851073265076
1767708651679477200,8.167477294921875,0.10835037380456924,0.39898204803466797,0.6117149591445923
1767708651689478100,8.17747802734375,-0.008499277755618095,0.25947341322898865,0.5301665663719177
1767708651699478300,8.187478271484375,-0.09974317252635956,0.13451042771339417,0.4404204487800598
1767708651709478400,8.197478515625,-0.1446956843137741,0.008702159859240055,0.39250075817108154
1767708651719479300,8.207479248046875,-0.1363256275653839,-0.122943215072155,0.3896421492099762
1767708651729479400,8.2174794921875,-0.09722276031970978,-0.236973375082016,0.4309680759906769
1767708651739480300,8.227480224609375,-0.0457204133272171,-0.29668861627578735,0.5297135710716248
1767708651749480200,8.237480224609374,0.038273826241493225,-0.29268816113471985,0.6665732264518738
1767708651759481000,8.247481201171874,0.14867250621318817,-0.28670457005500793,0.7938746809959412
1767708651769481200,8.257481201171874,0.25176218152046204,-0.292114794254303,0.8764150142669678
1767708651779482400,8.267482421875,0.33007216453552246,-0.2839899957180023,0.9155760407447815
1767708651789482200,8.277482177734376,0.40376466512680054,-0.23497529327869415,0.9209690690040588
1767708651799482400,8.287482421875,0.4849362373352051,-0.15194804966449738,0.9172592759132385
1767708651809483300,8.297483154296875,0.5332555770874023,-0.04640965163707733,0.8976486921310425
1767708651819483400,8.3074833984375,0.5227632522583008,0.04312023147940636,0.85801100730896
1767708651829484300,8.317484375,0.46652424335479736,0.08359938859939575,0.7835049629211426
1767708651839484200,8.327484130859375,0.4133608937263489,0.06973790377378464,0.6319940090179443
1767708651849485000,8.337485107421875,0.36586523056030273,-0.008020740002393723,0.4220258593559265
1767708651859485200,8.347485107421875,0.2659780979156494,-0.11496669799089432,0.22263476252555847
1767708651869486300,8.357486328125,0.14466287195682526,-0.15436923503875732,0.11307737976312637
1767708651879486200,8.367486328125,0.04081663489341736,-0.07886461913585663,0.08952917903661728
1767708651889486300,8.377486328125,-0.027983222156763077,-0.01692381501197815,0.10358794033527374
1767708651899487200,8.3874873046875,-0.09252706170082092,-0.022536160424351692,0.12760485708713531
1767708651909487400,8.3974873046875,-0.15005479753017426,-0.07969475537538528,0.12890416383743286
1767708651919488300,8.40748828125,-0.22074413299560547,-0.16971464455127716,0.12809696793556213
1767708651929488100,8.417488037109376,-0.2896857261657715,-0.22451333701610565,0.1684342920780182
1767708651939489300,8.4274892578125,-0.32523706555366516,-0.1671520322561264,0.23071390390396118
1767708651949489400,8.437489501953126,-0.31465575098991394,-0.06799238175153732,0.189494788646698
1767708651959489300,8.4474892578125,-0.29172730445861816,-0.036208804696798325,0.07632561028003693
1767708651969490200,8.457490234375,-0.29203781485557556,-0.05110146850347519,0.02911921963095665
1767708651979490300,8.467490234375,-0.1847006231546402,-0.09008581936359406,0.16901490092277527
1767708651989491200,8.4774912109375,0.02383314073085785,-0.09820925444364548,0.49774083495140076
1767708651999491300,8.4874912109375,0.2742115259170532,-0.05209919810295105,0.8469492197036743
1767708652009492200,8.4974921875,0.4893379509449005,0.08378646522760391,0.9954270720481873
1767708652019492000,8.5074921875,0.5755099058151245,0.2355073094367981,0.7804664373397827
1767708652029493200,8.5174931640625,0.46185606718063354,0.4154195785522461,0.35695910453796387
1767708652039493400,8.527493408203124,0.28066736459732056,0.5039370656013489,0.011209895834326744
1767708652049493200,8.5374931640625,0.16884441673755646,0.30973729491233826,-0.14562472701072693
1767708652059494100,8.547494140625,0.15399852395057678,-0.030148904770612717,-0.03013898804783821
1767708652069494300,8.557494384765626,0.18424005806446075,-0.1473759412765503,0.25451403856277466
1767708652079495200,8.5674951171875,0.19914184510707855,-0.15980204939842224,0.41068825125694275
1767708652089495300,8.577495361328126,0.2397065907716751,-0.14018785953521729,0.37692520022392273
1767708652099496400,8.587496337890625,0.2860682010650635,-0.14085786044597626,0.2387780398130417
1767708652109496300,8.597496337890625,0.2750333845615387,-0.10276081413030624,0.1258232593536377
1767708652119497200,8.607497314453125,0.20399680733680725,-0.020471543073654175,0.08120112121105194
1767708652129497300,8.617497314453125,0.07194501906633377,0.0033072903752326965,0.033500708639621735
1767708652139497200,8.627497314453125,0.0077111623249948025,0.04524112120270729,-0.018023690208792686
1767708652149498400,8.637498291015625,-0.04482794925570488,0.15539158880710602,-0.03478163108229637
1767708652159498500,8.64749853515625,-0.054082393646240234,0.30496451258659363,0.018146000802516937
1767708652169499400,8.65749951171875,-0.06414221972227097,0.4363132119178772,0.0844469964504242
1767708652179499300,8.667499267578124,-0.13245975971221924,0.6426019668579102,-0.025806009769439697
1767708652189500400,8.67750048828125,-0.1984628140926361,0.8387278318405151,-0.3394959568977356
1767708652199500300,8.687500244140624,-0.211696594953537,0.9609395265579224,-0.603672444820404
1767708652209500400,8.69750048828125,-0.23451370000839233,0.9546018838882446,-0.6434067487716675
1767708652219501300,8.707501220703126,-0.2811536192893982,0.8203327655792236,-0.5291129350662231
1767708652229501200,8.717501220703125,-0.3386409282684326,0.6333462595939636,-0.3922431468963623
1767708652239502300,8.72750244140625,-0.3437079191207886,0.4644627273082733,-0.338129460811615
1767708652249502500,8.73750244140625,-0.2675577402114868,0.35742440819740295,-0.36971908807754517
1767708652259503400,8.74750341796875,-0.13878029584884644,0.2953253388404846,-0.45607519149780273
1767708652269503200,8.757503173828125,0.0039030821062624454,0.1744156777858734,-0.5268875360488892
1767708652279504400,8.76750439453125,0.11985791474580765,0.07515407353639603,-0.5593386888504028
1767708652289504300,8.777504150390625,0.20288653671741486,0.03736592456698418,-0.5599056482315063
1767708652299504400,8.78750439453125,0.22653327882289886,-0.006000191438943148,-0.5566560626029968
1767708652309505500,8.797505615234375,0.21890674531459808,-0.03682101517915726,-0.5615182518959045
1767708652319505400,8.80750537109375,0.16971443593502045,0.001779110636562109,-0.5564920902252197
1767708652329506300,8.81750634765625,0.10141845047473907,0.030138380825519562,-0.5549105405807495
1767708652339506400,8.82750634765625,0.05442776903510094,0.054831475019454956,-0.5900477170944214
1767708652349507300,8.83750732421875,0.00854416936635971,0.08406753093004227,-0.6507978439331055
1767708652359507200,8.847507080078126,-0.04089446738362312,0.13601121306419373,-0.7360248565673828
1767708652369508400,8.85750830078125,-0.07912281155586243,0.19188274443149567,-0.7970109581947327
1767708652379508200,8.86750830078125,-0.11548061668872833,0.2077227532863617,-0.8320959806442261
1767708652389508400,8.87750830078125,-0.12527839839458466,0.21360993385314941,-0.8343178629875183
1767708652399509500,8.887509521484375,-0.11563029140233994,0.22281035780906677,-0.8034933805465698
1767708652409509400,8.89750927734375,-0.07529401034116745,0.2672770321369171,-0.7380475401878357
1767708652419510300,8.90751025390625,-0.002436535432934761,0.34595102071762085,-0.6659096479415894
1767708652429510400,8.917510498046875,0.05840231478214264,0.40733158588409424,-0.5783699154853821
1767708652439511300,8.92751123046875,0.11887787282466888,0.4532289505004883,-0.5955955386161804
1767708652449511200,8.93751123046875,0.18402917683124542,0.4483625590801239,-0.6522305607795715
1767708652459512300,8.94751220703125,0.24025222659111023,0.33099329471588135,-0.6530895829200745
1767708652469512400,8.957512451171874,0.2513035535812378,0.20980215072631836,-0.5677496194839478
1767708652479512600,8.9675126953125,0.24757112562656403,0.1023881733417511,-0.4117106795310974
1767708652489513500,8.977513427734374,0.22027692198753357,-0.0024490212090313435,-0.23872317373752594
1767708652499513300,8.987513427734376,0.1765512377023697,-0.12527328729629517,-0.11566587537527084
1767708652509514200,8.99751416015625,0.10463178157806396,-0.2365279197692871,-0.071037158370018
1767708652519514400,9.007514404296876,-0.02754945307970047,-0.32722416520118713,-0.09733652323484421
1767708652529515300,9.017515380859376,-0.23371301591396332,-0.48834437131881714,-0.17824016511440277
1767708652539515100,9.02751513671875,-0.45379170775413513,-0.6408904194831848,-0.2738019824028015
1767708652549516500,9.0375166015625,-0.6007398962974548,-0.7842720746994019,-0.32186830043792725
1767708652559516400,9.047516357421875,-0.5954117774963379,-0.8004213571548462,-0.2794736325740814
1767708652569516500,9.0575166015625,-0.46647584438323975,-0.6854015588760376,-0.19821789860725403
1767708652579517400,9.067517333984375,-0.257264643907547,-0.4753894507884979,-0.13584080338478088
1767708652589517300,9.077517333984375,-0.023953622207045555,-0.19421318173408508,-0.03414081037044525
1767708652599518200,9.087518310546875,0.1581600457429886,-0.14144597947597504,0.05125369504094124
1767708652609518300,9.097518310546874,0.13621772825717926,-0.38784322142601013,0.0380241759121418
1767708652619519200,9.107519287109374,-0.07591956853866577,-0.6059385538101196,-0.056368108838796616
1767708652629519400,9.117519287109374,-0.40269869565963745,-0.6260250806808472,-0.1440444141626358
1767708652639520500,9.1275205078125,-0.7350982427597046,-0.5755872130393982,-0.21008627116680145
1767708652649520400,9.137520263671876,-0.7884648442268372,-0.7732008099555969,-0.24142371118068695
1767708652659520500,9.1475205078125,-0.6678811311721802,-0.9082894325256348,-0.10819704830646515
1767708652669521400,9.157521484375,-0.5172972679138184,-0.8885085582733154,0.08001546561717987
1767708652679521300,9.167521240234375,-0.2892374098300934,-0.6459976434707642,0.2293785959482193
1767708652689522200,9.177522216796875,-0.004811856895685196,-0.40594106912612915,0.2737804353237152
1767708652699522300,9.187522216796875,0.21057848632335663,-0.2354324609041214,0.18654780089855194
1767708652709523500,9.1975234375,0.24238035082817078,-0.10169252008199692,0.07716554403305054
1767708652719523300,9.2075234375,0.2162076085805893,0.08935599774122238,0.08587807416915894
1767708652729523500,9.2175234375,0.20259727537631989,0.3986069858074188,0.2780761420726776
1767708652739524400,9.2275244140625,0.13528001308441162,0.6265309453010559,0.4087215065956116
1767708652749524500,9.2375244140625,0.03365352377295494,0.7062773108482361,0.38005170226097107
1767708652759525400,9.247525390625,-0.056039080023765564,0.6832476258277893,0.3089572787284851
1767708652769525200,9.257525146484374,-0.09714043885469437,0.5870913863182068,0.2904675602912903
1767708652779526100,9.267526123046874,-0.10385586321353912,0.4065152406692505,0.2933722734451294
1767708652789526500,9.277526611328126,-0.13222521543502808,0.20839984714984894,0.3145577013492584
1767708652799527400,9.28752734375,-0.13970522582530975,0.017286885529756546,0.40342074632644653
1767708652809527300,9.29752734375,-0.12246359139680862,-0.09461470693349838,0.5569087862968445
1767708652819527400,9.30752734375,-0.045189570635557175,-0.1755945086479187,0.7383944392204285
1767708652829528300,9.3175283203125,0.04981648921966553,-0.2644815742969513,0.8993951678276062
1767708652839528400,9.327528564453125,0.15947507321834564,-0.34102827310562134,1.0118145942687988
1767708652849529300,9.337529296875,0.2592507004737854,-0.34864258766174316,1.077879548072815
1767708652859529200,9.347529296875,0.35114121437072754,-0.29710355401039124,1.0925796031951904
1767708652869530400,9.3575302734375,0.40423130989074707,-0.21672561764717102,1.0641125440597534
1767708652879530500,9.367530517578125,0.4113275706768036,-0.08609835803508759,1.0096967220306396
1767708652889531400,9.377531494140625,0.3950974643230438,0.06828207522630692,0.9299671053886414
1767708652899531300,9.38753125,0.3654059171676636,0.18126048147678375,0.8346167206764221
1767708652909531400,9.397531494140624,0.3154226541519165,0.2444426566362381,0.7239648103713989
1767708652919532300,9.4075322265625,0.2658577561378479,0.25971296429634094,0.6108659505844116
1767708652929532400,9.417532470703126,0.20198316872119904,0.20990917086601257,0.4980853199958801
1767708652939533300,9.427533203125,0.10725876688957214,0.14395779371261597,0.36617183685302734
1767708652949533400,9.437533447265626,0.0007578923832625151,0.13261431455612183,0.2147703319787979
1767708652959534300,9.447534423828126,-0.059956274926662445,0.137498676776886,0.08863437920808792
1767708652969534500,9.457534423828125,-0.09689618647098541,0.0513126514852047,0.020009513944387436
1767708652979535400,9.467535400390625,-0.15750712156295776,-0.13681305944919586,0.004807621240615845
1767708652989535200,9.47753515625,-0.22966361045837402,-0.389070063829422,0.06262404471635818
1767708652999535400,9.487535400390625,-0.30695971846580505,-0.5485982298851013,0.16101545095443726
1767708653009536300,9.497536376953125,-0.35333094000816345,-0.5255565643310547,0.2469455450773239
1767708653019536400,9.507536376953125,-0.3967668116092682,-0.4520731270313263,0.23713403940200806
1767708653029537500,9.51753759765625,-0.4309426248073578,-0.44912874698638916,0.1352902352809906
1767708653039537400,9.527537353515624,-0.40425586700439453,-0.49958595633506775,0.06321881711483002
1767708653049538300,9.537538330078124,-0.2955208718776703,-0.5777816772460938,0.1459118276834488
1767708653059538400,9.547538330078124,-0.07971912622451782,-0.5598792433738708,0.4416320323944092
1767708653069538300,9.557538330078126,0.17540505528450012,-0.4232276678085327,0.7353249192237854
1767708653079539200,9.567539306640626,0.3496655821800232,-0.20184363424777985,0.6940191984176636
1767708653089539300,9.577539306640626,0.3395812511444092,-0.02094603329896927,0.24682070314884186
1767708653099541000,9.587541015625,0.2667919993400574,0.07243558019399643,-0.24955417215824127
1767708653109540900,9.597540771484375,0.1986139863729477,0.19893887639045715,-0.4847716987133026
1767708653119541800,9.607541748046875,0.2055046409368515,0.31118208169937134,-0.4876881241798401
1767708653129542000,9.6175419921875,0.25250813364982605,0.24795055389404297,-0.2730397582054138
1767708653139542800,9.627542724609375,0.25128865242004395,0.07561961561441422,0.16696426272392273
1767708653149543000,9.63754296875,0.17880432307720184,-0.053505878895521164,0.6017895340919495
1767708653159542800,9.647542724609375,0.13757646083831787,-0.15002550184726715,0.8062808513641357
1767708653169544000,9.6575439453125,0.16352683305740356,-0.16056255996227264,0.7722379565238953
1767708653179544000,9.6675439453125,0.17316214740276337,-0.17095847427845,0.5345492362976074
1767708653189545000,9.677544921875,0.15976272523403168,-0.1972741186618805,0.2578955888748169
1767708653199544800,9.687544921875,0.10984788835048676,-0.26402732729911804,0.15861853957176208
1767708653209545700,9.697545654296874,0.05575372651219368,-0.2035740613937378,0.11471237242221832
1767708653219545900,9.7075458984375,0.04912964627146721,0.0024334355257451534,0.0649847611784935
1767708653229546800,9.717546630859376,0.07253943383693695,0.22526003420352936,0.14033645391464233
1767708653239547000,9.727546875,-0.0012487730709835887,0.36068791151046753,0.2631095051765442
1767708653249547000,9.737547119140626,-0.19091758131980896,0.5077904462814331,0.14150653779506683
1767708653259548000,9.7475478515625,-0.31668534874916077,0.7039189338684082,-0.20430761575698853
1767708653269548000,9.757548095703125,-0.27431151270866394,0.8778454661369324,-0.44607630372047424
1767708653279549000,9.767548828125,-0.1961067169904709,0.9433094263076782,-0.4379746913909912
1767708653289548800,9.777548828125,-0.1849948912858963,0.7920024394989014,-0.26410114765167236
1767708653299549700,9.7875498046875,-0.20897825062274933,0.5925388932228088,-0.1454639732837677
1767708653309549800,9.7975498046875,-0.22324888408184052,0.43438589572906494,-0.14867383241653442
1767708653319551000,9.807551025390625,-0.17326562106609344,0.31549304723739624,-0.2291654795408249
1767708653329551000,9.817551025390625,-0.10773424804210663,0.22986678779125214,-0.3249892294406891
1767708653339551000,9.827551025390624,-0.03124932385981083,0.16618740558624268,-0.3688831925392151
1767708653349551900,9.8375517578125,0.07942184805870056,0.10851733386516571,-0.3915405869483948
1767708653359552000,9.847552001953124,0.17998012900352478,0.08118017762899399,-0.4115043580532074
1767708653369553000,9.857552978515624,0.22291533648967743,0.07143833488225937,-0.42019930481910706
1767708653379552800,9.867552734375,0.18829025328159332,0.06790804862976074,-0.4342972934246063
1767708653389553700,9.8775537109375,0.13124747574329376,0.08775285631418228,-0.4559069871902466
1767708653399553800,9.8875537109375,0.051960110664367676,0.17078213393688202,-0.46964630484580994
1767708653409555000,9.897554931640625,-0.0034442907199263573,0.2763519585132599,-0.5160636305809021
1767708653419555000,9.90755517578125,-0.0015646241372451186,0.387332022190094,-0.578558623790741
1767708653429555000,9.917554931640625,0.011090717278420925,0.4762304723262787,-0.6468154191970825
1767708653439555800,9.927555908203125,0.018968043848872185,0.5334017276763916,-0.7091445922851562
1767708653449556000,9.937555908203125,0.03325111046433449,0.5507216453552246,-0.7609111070632935
1767708653459556900,9.947556884765625,0.023718856275081635,0.5674872994422913,-0.7937896847724915
1767708653469556700,9.957556640625,0.017097173258662224,0.587232232093811,-0.7950575947761536
1767708653479558000,9.967557861328125,0.026042180135846138,0.6418390870094299,-0.7650132179260254
1767708653489558000,9.97755810546875,0.046972230076789856,0.702798068523407,-0.708706796169281
1767708653499559000,9.987558837890624,0.0883500725030899,0.6740007996559143,-0.6493450999259949
1767708653509559000,9.99755908203125,0.12059296667575836,0.5251167416572571,-0.5902360081672668
1767708653519559000,10.007558837890626,0.14229269325733185,0.2708885669708252,-0.5122854709625244
1767708653529559800,10.017559814453126,0.13768862187862396,0.02305159717798233,-0.4415242373943329
1767708653539560000,10.027559814453125,0.1364392787218094,-0.1384848952293396,-0.40332862734794617
1767708653549560800,10.037560791015625,0.1468794047832489,-0.15764953196048737,-0.375058114528656
1767708653559560700,10.047560791015625,0.13877278566360474,-0.13836638629436493,-0.3289061486721039
1767708653569561900,10.057561767578125,0.11391883343458176,-0.18797041475772858,-0.26236096024513245
1767708653579562000,10.06756201171875,0.07293624430894852,-0.30074384808540344,-0.20424090325832367
1767708653589561900,10.077561767578125,-0.006125363986939192,-0.45403945446014404,-0.19426827132701874
1767708653599563000,10.08756298828125,-0.1474129855632782,-0.6246804594993591,-0.25841236114501953
1767708653609563000,10.09756298828125,-0.3446948528289795,-0.7503001093864441,-0.3731335997581482
1767708653619563800,10.107563720703125,-0.5204163193702698,-0.8146737813949585,-0.4545650780200958
1767708653629564000,10.11756396484375,-0.5629904270172119,-0.6967951059341431,-0.46265095472335815
1767708653639565000,10.12756494140625,-0.42500144243240356,-0.5221015214920044,-0.4706488251686096
1767708653649565000,10.13756494140625,-0.23324497044086456,-0.3406420648097992,-0.5300621390342712
1767708653659565800,10.14756591796875,-0.04807491600513458,-0.1407938450574875,-0.558120608329773
1767708653669566000,10.15756591796875,0.022853851318359375,-0.02804945595562458,-0.5370171666145325
1767708653679565800,10.16756591796875,-0.025775469839572906,-0.05306266248226166,-0.4967110753059387
1767708653689567000,10.17756689453125,-0.1548047959804535,-0.14829188585281372,-0.4182513654232025
1767708653699566800,10.18756689453125,-0.35167309641838074,-0.2859378755092621,-0.2665095031261444
1767708653709567700,10.197567626953125,-0.6072180271148682,-0.456132709980011,-0.09884151071310043
1767708653719568000,10.20756787109375,-0.7516428232192993,-0.7595373392105103,-0.034145601093769073
1767708653729569000,10.217569091796875,-0.6550266146659851,-0.9981241822242737,0.014090390875935555
1767708653739569000,10.22756884765625,-0.4621437191963196,-0.9588436484336853,0.15412446856498718
1767708653749569800,10.23756982421875,-0.24167098104953766,-0.7696263790130615,0.3199135661125183
1767708653759570000,10.24756982421875,-0.05637142434716225,-0.6477822065353394,0.4176553189754486
1767708653769569800,10.25756982421875,0.028778349980711937,-0.5395755171775818,0.4238898456096649
1767708653779571000,10.267571044921874,0.0448172390460968,-0.377986878156662,0.36871448159217834
1767708653789570800,10.27757080078125,0.06183771789073944,-0.14702582359313965,0.33936014771461487
1767708653799572000,10.287572021484374,0.09781276434659958,0.19749267399311066,0.41868796944618225
1767708653809572000,10.297572021484376,0.07725612074136734,0.440175861120224,0.5024613738059998
1767708653819573000,10.307572998046876,-0.021043017506599426,0.5725501179695129,0.44522419571876526
1767708653829572900,10.31757275390625,-0.1102675199508667,0.5891762375831604,0.3146963119506836
1767708653839573800,10.32757373046875,-0.16769127547740936,0.5308154225349426,0.24717751145362854
1767708653849574000,10.337573974609375,-0.2012934535741806,0.4234820604324341,0.25804001092910767
1767708653859573800,10.34757373046875,-0.20396913588047028,0.2808648347854614,0.3001595139503479
1767708653869575000,10.357574951171875,-0.19736742973327637,0.11168830096721649,0.3701207637786865
1767708653879574800,10.36757470703125,-0.19061951339244843,-0.04983296990394592,0.47569605708122253
1767708653889576000,10.377575927734375,-0.15182657539844513,-0.14034849405288696,0.6072066426277161
1767708653899576000,10.387576171875,-0.0790943056344986,-0.17929679155349731,0.729024350643158
1767708653909577000,10.397576904296875,0.018200550228357315,-0.1954382061958313,0.803072988986969
1767708653919576800,10.407576904296874,0.11537209153175354,-0.1777077317237854,0.8578655123710632
1767708653929577700,10.41757763671875,0.18573786318302155,-0.15214750170707703,0.9068042635917664
1767708653939577900,10.427577880859374,0.23831982910633087,-0.10418456047773361,0.9358901977539062
1767708653949577700,10.43757763671875,0.27049720287323,-0.050955429673194885,0.9443784356117249
1767708653959579000,10.447578857421876,0.3055979311466217,0.046349797397851944,0.9284963011741638
1767708653969579000,10.4575791015625,0.3427644670009613,0.16167134046554565,0.8966196179389954
1767708653979580000,10.467579833984376,0.3518753945827484,0.23996250331401825,0.8390058279037476
1767708653989580000,10.477580078125,0.31182414293289185,0.28904667496681213,0.7606436610221863
1767708653999581000,10.487580810546875,0.25477975606918335,0.2994013726711273,0.6628584861755371
1767708654009580800,10.497580810546875,0.17461061477661133,0.29317861795425415,0.547592043876648
1767708654019581700,10.507581787109375,0.07585339993238449,0.26595935225486755,0.40677139163017273
1767708654029581800,10.517581787109375,-0.009371480904519558,0.17486564815044403,0.2687693238258362
1767708654039581700,10.527581787109375,-0.0963633731007576,0.04980548098683357,0.1514919549226761
1767708654049582800,10.537582763671875,-0.1594536006450653,-0.07396014034748077,0.08247100561857224
1767708654059583000,10.5475830078125,-0.18173493444919586,-0.22754782438278198,0.08286286890506744
1767708654069584000,10.557583984375,-0.20460377633571625,-0.38400107622146606,0.14100739359855652
1767708654079584000,10.567583984375,-0.24948523938655853,-0.4958533048629761,0.20986129343509674
1767708654089585000,10.5775849609375,-0.30307283997535706,-0.5387833118438721,0.22324469685554504
1767708654099584500,10.58758447265625,-0.35809507966041565,-0.5089462399482727,0.1761050820350647
1767708654109585400,10.59758544921875,-0.40840911865234375,-0.4970594644546509,0.15307965874671936
1767708654119585500,10.60758544921875,-0.36781615018844604,-0.46064260601997375,0.30018600821495056
1767708654129585400,10.61758544921875,-0.19780394434928894,-0.3242088258266449,0.5815227627754211
1767708654139586600,10.627586669921875,0.022153442725539207,-0.13592064380645752,0.7747138142585754
1767708654149586700,10.637586669921875,0.20131412148475647,-0.025210851803421974,0.7116371989250183
1767708654159587600,10.647587646484375,0.3322969377040863,0.07762684673070908,0.42927470803260803
1767708654169587700,10.657587646484375,0.35884013772010803,0.15686120092868805,0.05534078925848007
1767708654179588600,10.667588623046875,0.27763983607292175,0.17197011411190033,-0.2075267881155014
1767708654189588500,10.67758837890625,0.16835564374923706,0.13108544051647186,-0.2772952616214752
1767708654199588600,10.687588623046874,0.0936846062541008,0.05435790866613388,-0.2673534154891968
1767708654209589800,10.69758984375,0.03493398427963257,0.036618441343307495,-0.1874096840620041
1767708654219589600,10.707589599609374,0.03705812245607376,-0.009098446927964687,-0.0035242768935859203
1767708654229590500,10.717590576171874,0.036533650010824203,0.014543631114065647,0.21995392441749573
1767708654239590700,10.727590576171876,0.0698881447315216,0.0033130813390016556,0.3587735891342163
1767708654249591600,10.737591552734376,0.17039303481578827,-0.020473778247833252,0.3804428279399872
1767708654259591700,10.747591796875,0.24065592885017395,-0.08447353541851044,0.3300659954547882
1767708654269592600,10.757592529296875,0.2280818074941635,-0.15388110280036926,0.18989770114421844
1767708654279592400,10.767592529296875,0.15205521881580353,-0.23717333376407623,-0.002832589205354452
1767708654289592600,10.777592529296875,0.05668213963508606,-0.25581157207489014,-0.2127605378627777
1767708654299593700,10.78759375,0.023550819605588913,-0.1529664397239685,-0.3515096604824066
1767708654309593600,10.797593505859375,0.03870844095945358,0.018140923231840134,-0.3621554970741272
1767708654319594500,10.807594482421875,0.03902696445584297,0.19279344379901886,-0.2461848258972168
1767708654329594600,10.8175947265625,-0.03158675134181976,0.4036513566970825,-0.15690821409225464
1767708654339595500,10.827595458984375,-0.12817372381687164,0.6393852233886719,-0.2538693845272064
1767708654349595600,10.837595703125,-0.1586272418498993,0.8415244817733765,-0.46209901571273804
1767708654359596500,10.847596435546874,-0.13377463817596436,0.9081034660339355,-0.5711830854415894
1767708654369596700,10.8575966796875,-0.12966351211071014,0.8027815818786621,-0.5147919654846191
1767708654379596800,10.8675966796875,-0.16870543360710144,0.6132130026817322,-0.39368507266044617
1767708654389597700,10.87759765625,-0.2138902246952057,0.3997979462146759,-0.3291606605052948
1767708654399597600,10.88759765625,-0.2135286033153534,0.2163156419992447,-0.35977602005004883
1767708654409598500,10.897598388671875,-0.16307607293128967,0.10187562555074692,-0.4454733431339264
1767708654419598600,10.9075986328125,-0.08180677145719528,0.025579189881682396,-0.5167627930641174
1767708654429599500,10.917599609375,-0.00821989681571722,-0.041951119899749756,-0.5482770800590515
1767708654439599600,10.927599609375,0.05063671991229057,-0.08482626080513,-0.5497656464576721
1767708654449600800,10.937600830078125,0.12104137241840363,-0.061855971813201904,-0.5366839170455933
1767708654459600600,10.9476005859375,0.16170817613601685,-0.009447731077671051,-0.5329000353813171
1767708654469600800,10.957600830078125,0.13396230340003967,0.09532475471496582,-0.5390831232070923
1767708654479601700,10.9676015625,0.11534936726093292,0.187154158949852,-0.5696136355400085
1767708654489601500,10.9776015625,0.08669242262840271,0.28855669498443604,-0.5908598303794861
1767708654499602400,10.9876025390625,0.042039260268211365,0.400668740272522,-0.600691020488739
1767708654509602600,10.9976025390625,-0.031064243987202644,0.4845263659954071,-0.6176519393920898
1767708654519603500,11.007603515625,-0.09027483314275742,0.5215656161308289,-0.6364942789077759
1767708654529603800,11.017603759765626,-0.13163238763809204,0.5030798316001892,-0.6837883591651917
1767708654539603700,11.027603759765626,-0.12271105498075485,0.5020656585693359,-0.7389876842498779
1767708654549604600,11.0376044921875,-0.08421798795461655,0.5555176734924316,-0.7697901725769043
1767708654559604700,11.047604736328125,-0.028506256639957428,0.5798353552818298,-0.7658125162124634
1767708654569605600,11.057605712890625,0.04671632498502731,0.597980260848999,-0.7285066843032837
1767708654579605500,11.06760546875,0.11918067187070847,0.6168622970581055,-0.6692953109741211
1767708654589606400,11.0776064453125,0.1679372787475586,0.5821698307991028,-0.6159746646881104
1767708654599606500,11.0876064453125,0.20998406410217285,0.4616772532463074,-0.5832047462463379
1767708654609607700,11.097607666015625,0.24789047241210938,0.3093513250350952,-0.574060320854187
1767708654619607800,11.10760791015625,0.2764848470687866,0.18388794362545013,-0.5514868497848511
1767708654629607700,11.117607666015624,0.2548215985298157,0.07993367314338684,-0.4812358319759369
1767708654639608600,11.127608642578124,0.19037336111068726,-0.08759114146232605,-0.37499913573265076
1767708654649608700,11.137608642578124,0.10971999913454056,-0.25527167320251465,-0.2435302585363388
1767708654659609600,11.147609619140624,0.05023222416639328,-0.3534196615219116,-0.12270160019397736
1767708654669609500,11.157609375,-0.003150573931634426,-0.4143402874469757,-0.09185207635164261
1767708654679610400,11.1676103515625,-0.09146127104759216,-0.48508504033088684,-0.1881071925163269
1767708654689610800,11.17761083984375,-0.22206829488277435,-0.5989112257957458,-0.34937357902526855
1767708654699611600,11.187611572265626,-0.375355064868927,-0.7105227112770081,-0.496529757976532
1767708654709611800,11.19761181640625,-0.5023324489593506,-0.7743038535118103,-0.5689710378646851
1767708654719611600,11.207611572265625,-0.5411807894706726,-0.6358016133308411,-0.5120052099227905
1767708654729612500,11.217612548828125,-0.4162777066230774,-0.43226566910743713,-0.3523443937301636
1767708654739612700,11.22761279296875,-0.2261221557855606,-0.24610164761543274,-0.24502138793468475
1767708654749613600,11.237613525390625,-0.09367167949676514,-0.21467003226280212,-0.20949003100395203
1767708654759613400,11.247613525390625,-0.033339910209178925,-0.3175047039985657,-0.20935863256454468
1767708654769614600,11.257614501953125,-0.0387948639690876,-0.41081786155700684,-0.20767605304718018
1767708654779614700,11.26761474609375,-0.12324424088001251,-0.4255756437778473,-0.15746593475341797
1767708654789615600,11.27761572265625,-0.35696858167648315,-0.5091232657432556,-0.08148753643035889
1767708654799615700,11.28761572265625,-0.5752689242362976,-0.7310624122619629,-0.04250790551304817
1767708654809615600,11.29761572265625,-0.5379114151000977,-0.8798697590827942,-0.012984104454517365
1767708654819616500,11.307616455078126,-0.41961705684661865,-0.8256691694259644,0.03810431435704231
1767708654829616600,11.31761669921875,-0.2623518109321594,-0.6323606967926025,0.12778520584106445
1767708654839617500,11.327617431640626,-0.0886777713894844,-0.4924176335334778,0.2731025815010071
1767708654849617700,11.33761767578125,0.05383677035570145,-0.4203175902366638,0.3988479971885681
1767708654859618600,11.34761865234375,0.12224309146404266,-0.3451603949069977,0.44580647349357605
1767708654869618700,11.35761865234375,0.14568264782428741,-0.20682352781295776,0.4466075301170349
1767708654879619600,11.36761962890625,0.17264437675476074,0.023943442851305008,0.5009413957595825
1767708654889619700,11.37761962890625,0.15876397490501404,0.23601175844669342,0.5900565981864929
1767708654899619600,11.38761962890625,0.08474703878164291,0.306303471326828,0.6116107106208801
1767708654909620500,11.397620361328125,0.02804088220000267,0.27371490001678467,0.5607587099075317
1767708654919620600,11.40762060546875,-0.018076568841934204,0.1903657466173172,0.4928453266620636
1767708654929621800,11.417621826171874,-0.05825674533843994,0.08155431598424911,0.44013842940330505
1767708654939621600,11.42762158203125,-0.09550957381725311,-0.06637655943632126,0.3954702913761139
1767708654949622500,11.43762255859375,-0.14047092199325562,-0.2370060831308365,0.3972375690937042
1767708654959622700,11.44762255859375,-0.17839406430721283,-0.37484702467918396,0.4401729106903076
1767708654969622500,11.45762255859375,-0.20812931656837463,-0.45169758796691895,0.5049763917922974
1767708654979623700,11.467623779296876,-0.1775122731924057,-0.4791969954967499,0.5714695453643799
1767708654989623600,11.47762353515625,-0.08214448392391205,-0.48475128412246704,0.6326224207878113
1767708654999624400,11.48762451171875,0.019563503563404083,-0.46770143508911133,0.6761512160301208
1767708655009624800,11.497624755859375,0.12429390102624893,-0.4361187517642975,0.7212144732475281
1767708655019625700,11.507625732421875,0.2520340383052826,-0.3589174449443817,0.7591410875320435
1767708655029625600,11.51762548828125,0.40510401129722595,-0.20279838144779205,0.7829079031944275
1767708655039626500,11.52762646484375,0.5437093377113342,0.0022988421842455864,0.7834828495979309
1767708655049626600,11.537626708984375,0.6002064347267151,0.1963815987110138,0.7350767254829407
1767708655059626500,11.54762646484375,0.59848952293396,0.343833863735199,0.6467790007591248
1767708655069627600,11.557627685546874,0.5694994330406189,0.42670738697052,0.5426003932952881
1767708655079627500,11.56762744140625,0.509800374507904,0.4836708605289459,0.44248247146606445
1767708655089628700,11.577628662109374,0.42724609375,0.4866701066493988,0.33453628420829773
1767708655099628800,11.58762890625,0.340707927942276,0.47092264890670776,0.22584226727485657
1767708655109630000,11.5976298828125,0.24398352205753326,0.3927929699420929,0.12860040366649628
1767708655119629800,11.6076298828125,0.15254628658294678,0.2669500708580017,0.07306765019893646
1767708655129630700,11.617630615234376,0.06007950007915497,0.07110171020030975,0.05492813140153885
1767708655139630800,11.627630859375,-0.06706753373146057,-0.0968199148774147,0.05898572504520416
1767708655149630700,11.637630615234375,-0.19672882556915283,-0.21185797452926636,0.07370435446500778
1767708655159631600,11.647631591796875,-0.2978871464729309,-0.27631518244743347,0.08227641135454178
1767708655169631700,11.6576318359375,-0.35055676102638245,-0.24493809044361115,0.05248469486832619
1767708655179632600,11.667632568359375,-0.36738067865371704,-0.17600446939468384,-0.05299350619316101
1767708655189632800,11.6776328125,-0.3718990087509155,-0.1501433104276657,-0.17745953798294067
1767708655199634000,11.687634033203125,-0.354490727186203,-0.2609936594963074,-0.16023793816566467
1767708655209633800,11.6976337890625,-0.24932894110679626,-0.34885546565055847,0.10059032589197159
1767708655219634000,11.707634033203124,0.05404212325811386,-0.2549486756324768,0.5004879236221313
1767708655229634800,11.717634765625,0.35238492488861084,-0.15867768228054047,0.7383546829223633
1767708655239634700,11.727634765625,0.470915824174881,-0.06660208106040955,0.548825204372406
1767708655249635600,11.737635498046876,0.39232078194618225,0.00035426882095634937,0.11798471957445145
1767708655259635700,11.7476357421875,0.2874775826931,0.0989549309015274,-0.12625840306282043
1767708655269636900,11.757636962890626,0.2701169550418854,0.03701672703027725,-0.050252579152584076
1767708655279636700,11.76763671875,0.2513892650604248,-0.18957780301570892,0.22935251891613007
1767708655289638000,11.777637939453125,0.24277980625629425,-0.3265111446380615,0.5443405508995056
1767708655299637800,11.7876376953125,0.21008236706256866,-0.2831519842147827,0.5978916883468628
1767708655309638000,11.797637939453125,0.22228656709194183,-0.22650468349456787,0.4241122305393219
1767708655319638800,11.807638671875,0.28792116045951843,-0.15275460481643677,0.23268555104732513
1767708655329638700,11.817638671875,0.30452942848205566,-0.17523115873336792,0.15676148235797882
1767708655339639600,11.8276396484375,0.2333751618862152,-0.216195747256279,0.20461086928844452
1767708655349639700,11.8376396484375,0.13798578083515167,-0.2395801693201065,0.24474550783634186
1767708655359640800,11.847640869140625,0.049666792154312134,-0.14776834845542908,0.16812236607074738
1767708655369640700,11.857640625,0.0034345819149166346,0.08886629343032837,0.03530467674136162
1767708655379641900,11.867641845703124,-0.010154453106224537,0.29976511001586914,-0.059802234172821045
1767708655389641700,11.877641845703126,-0.05189710482954979,0.3692438006401062,-0.0943482294678688
1767708655399641900,11.887641845703126,-0.14364959299564362,0.41852685809135437,-0.16553500294685364
1767708655409642800,11.897642822265626,-0.2215755432844162,0.4990765452384949,-0.33121851086616516
1767708655419642600,11.907642578125,-0.2478003054857254,0.5665682554244995,-0.48358744382858276
1767708655429643800,11.917643798828125,-0.2594372630119324,0.5367307662963867,-0.5206277370452881
1767708655439644000,11.927643798828125,-0.32054615020751953,0.41756200790405273,-0.4754446744918823
1767708655449644800,11.937644775390625,-0.4202442467212677,0.24200110137462616,-0.436206191778183
1767708655459644700,11.947644775390625,-0.5055756568908691,0.033112868666648865,-0.37446266412734985
1767708655469644800,11.957644775390625,-0.588615357875824,-0.08443435281515121,-0.40709176659584045
1767708655479645700,11.967645751953125,-0.6077821850776672,-0.19192299246788025,-0.4944489002227783
1767708655489645800,11.977645751953125,-0.5207684636116028,-0.22875425219535828,-0.5768026113510132
1767708655499646700,11.987646728515625,-0.37238460779190063,-0.2170131653547287,-0.5848594903945923
1767708655509646600,11.997646484375,-0.19763804972171783,-0.2312898337841034,-0.558733344078064
1767708655519647700,12.007647705078124,-0.09158005565404892,-0.24553588032722473,-0.5134686231613159
1767708655529647900,12.01764794921875,-0.03972511366009712,-0.243952214717865,-0.47082576155662537
1767708655539648800,12.027648681640626,-0.040952831506729126,-0.20199650526046753,-0.4810267388820648
1767708655549648600,12.037648681640626,-0.03996347263455391,-0.122998908162117,-0.5403085947036743
1767708655559648800,12.047648681640625,-0.022456126287579536,-0.021538086235523224,-0.6261324882507324
1767708655569649700,12.057649658203125,-0.053498197346925735,0.06174907833337784,-0.6862366199493408
1767708655579649800,12.06764990234375,-0.05923377722501755,0.12036983668804169,-0.6869519352912903
1767708655589651000,12.07765087890625,-0.03445226326584816,0.17433160543441772,-0.6600190997123718
1767708655599650800,12.08765087890625,0.0030253338627517223,0.21868814527988434,-0.6262696385383606
1767708655609651700,12.097651611328125,0.03262658789753914,0.25618574023246765,-0.5949355959892273
1767708655619651800,12.10765185546875,0.03906238451600075,0.3043860197067261,-0.5821958780288696
1767708655629652700,12.11765283203125,0.03781203180551529,0.35315874218940735,-0.5820543766021729
1767708655639652600,12.127652587890625,0.03807195648550987,0.34935709834098816,-0.575398325920105
1767708655649652700,12.13765283203125,0.046465709805488586,0.3310297429561615,-0.5346543788909912
1767708655659653600,12.147653564453124,0.0700325295329094,0.26632940769195557,-0.4858327805995941
1767708655669653800,12.15765380859375,0.11970315128564835,0.1955801397562027,-0.4598190188407898
1767708655679655000,12.167655029296874,0.19034774601459503,0.13347744941711426,-0.3999505341053009
1767708655689654800,12.17765478515625,0.2691067159175873,0.041286006569862366,-0.27214065194129944
1767708655699655700,12.18765576171875,0.3245534896850586,-0.0714847519993782,-0.0867883637547493
1767708655709655800,12.19765576171875,0.3484920859336853,-0.158431276679039,0.10324575006961823
1767708655719655700,12.20765576171875,0.3094349801540375,-0.1924382448196411,0.20921877026557922
1767708655729656600,12.217656494140625,0.20432400703430176,-0.20545551180839539,0.15933270752429962
1767708655739656700,12.22765673828125,0.048900917172431946,-0.24403829872608185,-0.03870592266321182
1767708655749657900,12.237657958984375,-0.1668553352355957,-0.32430702447891235,-0.2987215220928192
1767708655759658000,12.247657958984375,-0.40648478269577026,-0.3973454535007477,-0.48770979046821594
1767708655769659000,12.257658935546875,-0.5537500977516174,-0.3525388240814209,-0.5361846089363098
1767708655779658800,12.26765869140625,-0.4716280400753021,-0.16668479144573212,-0.4572393298149109
1767708655789659600,12.27765966796875,-0.22276175022125244,0.0022011632099747658,-0.37569600343704224
1767708655799659800,12.28765966796875,-0.032877594232559204,0.03967604041099548,-0.3602481186389923
1767708655809659600,12.29765966796875,-0.06632690131664276,-0.15370993316173553,-0.42094317078590393
1767708655819660500,12.30766064453125,-0.1459282636642456,-0.2652803361415863,-0.5404675006866455
1767708655829660700,12.31766064453125,-0.1881156712770462,-0.2119755744934082,-0.667214035987854
1767708655839661800,12.327661865234376,-0.3245333433151245,-0.20412832498550415,-0.7411265969276428
1767708655849662000,12.337661865234375,-0.5504916310310364,-0.2400495857000351,-0.6606738567352295
1767708655859662800,12.347662841796875,-0.5994914770126343,-0.34207645058631897,-0.43598759174346924
