time,seconds_elapsed,z,y,x
1768216467968264200,0.04826416015625,0.069671630859375,-0.06597900390625,0.9915618896484375
1768216467978264000,0.05826416015625,0.070159912109375,-0.0644073486328125,0.9910125732421875
1768216467988265000,0.068264892578125,0.07257080078125,-0.0612640380859375,0.994171142578125
1768216467998265900,0.078265869140625,0.0773773193359375,-0.0673828125,0.9974822998046875
1768216468008266000,0.088265869140625,0.0775299072265625,-0.071258544921875,0.999542236328125
1768216468018267000,0.098266845703125,0.0700225830078125,-0.072235107421875,1.00140380859375
1768216468028267000,0.10826708984375,0.069915771484375,-0.0732574462890625,1.0022125244140625
1768216468038268200,0.11826806640625,0.0676116943359375,-0.07012939453125,1.0052490234375
1768216468048269000,0.12826904296875,0.07098388671875,-0.0666656494140625,1.0075836181640625
1768216468058269000,0.13826904296875,0.0766754150390625,-0.06268310546875,1.0042266845703125
1768216468068270000,0.14827001953125,0.076995849609375,-0.058441162109375,0.99920654296875
1768216468078270000,0.15827001953125,0.07586669921875,-0.059661865234375,1.0003509521484375
1768216468088270800,0.168270751953125,0.075408935546875,-0.0588531494140625,1.000640869140625
1768216468098271200,0.178271240234375,0.0746002197265625,-0.059967041015625,1.00067138671875
1768216468108272000,0.188272216796875,0.07720947265625,-0.0621795654296875,1.004302978515625
1768216468118273000,0.19827294921875,0.075958251953125,-0.0663909912109375,1.0052337646484375
1768216468128273000,0.20827294921875,0.06915283203125,-0.071075439453125,0.99908447265625
1768216468138274000,0.218274169921875,0.0608062744140625,-0.0730133056640625,0.99554443359375
1768216468148274000,0.22827392578125,0.06005859375,-0.0717315673828125,0.9944610595703125
1768216468158275000,0.238275146484375,0.0656585693359375,-0.070526123046875,0.9952239990234375
1768216468168275200,0.248275146484375,0.064605712890625,-0.06927490234375,0.993499755859375
1768216468178276000,0.258276123046875,0.0645751953125,-0.0690765380859375,0.990997314453125
1768216468188277000,0.268277099609375,0.062591552734375,-0.0683441162109375,0.9885406494140625
1768216468198277000,0.278277099609375,0.0533294677734375,-0.066131591796875,0.9891357421875
1768216468208278000,0.288278076171875,0.058441162109375,-0.0638427734375,0.9879913330078125
1768216468218278000,0.29827783203125,0.0658111572265625,-0.0637969970703125,0.987548828125
1768216468228279000,0.308279052734375,0.0667266845703125,-0.0610198974609375,0.99359130859375
1768216468238279200,0.318279052734375,0.069732666015625,-0.0596466064453125,0.99859619140625
1768216468248280000,0.328280029296875,0.063385009765625,-0.059234619140625,1.001373291015625
1768216468258281000,0.338281005859375,0.0635833740234375,-0.059814453125,0.9998626708984375
1768216468268281000,0.348281005859375,0.0611572265625,-0.0640411376953125,0.9958648681640625
1768216468278282000,0.358281982421875,0.05950927734375,-0.06524658203125,0.9944610595703125
1768216468288281900,0.36828173828125,0.0624237060546875,-0.065643310546875,0.997100830078125
1768216468298283000,0.378282958984375,0.0621185302734375,-0.0699615478515625,0.9979248046875
1768216468308283100,0.388283203125,0.0635986328125,-0.07061767578125,0.9991912841796875
1768216468318284000,0.398283935546875,0.0626983642578125,-0.0699005126953125,0.9951629638671875
1768216468328285000,0.408284912109375,0.059844970703125,-0.067718505859375,0.993438720703125
1768216468338284800,0.418284912109375,0.058807373046875,-0.0652008056640625,0.99615478515625
1768216468348285700,0.42828564453125,0.057525634765625,-0.0626373291015625,0.99627685546875
1768216468358285600,0.43828564453125,0.061492919921875,-0.06256103515625,0.99700927734375
1768216468368287000,0.448286865234375,0.0633392333984375,-0.061676025390625,0.9949798583984375
1768216468378287900,0.458287841796875,0.0621185302734375,-0.062103271484375,0.9952239990234375
1768216468388287700,0.468287841796875,0.062835693359375,-0.060302734375,0.99761962890625
1768216468398288600,0.47828857421875,0.0671539306640625,-0.06256103515625,1.0013885498046875
1768216468408288800,0.488288818359375,0.06390380859375,-0.0651702880859375,1.001495361328125
1768216468418289700,0.49828955078125,0.0606842041015625,-0.063629150390625,0.999237060546875
1768216468428289500,0.50828955078125,0.06182861328125,-0.0631103515625,0.9992523193359375
1768216468438291000,0.518291015625,0.0614776611328125,-0.0637664794921875,0.9994354248046875
1768216468448291800,0.528291748046875,0.06634521484375,-0.065399169921875,0.998687744140625
1768216468458291700,0.538291748046875,0.0664520263671875,-0.06536865234375,0.9982757568359375
1768216468468292600,0.548292724609375,0.066558837890625,-0.0641326904296875,0.9986572265625
1768216468478292700,0.558292724609375,0.0627899169921875,-0.06744384765625,0.9984588623046875
1768216468488294000,0.5682939453125,0.058319091796875,-0.0632476806640625,0.995391845703125
1768216468498294800,0.578294677734375,0.057708740234375,-0.06329345703125,0.994842529296875
1768216468508295000,0.588294921875,0.057708740234375,-0.0611114501953125,0.997161865234375
1768216468518295800,0.5982958984375,0.059844970703125,-0.0610809326171875,0.996917724609375
1768216468528295700,0.608295654296875,0.058685302734375,-0.0652313232421875,0.9983367919921875
1768216468538296600,0.618296630859375,0.0617828369140625,-0.06732177734375,1.0045013427734375
1768216468548296700,0.628296630859375,0.05780029296875,-0.0667724609375,0.9989776611328125
1768216468558297900,0.6382978515625,0.0667877197265625,-0.0654449462890625,0.99871826171875
1768216468568298800,0.648298828125,0.0657958984375,-0.0650177001953125,0.9988861083984375
1768216468578299000,0.658298828125,0.0591278076171875,-0.0629119873046875,0.9986114501953125
1768216468588299800,0.6682998046875,0.0565338134765625,-0.058319091796875,0.9973602294921875
1768216468598299600,0.678299560546875,0.057037353515625,-0.0587005615234375,0.99676513671875
1768216468608300800,0.68830078125,0.0578460693359375,-0.0587310791015625,0.99725341796875
1768216468618300700,0.69830078125,0.0537109375,-0.061065673828125,0.9968414306640625
1768216468628301800,0.7083017578125,0.0485687255859375,-0.0619354248046875,0.9957427978515625
1768216468638302700,0.718302734375,0.0505523681640625,-0.0620269775390625,0.99468994140625
1768216468648302800,0.728302734375,0.0554656982421875,-0.0623626708984375,0.9942779541015625
1768216468658303700,0.7383037109375,0.054840087890625,-0.06298828125,0.9956512451171875
1768216468668303600,0.7483037109375,0.0523681640625,-0.061798095703125,0.9964599609375
1768216468678304800,0.7583046875,0.0548095703125,-0.063232421875,0.999664306640625
1768216468688306000,0.768305908203125,0.0564422607421875,-0.062835693359375,1.00152587890625
1768216468698305800,0.778305908203125,0.0592041015625,-0.0590362548828125,1.0014495849609375
1768216468708306700,0.788306640625,0.056884765625,-0.0593414306640625,1.0003204345703125
1768216468718306800,0.798306884765625,0.0534820556640625,-0.05926513671875,1.000152587890625
1768216468728307700,0.8083076171875,0.0561676025390625,-0.058197021484375,0.9997406005859375
1768216468738307800,0.818307861328125,0.0602569580078125,-0.0599212646484375,1.0020751953125
1768216468748308700,0.828308837890625,0.05908203125,-0.061492919921875,1.001708984375
1768216468758310000,0.838309814453125,0.057586669921875,-0.060028076171875,0.9994354248046875
1768216468768309800,0.848309814453125,0.05584716796875,-0.0601959228515625,0.9979705810546875
1768216468778310700,0.858310546875,0.055877685546875,-0.0584869384765625,0.9972381591796875
1768216468788310800,0.868310791015625,0.0561370849609375,-0.05804443359375,1.000213623046875
1768216468798311700,0.878311767578125,0.058563232421875,-0.0598907470703125,1.0024871826171875
1768216468808312600,0.8883125,0.0552215576171875,-0.0603179931640625,1.000396728515625
1768216468818313000,0.89831298828125,0.052032470703125,-0.061798095703125,0.9958953857421875
1768216468828313900,0.90831396484375,0.0557098388671875,-0.0597686767578125,0.9951019287109375
1768216468838313700,0.918313720703125,0.0512237548828125,-0.057098388671875,0.993988037109375
1768216468848315000,0.92831494140625,0.0453338623046875,-0.0556182861328125,0.993743896484375
1768216468858314800,0.938314697265625,0.046234130859375,-0.0559539794921875,0.9953155517578125
1768216468868315600,0.948315673828125,0.053558349609375,-0.054901123046875,0.99615478515625
1768216468878316800,0.95831689453125,0.05462646484375,-0.0543365478515625,0.9978790283203125
1768216468888317000,0.96831689453125,0.053863525390625,-0.0561676025390625,0.9974212646484375
1768216468898317800,0.97831787109375,0.0573272705078125,-0.0561676025390625,1.001922607421875
1768216468908317700,0.988317626953125,0.058441162109375,-0.058074951171875,1.0032806396484375
1768216468918318800,0.99831884765625,0.054534912109375,-0.0592498779296875,0.9999237060546875
1768216468928319700,1.00831982421875,0.055267333984375,-0.0588226318359375,0.998748779296875
1768216468938319600,1.018319580078125,0.0560760498046875,-0.0615386962890625,0.996856689453125
1768216468948320800,1.02832080078125,0.05340576171875,-0.061279296875,0.9967498779296875
1768216468958321000,1.03832080078125,0.050506591796875,-0.06134033203125,0.9945831298828125
1768216468968321800,1.04832177734375,0.04962158203125,-0.0604400634765625,0.9961090087890625
1768216468978321700,1.05832177734375,0.05303955078125,-0.0602874755859375,0.999359130859375
1768216468988322800,1.06832275390625,0.0550689697265625,-0.0593109130859375,0.9984283447265625
1768216468998323700,1.07832373046875,0.0507965087890625,-0.05908203125,0.997802734375
1768216469008323600,1.088323486328125,0.0504150390625,-0.0579833984375,1.0011138916015625
1768216469018324700,1.09832470703125,0.0537567138671875,-0.057281494140625,1.0002288818359375
1768216469028324900,1.108324951171875,0.058258056640625,-0.0560302734375,1.0019989013671875
1768216469038325800,1.11832568359375,0.0578460693359375,-0.0546875,1.003997802734375
1768216469048326700,1.12832666015625,0.0557708740234375,-0.0509490966796875,1.0004119873046875
1768216469058326800,1.138326904296875,0.048980712890625,-0.054962158203125,0.9966278076171875
1768216469068327700,1.14832763671875,0.0423583984375,-0.0554351806640625,0.9926605224609375
1768216469078327600,1.15832763671875,0.0438079833984375,-0.0522003173828125,0.998046875
1768216469088329000,1.168328857421875,0.044647216796875,-0.0514373779296875,0.9987640380859375
1768216469098328800,1.178328857421875,0.0608367919921875,-0.0525665283203125,1.0066680908203125
1768216469108329700,1.188329833984375,0.067047119140625,-0.0573272705078125,1.0090484619140625
1768216469118330600,1.19833056640625,0.060028076171875,-0.059234619140625,1.009796142578125
1768216469128330800,1.208330810546875,0.053131103515625,-0.0638427734375,1.001983642578125
1768216469138331600,1.21833154296875,0.0555419921875,-0.06011962890625,0.9974212646484375
1768216469148331800,1.228331787109375,0.051483154296875,-0.0581512451171875,0.9936370849609375
1768216469158333000,1.2383330078125,0.051971435546875,-0.055694580078125,0.994964599609375
1768216469168333800,1.248333740234375,0.0545654296875,-0.052734375,0.9988555908203125
1768216469178333700,1.258333740234375,0.05169677734375,-0.05010986328125,0.9963226318359375
1768216469188334600,1.26833447265625,0.05218505859375,-0.0502777099609375,0.996368408203125
1768216469198334700,1.278334716796875,0.0544586181640625,-0.0512847900390625,0.9989471435546875
1768216469208336000,1.2883359375,0.0566558837890625,-0.05255126953125,1.0015716552734375
1768216469218335700,1.298335693359375,0.05548095703125,-0.0510406494140625,1.0020904541015625
1768216469228337000,1.3083369140625,0.051025390625,-0.052398681640625,0.997711181640625
1768216469238337800,1.318337890625,0.0505218505859375,-0.053375244140625,0.9978485107421875
1768216469248337700,1.328337646484375,0.048309326171875,-0.051788330078125,0.995635986328125
1768216469258338800,1.3383388671875,0.0489654541015625,-0.0543060302734375,0.9968414306640625
1768216469268338700,1.348338623046875,0.0515289306640625,-0.05377197265625,0.999908447265625
1768216469278339800,1.35833984375,0.0509490966796875,-0.052825927734375,0.9991607666015625
1768216469288340000,1.368340087890625,0.0535125732421875,-0.053619384765625,1.002227783203125
1768216469298340900,1.3783408203125,0.05450439453125,-0.052947998046875,1.0019683837890625
1768216469308341800,1.388341796875,0.054931640625,-0.0535430908203125,0.99798583984375
1768216469318341600,1.398341552734375,0.05767822265625,-0.056640625,0.99951171875
1768216469328342800,1.4083427734375,0.053253173828125,-0.05609130859375,0.9978790283203125
1768216469338342700,1.4183427734375,0.0516510009765625,-0.0564117431640625,0.99969482421875
1768216469348343600,1.428343505859375,0.0495452880859375,-0.0562744140625,0.996826171875
1768216469358344400,1.438344482421875,0.049530029296875,-0.054962158203125,0.9964752197265625
1768216469368344600,1.448344482421875,0.05523681640625,-0.0552978515625,0.99932861328125
1768216469378345500,1.458345458984375,0.05657958984375,-0.05462646484375,0.998382568359375
1768216469388345600,1.468345703125,0.0571441650390625,-0.0541534423828125,0.9965972900390625
1768216469398346800,1.4783466796875,0.0558013916015625,-0.053955078125,0.9975738525390625
1768216469408347600,1.48834765625,0.063446044921875,-0.05615234375,1.0018463134765625
1768216469418347500,1.498347412109375,0.0678253173828125,-0.060333251953125,1.0054931640625
1768216469428348400,1.508348388671875,0.0619049072265625,-0.0619049072265625,1.005706787109375
1768216469438348500,1.5183486328125,0.053558349609375,-0.0599212646484375,1.0035552978515625
1768216469448349700,1.528349609375,0.046905517578125,-0.0604400634765625,0.99774169921875
1768216469458349800,1.538349853515625,0.0490570068359375,-0.057464599609375,0.9935302734375
1768216469468350700,1.548350830078125,0.051544189453125,-0.0551910400390625,0.990478515625
1768216469478351600,1.5583515625,0.0496673583984375,-0.0567169189453125,0.9923858642578125
1768216469488351500,1.5683515625,0.051849365234375,-0.0565643310546875,0.9940643310546875
1768216469498352600,1.5783525390625,0.053192138671875,-0.0544281005859375,0.999847412109375
1768216469508352500,1.5883525390625,0.0521392822265625,-0.051177978515625,1.000579833984375
1768216469518353700,1.598353759765625,0.051788330078125,-0.05035400390625,1.00164794921875
1768216469528354600,1.6083544921875,0.0489959716796875,-0.051025390625,1.0006866455078125
1768216469538354700,1.618354736328125,0.051422119140625,-0.0508575439453125,1.0004119873046875
1768216469548355600,1.62835546875,0.052490234375,-0.0498809814453125,0.9996490478515625
1768216469558355500,1.63835546875,0.05755615234375,-0.05126953125,1.0003509521484375
1768216469568356600,1.648356689453125,0.0556488037109375,-0.056243896484375,0.999053955078125
1768216469578356500,1.6583564453125,0.05078125,-0.0598297119140625,0.996734619140625
1768216469588357600,1.668357666015625,0.0460662841796875,-0.060089111328125,0.994384765625
1768216469598358500,1.678358642578125,0.046966552734375,-0.0598297119140625,0.994598388671875
1768216469608358700,1.688358642578125,0.0470428466796875,-0.0579681396484375,0.9961700439453125
1768216469618359600,1.698359619140625,0.054473876953125,-0.0592193603515625,0.9986114501953125
1768216469628359700,1.708359619140625,0.0518035888671875,-0.0579986572265625,1.003692626953125
1768216469638360600,1.718360595703125,0.0548858642578125,-0.0559234619140625,1.0040283203125
1768216469648361700,1.72836181640625,0.0546875,-0.0578460693359375,1.0027008056640625
1768216469658361600,1.738361572265625,0.05718994140625,-0.056365966796875,1.0059814453125
1768216469668362500,1.748362548828125,0.059539794921875,-0.0535125732421875,0.9996795654296875
1768216469678362600,1.758362548828125,0.065093994140625,-0.053436279296875,0.999114990234375
1768216469688363500,1.768363525390625,0.0548095703125,-0.04901123046875,0.9945526123046875
1768216469698364400,1.778364501953125,0.05816650390625,-0.0546417236328125,0.9988861083984375
1768216469708364500,1.788364501953125,0.055877685546875,-0.055023193359375,0.9969482421875
1768216469718365700,1.79836572265625,0.05438232421875,-0.0581207275390625,0.9949951171875
1768216469728365600,1.808365478515625,0.050018310546875,-0.059112548828125,0.9944305419921875
1768216469738366700,1.81836669921875,0.0499267578125,-0.0573883056640625,0.9962615966796875
1768216469748366600,1.82836669921875,0.0604095458984375,-0.0568695068359375,0.9976348876953125
1768216469758367500,1.838367431640625,0.0569305419921875,-0.0561981201171875,1.0034332275390625
1768216469768368600,1.84836865234375,0.053192138671875,-0.0565032958984375,1.0033111572265625
1768216469778368800,1.85836865234375,0.054351806640625,-0.0533599853515625,1.00146484375
1768216469788369700,1.86836962890625,0.0514068603515625,-0.05462646484375,1.000823974609375
1768216469798369500,1.87836962890625,0.0535430908203125,-0.0524444580078125,0.9998931884765625
1768216469808370700,1.88837060546875,0.0534820556640625,-0.0523834228515625,0.99786376953125
1768216469818371600,1.89837158203125,0.0533447265625,-0.053253173828125,0.995086669921875
1768216469828371500,1.908371337890625,0.053070068359375,-0.0542449951171875,0.995269775390625
1768216469838372600,1.91837255859375,0.0526580810546875,-0.05450439453125,0.9980010986328125
1768216469848372700,1.928372802734375,0.0510406494140625,-0.0552520751953125,0.9977569580078125
1768216469858373600,1.93837353515625,0.049224853515625,-0.0541229248046875,0.9949493408203125
1768216469868373800,1.948373779296875,0.0500335693359375,-0.05462646484375,0.9996185302734375
1768216469878374700,1.958374755859375,0.0506591796875,-0.0550994873046875,1.004638671875
1768216469888375600,1.96837548828125,0.05474853515625,-0.0556640625,1.0076141357421875
1768216469898375400,1.97837548828125,0.0519256591796875,-0.0544891357421875,1.001922607421875
1768216469908376600,1.98837646484375,0.048858642578125,-0.054595947265625,0.9975433349609375
1768216469918376700,1.998376708984375,0.0471038818359375,-0.055755615234375,0.9972991943359375
1768216469928377600,2.008377685546875,0.0463714599609375,-0.0551605224609375,0.997955322265625
1768216469938378500,2.01837841796875,0.0470123291015625,-0.05535888671875,0.998199462890625
1768216469948378600,2.028378662109375,0.04656982421875,-0.054901123046875,0.9996795654296875
1768216469958379500,2.038379638671875,0.0513763427734375,-0.0539398193359375,1.000213623046875
1768216469968379400,2.04837939453125,0.0537872314453125,-0.0549468994140625,1.00054931640625
1768216469978380800,2.058380859375,0.051055908203125,-0.0535736083984375,0.9991302490234375
1768216469988381700,2.068381591796875,0.050140380859375,-0.055450439453125,0.99951171875
1768216469998381600,2.078381591796875,0.0510711669921875,-0.0569000244140625,0.9998321533203125
1768216470008382500,2.088382568359375,0.0479736328125,-0.0557861328125,0.997955322265625
1768216470018382600,2.098382568359375,0.044891357421875,-0.05694580078125,0.9994049072265625
1768216470028383500,2.108383544921875,0.046905517578125,-0.055389404296875,1.001007080078125
1768216470038383400,2.11838330078125,0.046356201171875,-0.055145263671875,0.9984893798828125
1768216470048384800,2.128384765625,0.0481719970703125,-0.055328369140625,0.9978179931640625
1768216470058385700,2.1383857421875,0.0509490966796875,-0.054534912109375,0.9992523193359375
1768216470068385500,2.148385498046875,0.04986572265625,-0.0549163818359375,1.0003509521484375
1768216470078386400,2.158386474609375,0.0513153076171875,-0.0530853271484375,1.0015869140625
1768216470088386600,2.168386474609375,0.050384521484375,-0.0528106689453125,0.999176025390625
1768216470098387700,2.1783876953125,0.0528106689453125,-0.0538787841796875,0.998687744140625
1768216470108388600,2.188388671875,0.0501556396484375,-0.0556793212890625,0.9974365234375
1768216470118388700,2.198388671875,0.046051025390625,-0.0575714111328125,0.9974822998046875
1768216470128389600,2.2083896484375,0.04571533203125,-0.058746337890625,0.998809814453125
1768216470138389500,2.218389404296875,0.0490264892578125,-0.056976318359375,0.9973297119140625
1768216470148390700,2.228390625,0.051544189453125,-0.056060791015625,0.9981842041015625
1768216470158391800,2.238391845703125,0.0487823486328125,-0.0556182861328125,0.9994049072265625
1768216470168391700,2.2483916015625,0.0470428466796875,-0.054534912109375,1.000335693359375
1768216470178392600,2.258392578125,0.0465240478515625,-0.055511474609375,1.0011138916015625
1768216470188392700,2.268392822265625,0.0478363037109375,-0.0545501708984375,1.0005950927734375
1768216470198393600,2.2783935546875,0.0475921630859375,-0.0540313720703125,0.9993896484375
1768216470208394500,2.28839453125,0.0463104248046875,-0.0512542724609375,0.9967041015625
1768216470218394600,2.29839453125,0.05010986328125,-0.053192138671875,0.9930572509765625
1768216470228395800,2.308395751953125,0.0543212890625,-0.053802490234375,0.99481201171875
1768216470238395600,2.318395751953125,0.053253173828125,-0.05450439453125,0.9976806640625
1768216470248396500,2.328396484375,0.05352783203125,-0.0574798583984375,0.9959564208984375
1768216470258396700,2.338396728515625,0.0457305908203125,-0.0585784912109375,1.00030517578125
1768216470268397600,2.3483974609375,0.0424041748046875,-0.05908203125,0.9997711181640625
1768216470278398500,2.3583984375,0.0459747314453125,-0.058837890625,1.001373291015625
1768216470288398600,2.368398681640625,0.0457916259765625,-0.057220458984375,1.0009765625
1768216470298399700,2.378399658203125,0.05023193359375,-0.053955078125,1.0009918212890625
1768216470308399600,2.388399658203125,0.048492431640625,-0.0553131103515625,0.9990081787109375
1768216470318400500,2.398400390625,0.04693603515625,-0.0524444580078125,0.996490478515625
1768216470328401700,2.408401611328125,0.048492431640625,-0.0517730712890625,0.99761962890625
1768216470338402600,2.418402587890625,0.058868408203125,-0.051666259765625,1.0018463134765625
1768216470348403500,2.428403564453125,0.058807373046875,-0.054168701171875,1.0027618408203125
1768216470358403300,2.4384033203125,0.051239013671875,-0.0560760498046875,1.0012359619140625
1768216470368404500,2.448404541015625,0.0483551025390625,-0.054718017578125,0.999267578125
1768216470378405400,2.4584052734375,0.046478271484375,-0.05682373046875,0.998443603515625
1768216470388405200,2.4684052734375,0.04962158203125,-0.0564117431640625,1.0006866455078125
1768216470398406400,2.478406494140625,0.049407958984375,-0.0553436279296875,0.9976043701171875
1768216470408406500,2.488406494140625,0.047637939453125,-0.05316162109375,0.9964447021484375
1768216470418407400,2.498407470703125,0.044677734375,-0.0536651611328125,0.99456787109375
1768216470428407600,2.508407470703125,0.04705810546875,-0.0531158447265625,0.9974517822265625
1768216470438408400,2.518408447265625,0.0504302978515625,-0.0518341064453125,0.99822998046875
1768216470448409300,2.528409423828125,0.0511016845703125,-0.05035400390625,0.998870849609375
1768216470458409200,2.5384091796875,0.0502777099609375,-0.0506744384765625,0.9994354248046875
1768216470468410400,2.548410400390625,0.0519256591796875,-0.0530853271484375,0.999908447265625
1768216470478410500,2.558410400390625,0.052276611328125,-0.0539093017578125,1.0002288818359375
1768216470488411400,2.568411376953125,0.0505218505859375,-0.0566253662109375,0.998687744140625
1768216470498412300,2.578412353515625,0.0503082275390625,-0.057098388671875,0.998046875
1768216470508412400,2.588412353515625,0.048919677734375,-0.05499267578125,0.9982452392578125
1768216470518413300,2.598413330078125,0.0519866943359375,-0.0536346435546875,0.99798583984375
1768216470528413200,2.6084130859375,0.04962158203125,-0.05364990234375,0.997894287109375
1768216470538414600,2.61841455078125,0.04998779296875,-0.0550994873046875,0.9988555908203125
1768216470548415500,2.62841552734375,0.05157470703125,-0.0570220947265625,1.0013427734375
1768216470558415400,2.638415283203125,0.05047607421875,-0.0564727783203125,1.004852294921875
1768216470568416300,2.648416259765625,0.0533294677734375,-0.0566558837890625,1.003662109375
1768216470578416400,2.65841650390625,0.0522003173828125,-0.057037353515625,1.0017242431640625
1768216470588417300,2.668417236328125,0.0493011474609375,-0.0556488037109375,0.998291015625
1768216470598418400,2.67841845703125,0.0495452880859375,-0.053009033203125,0.9996795654296875
1768216470608418600,2.68841845703125,0.0515899658203125,-0.0511627197265625,0.9969635009765625
1768216470618419500,2.69841943359375,0.0482940673828125,-0.0516357421875,0.9969024658203125
1768216470628419300,2.70841943359375,0.0470428466796875,-0.051666259765625,0.99908447265625
1768216470638420200,2.718420166015625,0.049774169921875,-0.0536346435546875,0.9986419677734375
1768216470648420400,2.72842041015625,0.0486907958984375,-0.0553436279296875,0.99658203125
1768216470658421200,2.738421142578125,0.0471649169921875,-0.05548095703125,0.9954986572265625
1768216470668422400,2.74842236328125,0.049163818359375,-0.0552825927734375,0.9956207275390625
1768216470678422500,2.758422607421875,0.0530242919921875,-0.0555877685546875,0.9963836669921875
1768216470688423400,2.76842333984375,0.0550384521484375,-0.0533905029296875,0.9968414306640625
1768216470698423300,2.77842333984375,0.0530242919921875,-0.0526885986328125,0.9967041015625
1768216470708424400,2.788424560546875,0.0545654296875,-0.05377197265625,1.001953125
1768216470718425600,2.798425537109375,0.0518035888671875,-0.0544586181640625,1.0008544921875
1768216470728425500,2.808425537109375,0.0499267578125,-0.0554351806640625,1.0035552978515625
1768216470738426400,2.81842626953125,0.053436279296875,-0.0569610595703125,1.0023345947265625
1768216470748426500,2.828426513671875,0.053131103515625,-0.057952880859375,0.9976043701171875
1768216470758427400,2.838427490234375,0.0511016845703125,-0.0551910400390625,0.9958953857421875
1768216470768428300,2.84842822265625,0.0545654296875,-0.0540313720703125,0.9959869384765625
1768216470778428400,2.858428466796875,0.0524749755859375,-0.053985595703125,0.9955291748046875
1768216470788429600,2.8684296875,0.052093505859375,-0.0550689697265625,0.99664306640625
1768216470798429400,2.878429443359375,0.0491943359375,-0.0552215576171875,0.9967498779296875
1768216470808430300,2.888430419921875,0.0487213134765625,-0.0547943115234375,0.995025634765625
1768216470818430500,2.898430419921875,0.0481414794921875,-0.0548553466796875,0.99560546875
1768216470828431400,2.908431396484375,0.0544281005859375,-0.0550079345703125,0.9989471435546875
1768216470838432300,2.918432373046875,0.0564117431640625,-0.053009033203125,1.0014190673828125
1768216470848432400,2.928432373046875,0.0575103759765625,-0.052001953125,0.9993438720703125
1768216470858433500,2.93843359375,0.0561676025390625,-0.051849365234375,1.000701904296875
1768216470868433400,2.948433349609375,0.0512542724609375,-0.054229736328125,1.0024566650390625
1768216470878434300,2.958434326171875,0.04705810546875,-0.053741455078125,1.0004119873046875
1768216470888435500,2.968435546875,0.0490875244140625,-0.0536041259765625,0.998382568359375
1768216470898435300,2.978435302734375,0.0518798828125,-0.053009033203125,0.996185302734375
1768216470908436200,2.988436279296875,0.051788330078125,-0.055572509765625,0.996795654296875
1768216470918436400,2.998436279296875,0.0520477294921875,-0.0554656982421875,0.99993896484375
1768216470928437500,3.0084375,0.053009033203125,-0.0547943115234375,0.99517822265625
1768216470938438400,3.0184384765625,0.052459716796875,-0.05828857421875,0.99603271484375
1768216470948438500,3.0284384765625,0.0504150390625,-0.057769775390625,0.9982147216796875
1768216470958439400,3.038439453125,0.05145263671875,-0.056549072265625,0.9976806640625
1768216470968439300,3.048439208984375,0.0523223876953125,-0.05474853515625,1.0004730224609375
1768216470978440200,3.058440185546875,0.05499267578125,-0.052490234375,1.002197265625
1768216470988441300,3.06844140625,0.0558624267578125,-0.0544586181640625,1.0026397705078125
1768216470998441500,3.07844140625,0.05438232421875,-0.054595947265625,1.0013580322265625
1768216471008442400,3.0884423828125,0.052642822265625,-0.0538177490234375,0.997406005859375
1768216471018442500,3.0984423828125,0.0530242919921875,-0.0549468994140625,1.0004119873046875
1768216471028443400,3.108443359375,0.0522918701171875,-0.055755615234375,1.001983642578125
1768216471038444300,3.1184443359375,0.04913330078125,-0.056549072265625,1.0006561279296875
1768216471048444400,3.1284443359375,0.0495147705078125,-0.05377197265625,1.00006103515625
1768216471058445600,3.138445556640625,0.0535736083984375,-0.0536956787109375,1.0004425048828125
1768216471068445400,3.148445556640625,0.052947998046875,-0.053741455078125,0.99908447265625
1768216471078446300,3.1584462890625,0.0518798828125,-0.05523681640625,0.9999847412109375
1768216471088446500,3.168446533203125,0.0509185791015625,-0.0523834228515625,0.998321533203125
1768216471098447400,3.178447265625,0.055267333984375,-0.0539703369140625,0.9981536865234375
1768216471108448500,3.188448486328125,0.0554962158203125,-0.05194091796875,0.9983367919921875
1768216471118448400,3.198448486328125,0.059478759765625,-0.0534820556640625,0.9994049072265625
1768216471128449500,3.208449462890625,0.0545196533203125,-0.054168701171875,0.998809814453125
1768216471138449400,3.218449462890625,0.0529632568359375,-0.0563507080078125,0.999176025390625
1768216471148450300,3.2284501953125,0.0482025146484375,-0.054962158203125,0.9996337890625
1768216471158451200,3.238451171875,0.04632568359375,-0.0536041259765625,0.994140625
1768216471168451300,3.248451416015625,0.0523681640625,-0.052398681640625,0.9979248046875
1768216471178452500,3.258452392578125,0.055267333984375,-0.0546112060546875,0.9978485107421875
1768216471188452600,3.26845263671875,0.0527801513671875,-0.0531158447265625,0.9959869384765625
1768216471198453500,3.27845361328125,0.05438232421875,-0.0488128662109375,0.995269775390625
1768216471208454400,3.288454345703125,0.061065673828125,-0.0512847900390625,0.9981842041015625
1768216471218454300,3.298454345703125,0.0618438720703125,-0.052276611328125,0.999053955078125
1768216471228455400,3.308455322265625,0.0591888427734375,-0.052520751953125,1.00018310546875
1768216471238455300,3.318455322265625,0.058349609375,-0.05517578125,1.00372314453125
1768216471248456400,3.32845654296875,0.063201904296875,-0.059326171875,1.001861572265625
1768216471258457300,3.338457275390625,0.0604095458984375,-0.056640625,1.0045928955078125
1768216471268457500,3.34845751953125,0.0558319091796875,-0.0591278076171875,1.005035400390625
1768216471278458400,3.358458251953125,0.0572509765625,-0.055999755859375,1.0067596435546875
1768216471288458200,3.368458251953125,0.0645904541015625,-0.0552825927734375,1.004547119140625
1768216471298459400,3.37845947265625,0.0597381591796875,-0.055908203125,0.9990386962890625
1768216471308460500,3.38846044921875,0.0557403564453125,-0.0530242919921875,0.9971923828125
1768216471318460400,3.39846044921875,0.056854248046875,-0.0504150390625,0.9971923828125
1768216471328461300,3.40846142578125,0.0570526123046875,-0.05072021484375,0.996734619140625
1768216471338461000,3.4184609375,0.055084228515625,-0.05352783203125,0.9973297119140625
1768216471348461800,3.4284619140625,0.054962158203125,-0.0535888671875,0.99639892578125
1768216471358462000,3.4384619140625,0.057861328125,-0.05645751953125,0.9981842041015625
1768216471368462800,3.448462890625,0.0586395263671875,-0.0559234619140625,0.998779296875
1768216471378464000,3.458464111328125,0.05706787109375,-0.0541229248046875,0.99713134765625
1768216471388463900,3.4684638671875,0.059600830078125,-0.0554046630859375,0.9971771240234375
1768216471398465000,3.478465087890625,0.0595550537109375,-0.0522003173828125,0.9990081787109375
1768216471408465000,3.48846484375,0.063568115234375,-0.054229736328125,0.99945068359375
1768216471418465800,3.4984658203125,0.0616302490234375,-0.0558929443359375,1.0016326904296875
1768216471428466700,3.508466796875,0.05718994140625,-0.0579986572265625,1.001251220703125
1768216471438466800,3.518466796875,0.0570526123046875,-0.0564727783203125,0.9998321533203125
1768216471448468000,3.528468017578125,0.0543975830078125,-0.0555267333984375,1.0015716552734375
1768216471458467800,3.5384677734375,0.05743408203125,-0.0552825927734375,1.0001068115234375
1768216471468469000,3.548468994140625,0.0557098388671875,-0.051971435546875,0.9995880126953125
1768216471478470000,3.558469970703125,0.0558013916015625,-0.053802490234375,0.9983367919921875
1768216471488469800,3.5684697265625,0.05511474609375,-0.0534515380859375,0.9980010986328125
1768216471498470700,3.578470703125,0.0486297607421875,-0.0523681640625,0.99560546875
1768216471508471000,3.588470947265625,0.0477752685546875,-0.0508270263671875,0.9946441650390625
1768216471518472000,3.598471923828125,0.0438385009765625,-0.0532379150390625,0.9931488037109375
1768216471528472800,3.608472900390625,0.050384521484375,-0.0539093017578125,0.99212646484375
1768216471538473000,3.618472900390625,0.0562744140625,-0.05511474609375,0.9962158203125
1768216471548473900,3.628473876953125,0.0578460693359375,-0.0554656982421875,0.9972076416015625
1768216471558473700,3.6384736328125,0.0596466064453125,-0.0533905029296875,0.9969024658203125
1768216471568475100,3.64847509765625,0.058319091796875,-0.0535736083984375,0.9979248046875
1768216471578475000,3.65847509765625,0.0561981201171875,-0.0527801513671875,1.00115966796875
1768216471588476000,3.668475830078125,0.0578460693359375,-0.0532684326171875,1.0024261474609375
1768216471598476800,3.678476806640625,0.0616912841796875,-0.05194091796875,0.998199462890625
1768216471608477000,3.688476806640625,0.063873291015625,-0.0529632568359375,1.0005645751953125
1768216471618477800,3.698477783203125,0.0695343017578125,-0.0549468994140625,1.0005645751953125
1768216471628477700,3.708477783203125,0.0662384033203125,-0.05615234375,0.9971160888671875
1768216471638479000,3.71847900390625,0.0661163330078125,-0.056396484375,0.9931793212890625
1768216471648480000,3.72847998046875,0.061981201171875,-0.0573577880859375,0.9911956787109375
1768216471658479900,3.73847998046875,0.0655059814453125,-0.0574951171875,0.9890899658203125
1768216471668480800,3.748480712890625,0.06719970703125,-0.05712890625,0.9917449951171875
1768216471678481000,3.75848095703125,0.0675506591796875,-0.060028076171875,0.991912841796875
1768216471688481800,3.768481689453125,0.0704498291015625,-0.059967041015625,0.9918212890625
1768216471698483000,3.77848291015625,0.0723419189453125,-0.0585174560546875,0.9904632568359375
1768216471708483000,3.788483154296875,0.0705413818359375,-0.05810546875,0.986083984375
1768216471718484000,3.79848388671875,0.07073974609375,-0.057159423828125,0.9878387451171875
1768216471728483800,3.80848388671875,0.0714111328125,-0.0595245361328125,0.98651123046875
1768216471738484700,3.818484619140625,0.075897216796875,-0.0614013671875,0.9898681640625
1768216471748486000,3.82848583984375,0.0759429931640625,-0.06097412109375,0.9912109375
1768216471758485800,3.83848583984375,0.0802764892578125,-0.060760498046875,0.9908599853515625
1768216471768487000,3.84848681640625,0.078857421875,-0.060577392578125,0.9912109375
1768216471778487000,3.858487060546875,0.0785064697265625,-0.0586090087890625,0.99249267578125
1768216471788488000,3.868488037109375,0.0793914794921875,-0.0587310791015625,0.9950714111328125
1768216471798488800,3.87848876953125,0.0713653564453125,-0.0584564208984375,0.9971466064453125
1768216471808489000,3.888489013671875,0.067047119140625,-0.0596771240234375,1.005035400390625
1768216471818489900,3.89848974609375,0.0715484619140625,-0.057891845703125,1.00543212890625
1768216471828489700,3.90848974609375,0.0668182373046875,-0.0534515380859375,1.0001983642578125
1768216471838491000,3.918490966796875,0.0672607421875,-0.05255126953125,1.00067138671875
1768216471848491000,3.928490966796875,0.0618896484375,-0.052001953125,1.0002288818359375
1768216471858492000,3.938491943359375,0.0626678466796875,-0.0486907958984375,1.0029296875
1768216471868492800,3.948492919921875,0.0627288818359375,-0.04998779296875,1.005218505859375
1768216471878493000,3.958492919921875,0.0613555908203125,-0.05010986328125,1.0034637451171875
1768216471888493800,3.968493896484375,0.063720703125,-0.0507354736328125,1.003082275390625
1768216471898494000,3.978493896484375,0.072662353515625,-0.04937744140625,1.0059814453125
1768216471908494800,3.988494873046875,0.0788116455078125,-0.0491180419921875,1.0059051513671875
1768216471918496000,3.99849609375,0.0807037353515625,-0.0515899658203125,1.0015106201171875
1768216471928495900,4.008495849609375,0.083282470703125,-0.050689697265625,0.99737548828125
1768216471938496800,4.018496826171875,0.090057373046875,-0.05255126953125,0.9933319091796875
1768216471948497000,4.028496826171875,0.09490966796875,-0.05291748046875,0.994537353515625
1768216471958498000,4.038498046875,0.10028076171875,-0.05096435546875,0.9885101318359375
1768216471968499000,4.0484990234375,0.1105804443359375,-0.048797607421875,0.9888916015625
1768216471978498800,4.058498779296875,0.1219482421875,-0.0509033203125,0.9891815185546875
1768216471988500000,4.0685,0.1362762451171875,-0.05047607421875,0.9896240234375
1768216471998499800,4.078499755859375,0.1392974853515625,-0.052490234375,0.980377197265625
1768216472008500700,4.088500732421875,0.14788818359375,-0.055633544921875,0.9765777587890625
1768216472018502000,4.098501953125,0.1526031494140625,-0.0568084716796875,0.9715118408203125
1768216472028502000,4.108501953125,0.150482177734375,-0.0593109130859375,0.963134765625
1768216472038503000,4.1185029296875,0.1512298583984375,-0.0603179931640625,0.9476470947265625
1768216472048503000,4.1285029296875,0.1542510986328125,-0.0596923828125,0.940093994140625
1768216472058504000,4.13850390625,0.1494903564453125,-0.0605316162109375,0.9380340576171875
1768216472068504800,4.1485048828125,0.134521484375,-0.0658721923828125,0.94049072265625
1768216472078504700,4.158504638671875,0.12750244140625,-0.0626220703125,0.941864013671875
1768216472088505900,4.168505859375,0.13153076171875,-0.05694580078125,0.942596435546875
1768216472098506000,4.178506103515625,0.1431427001953125,-0.0511627197265625,0.9410858154296875
1768216472108507000,4.1885068359375,0.1526031494140625,-0.0479736328125,0.9474334716796875
1768216472118507800,4.1985078125,0.155517578125,-0.0519866943359375,0.9542999267578125
1768216472128508000,4.2085078125,0.151702880859375,-0.05224609375,0.9551239013671875
1768216472138508800,4.2185087890625,0.1452789306640625,-0.05487060546875,0.9510040283203125
1768216472148508700,4.2285087890625,0.147918701171875,-0.0562286376953125,0.9483642578125
1768216472158510000,4.238510009765625,0.1522369384765625,-0.055145263671875,0.949188232421875
1768216472168510000,4.248510009765625,0.150665283203125,-0.051116943359375,0.9647216796875
1768216472178510800,4.2585107421875,0.1469879150390625,-0.0588531494140625,0.9571075439453125
1768216472188511700,4.26851171875,0.1491851806640625,-0.0582122802734375,0.950439453125
1768216472198511900,4.278511962890625,0.161041259765625,-0.068572998046875,0.95526123046875
1768216472208512800,4.2885126953125,0.1715545654296875,-0.0754852294921875,0.947540283203125
1768216472218513000,4.298512939453125,0.1784515380859375,-0.0801544189453125,0.9391326904296875
1768216472228514000,4.30851416015625,0.1782684326171875,-0.0841522216796875,0.93646240234375
1768216472238515000,4.318514892578125,0.1739349365234375,-0.085784912109375,0.9340057373046875
1768216472248514800,4.328514892578125,0.1641387939453125,-0.083892822265625,0.9375
1768216472258515700,4.338515625,0.1578216552734375,-0.0867156982421875,0.9363861083984375
1768216472268515800,4.348515869140625,0.1469879150390625,-0.085540771484375,0.9310302734375
1768216472278517000,4.35851708984375,0.149017333984375,-0.0802764892578125,0.9203033447265625
1768216472288518000,4.368517822265625,0.1707916259765625,-0.071319580078125,0.934112548828125
1768216472298518000,4.37851806640625,0.1960906982421875,-0.0713043212890625,0.9461822509765625
1768216472308519000,4.388518798828125,0.1970672607421875,-0.0652923583984375,0.9549102783203125
1768216472318518800,4.398518798828125,0.1895599365234375,-0.067291259765625,0.9499664306640625
1768216472328520000,4.40852001953125,0.17620849609375,-0.069671630859375,0.9403228759765625
1768216472338521000,4.41852099609375,0.171966552734375,-0.070098876953125,0.9354400634765625
1768216472348521000,4.42852099609375,0.17352294921875,-0.0727691650390625,0.9328460693359375
1768216472358522000,4.438522216796875,0.18096923828125,-0.0758819580078125,0.9262847900390625
1768216472368522200,4.448522216796875,0.193389892578125,-0.084564208984375,0.9239959716796875
1768216472378523100,4.458523193359375,0.18731689453125,-0.0887298583984375,0.9339599609375
1768216472388523000,4.46852294921875,0.173980712890625,-0.090911865234375,0.9253692626953125
1768216472398524200,4.478524169921875,0.1775360107421875,-0.0883026123046875,0.9049530029296875
1768216472408525000,4.488525146484375,0.180023193359375,-0.0861358642578125,0.884979248046875
1768216472418525200,4.498525146484375,0.194244384765625,-0.0808258056640625,0.8863677978515625
1768216472428526000,4.508526123046875,0.2127532958984375,-0.07830810546875,0.9105377197265625
1768216472438526200,4.518526123046875,0.2144622802734375,-0.0769195556640625,0.9160308837890625
1768216472448527000,4.528527099609375,0.208038330078125,-0.0705413818359375,0.922271728515625
1768216472458528000,4.538528076171875,0.209716796875,-0.0703125,0.9155731201171875
1768216472468528000,4.548528076171875,0.226287841796875,-0.075653076171875,0.9478302001953125
1768216472478529300,4.558529296875,0.2493896484375,-0.080169677734375,0.967041015625
1768216472488529200,4.568529052734375,0.2673492431640625,-0.093048095703125,0.9496307373046875
1768216472498530000,4.578530029296875,0.2775726318359375,-0.1017913818359375,0.950958251953125
1768216472508531200,4.58853125,0.290191650390625,-0.1058807373046875,0.9607086181640625
1768216472518531000,4.598531005859375,0.282135009765625,-0.1092376708984375,0.9732666015625
1768216472528532000,4.608531982421875,0.2765960693359375,-0.1077423095703125,0.9835205078125
1768216472538532000,4.618531982421875,0.28204345703125,-0.109954833984375,1.0002899169921875
1768216472548533200,4.628533203125,0.2799224853515625,-0.117767333984375,1.01434326171875
1768216472558534100,4.6385341796875,0.2813873291015625,-0.1172943115234375,0.993682861328125
1768216472568534000,4.648533935546875,0.2841949462890625,-0.1141510009765625,0.96392822265625
1768216472578535200,4.65853515625,0.2765960693359375,-0.1224212646484375,0.946563720703125
1768216472588535000,4.66853515625,0.258514404296875,-0.129058837890625,0.9364013671875
1768216472598536000,4.678535888671875,0.2374725341796875,-0.1305694580078125,0.9161376953125
1768216472608537000,4.688537109375,0.2160491943359375,-0.1298065185546875,0.902496337890625
1768216472618537200,4.698537109375,0.19549560546875,-0.136566162109375,0.8874664306640625
1768216472628538000,4.7085380859375,0.1993408203125,-0.1329498291015625,0.8723602294921875
1768216472638538200,4.718538330078125,0.235137939453125,-0.1297454833984375,0.87445068359375
1768216472648539100,4.7285390625,0.2736358642578125,-0.1321868896484375,0.890899658203125
1768216472658539000,4.7385390625,0.3112030029296875,-0.1438751220703125,0.911529541015625
1768216472668540000,4.748539794921875,0.301788330078125,-0.1473541259765625,0.9056549072265625
1768216472678541000,4.758541015625,0.2953643798828125,-0.16943359375,0.9022369384765625
1768216472688541200,4.768541259765625,0.2714385986328125,-0.1714630126953125,0.9081878662109375
1768216472698542000,4.7785419921875,0.2651824951171875,-0.167449951171875,0.904541015625
1768216472708542200,4.788542236328125,0.29266357421875,-0.1793670654296875,0.8948211669921875
1768216472718543000,4.798543212890625,0.3231201171875,-0.18353271484375,0.8853912353515625
1768216472728544000,4.8085439453125,0.34112548828125,-0.1940765380859375,0.89459228515625
1768216472738543900,4.8185439453125,0.331329345703125,-0.1855621337890625,0.94110107421875
1768216472748545300,4.828545166015625,0.317138671875,-0.1923370361328125,0.9820709228515625
1768216472758545200,4.838545166015625,0.321868896484375,-0.21783447265625,1.0050811767578125
1768216472768546000,4.848546142578125,0.3378448486328125,-0.232696533203125,0.9976348876953125
1768216472778547000,4.858546875,0.3291473388671875,-0.2513427734375,0.9737548828125
1768216472788547000,4.868547119140625,0.3281097412109375,-0.2505950927734375,0.9514007568359375
1768216472798548000,4.8785478515625,0.2960205078125,-0.25201416015625,0.922637939453125
1768216472808548000,4.888548095703125,0.270050048828125,-0.2467498779296875,0.8970184326171875
1768216472818549200,4.89854931640625,0.2335357666015625,-0.22784423828125,0.88629150390625
1768216472828550100,4.908550048828125,0.2070770263671875,-0.2124481201171875,0.88104248046875
1768216472838550000,4.918550048828125,0.1978607177734375,-0.20391845703125,0.8734893798828125
1768216472848551000,4.928551025390625,0.1958160400390625,-0.2066192626953125,0.8823394775390625
1768216472858551000,4.938551025390625,0.1949310302734375,-0.2099456787109375,0.9053192138671875
1768216472868552200,4.94855224609375,0.2039794921875,-0.2194976806640625,0.936431884765625
1768216472878553000,4.958552978515625,0.2042083740234375,-0.2313385009765625,0.9523468017578125
1768216472888553200,4.96855322265625,0.2235107421875,-0.2309112548828125,0.94525146484375
1768216472898554000,4.97855419921875,0.2587890625,-0.2345733642578125,0.941070556640625
1768216472908554000,4.988553955078125,0.27264404296875,-0.2377471923828125,0.936614990234375
1768216472918555100,4.99855517578125,0.2774200439453125,-0.2319488525390625,0.945892333984375
1768216472928555000,5.008554931640625,0.2844696044921875,-0.2310638427734375,0.9566192626953125
1768216472938556200,5.01855615234375,0.2855377197265625,-0.23150634765625,0.95074462890625
1768216472948557000,5.02855712890625,0.2819671630859375,-0.24176025390625,0.9200286865234375
1768216472958557200,5.03855712890625,0.2800140380859375,-0.2448577880859375,0.9143829345703125
1768216472968558000,5.04855810546875,0.289306640625,-0.2565155029296875,0.9173431396484375
1768216472978558000,5.058557861328125,0.29095458984375,-0.2695770263671875,0.9329376220703125
1768216472988559000,5.06855908203125,0.289306640625,-0.2870635986328125,0.935028076171875
1768216472998560300,5.078560302734375,0.289520263671875,-0.300872802734375,0.9271392822265625
1768216473008560000,5.08856005859375,0.2783050537109375,-0.2957305908203125,0.9338836669921875
1768216473018561000,5.09856103515625,0.256500244140625,-0.2841949462890625,0.9384765625
1768216473028561200,5.10856103515625,0.2364501953125,-0.2656097412109375,0.924774169921875
1768216473038562000,5.11856201171875,0.226226806640625,-0.2509918212890625,0.903778076171875
1768216473048563000,5.12856298828125,0.218017578125,-0.241363525390625,0.8886260986328125
1768216473058563000,5.13856298828125,0.2182159423828125,-0.235321044921875,0.898895263671875
1768216473068564200,5.148564208984375,0.2113494873046875,-0.2320556640625,0.9169158935546875
1768216473078564000,5.158564208984375,0.2042083740234375,-0.240142822265625,0.93695068359375
1768216473088565000,5.16856494140625,0.2138824462890625,-0.25286865234375,0.960723876953125
1768216473098566100,5.178566162109375,0.2229156494140625,-0.261993408203125,0.9737091064453125
1768216473108566000,5.18856591796875,0.2262115478515625,-0.269622802734375,0.9672393798828125
1768216473118567000,5.19856689453125,0.2375030517578125,-0.27178955078125,0.9532012939453125
1768216473128567300,5.2085673828125,0.2482757568359375,-0.2734375,0.9348602294921875
1768216473138568200,5.218568115234375,0.252655029296875,-0.2630767822265625,0.9178009033203125
1768216473148568000,5.228568115234375,0.25,-0.2456817626953125,0.913818359375
1768216473158569200,5.2385693359375,0.2333526611328125,-0.2351531982421875,0.9177703857421875
1768216473168570000,5.248570068359375,0.208892822265625,-0.2333831787109375,0.918670654296875
1768216473178570000,5.258570068359375,0.1842498779296875,-0.2454833984375,0.9252166748046875
1768216473188571100,5.268571044921875,0.148223876953125,-0.2555084228515625,0.9345703125
1768216473198571300,5.2785712890625,0.1059112548828125,-0.259063720703125,0.9551849365234375
1768216473208572200,5.288572265625,0.085235595703125,-0.253662109375,0.986297607421875
1768216473218573000,5.298572998046875,0.0819854736328125,-0.25177001953125,1.0249481201171875
1768216473228573200,5.3085732421875,0.0861053466796875,-0.24835205078125,1.09124755859375
1768216473238574000,5.318573974609375,0.08795166015625,-0.24346923828125,1.1222991943359375
1768216473248574000,5.328573974609375,0.0698699951171875,-0.261016845703125,1.108551025390625
1768216473258575000,5.3385751953125,0.0700836181640625,-0.266143798828125,1.22552490234375
1768216473268576300,5.348576171875,0.047637939453125,-0.2649688720703125,1.260162353515625
1768216473278576000,5.358576171875,0.0070343017578125,-0.2621917724609375,1.25750732421875
1768216473288577000,5.368576904296875,0.000152587890625,-0.252716064453125,1.3333892822265625
1768216473298577200,5.3785771484375,0.0040283203125,-0.2527923583984375,1.3896942138671875
1768216473308578000,5.388578125,0.00140380859375,-0.2578277587890625,1.39019775390625
1768216473318579200,5.3985791015625,0.003936767578125,-0.2696685791015625,1.3901519775390625
1768216473328579000,5.4085791015625,-0.01251220703125,-0.2672576904296875,1.3373870849609375
1768216473338580200,5.418580322265625,-0.022796630859375,-0.250091552734375,1.276702880859375
1768216473348580000,5.428580078125,-0.03851318359375,-0.2281341552734375,1.2035369873046875
1768216473358581000,5.4385810546875,-0.0556182861328125,-0.189117431640625,1.13140869140625
1768216473368582000,5.448581787109375,-0.075714111328125,-0.153289794921875,1.0687713623046875
1768216473378582000,5.45858203125,-0.10809326171875,-0.1236724853515625,1.022735595703125
1768216473388583000,5.4685830078125,-0.133331298828125,-0.1069793701171875,0.988311767578125
1768216473398583000,5.4785830078125,-0.152984619140625,-0.09930419921875,0.9485321044921875
1768216473408584200,5.488584228515625,-0.169525146484375,-0.09326171875,0.91851806640625
1768216473418585000,5.498585205078125,-0.174896240234375,-0.09686279296875,0.8961639404296875
1768216473428585000,5.5085849609375,-0.1656951904296875,-0.1012115478515625,0.8715057373046875
1768216473438586000,5.518586181640625,-0.1579742431640625,-0.1049346923828125,0.8485565185546875
1768216473448586000,5.5285859375,-0.1475830078125,-0.1129302978515625,0.83551025390625
1768216473458587000,5.5385869140625,-0.141815185546875,-0.1183319091796875,0.8333892822265625
1768216473468587000,5.5485869140625,-0.13739013671875,-0.133331298828125,0.8395233154296875
1768216473478588200,5.558588134765625,-0.1475372314453125,-0.1371917724609375,0.85699462890625
1768216473488589000,5.568589111328125,-0.15869140625,-0.1377410888671875,0.8841094970703125
1768216473498589000,5.5785888671875,-0.168182373046875,-0.135955810546875,0.9268951416015625
1768216473508590000,5.588590087890625,-0.178070068359375,-0.14404296875,0.958770751953125
1768216473518590000,5.59858984375,-0.181793212890625,-0.146148681640625,0.9786529541015625
1768216473528590800,5.6085908203125,-0.170654296875,-0.1437835693359375,0.9839935302734375
1768216473538592000,5.618592041015625,-0.1557464599609375,-0.1420440673828125,0.98486328125
1768216473548592000,5.628592041015625,-0.1407470703125,-0.139892578125,0.9858551025390625
1768216473558593000,5.638593017578125,-0.1304473876953125,-0.1423797607421875,0.9934234619140625
1768216473568593200,5.64859326171875,-0.128326416015625,-0.14093017578125,1.0048065185546875
1768216473578594000,5.658593994140625,-0.140869140625,-0.133880615234375,1.0148468017578125
1768216473588595000,5.668594970703125,-0.1648712158203125,-0.125152587890625,1.01861572265625
1768216473598594800,5.6785947265625,-0.1839141845703125,-0.1141510009765625,1.0186920166015625
1768216473608596000,5.688595947265625,-0.192047119140625,-0.1074066162109375,1.0208282470703125
1768216473618596000,5.69859619140625,-0.2020111083984375,-0.0963897705078125,1.02313232421875
1768216473628597000,5.708596923828125,-0.214447021484375,-0.0881805419921875,1.02471923828125
1768216473638598000,5.718597900390625,-0.227294921875,-0.0758819580078125,1.0252685546875
1768216473648598000,5.728597900390625,-0.23931884765625,-0.068511962890625,1.01617431640625
1768216473658599000,5.738598876953125,-0.2523040771484375,-0.0640411376953125,1.00555419921875
1768216473668599000,5.74859912109375,-0.2533111572265625,-0.0589447021484375,0.9944610595703125
1768216473678600200,5.75860009765625,-0.2516937255859375,-0.0522918701171875,0.9647674560546875
1768216473688601000,5.76860107421875,-0.2362213134765625,-0.0439910888671875,0.92950439453125
1768216473698601000,5.77860107421875,-0.222747802734375,-0.0420684814453125,0.9151763916015625
1768216473708601900,5.788601806640625,-0.240081787109375,-0.03338623046875,0.912200927734375
1768216473718602000,5.79860205078125,-0.2578277587890625,-0.030914306640625,0.9217071533203125
1768216473728603100,5.80860302734375,-0.2758026123046875,-0.0285797119140625,0.94793701171875
1768216473738603000,5.81860302734375,-0.296478271484375,-0.0323333740234375,0.969268798828125
1768216473748604200,5.828604248046875,-0.302978515625,-0.04052734375,0.968017578125
1768216473758605000,5.83860498046875,-0.3021240234375,-0.0408782958984375,0.9611358642578125
1768216473768605000,5.84860498046875,-0.289215087890625,-0.048858642578125,0.9523162841796875
1768216473778605800,5.858605712890625,-0.2846527099609375,-0.0590057373046875,0.9453582763671875
1768216473788606000,5.86860595703125,-0.280975341796875,-0.0667724609375,0.9395751953125
1768216473798607000,5.878607177734375,-0.2778167724609375,-0.070556640625,0.9351348876953125
1768216473808608000,5.88860791015625,-0.28448486328125,-0.0701446533203125,0.9389495849609375
1768216473818608000,5.898608154296875,-0.2911529541015625,-0.067535400390625,0.950836181640625
1768216473828609000,5.908609130859375,-0.2990264892578125,-0.064544677734375,0.96307373046875
1768216473838609000,5.91860888671875,-0.30303955078125,-0.0619659423828125,0.967559814453125
1768216473848610000,5.928610107421875,-0.301513671875,-0.05303955078125,0.9621124267578125
1768216473858611200,5.938611083984375,-0.306915283203125,-0.0506744384765625,0.95599365234375
1768216473868611000,5.948611083984375,-0.3185272216796875,-0.0480804443359375,0.947418212890625
1768216473878612000,5.958612060546875,-0.3253021240234375,-0.047454833984375,0.940948486328125
1768216473888612000,5.968612060546875,-0.32684326171875,-0.044403076171875,0.93646240234375
1768216473898613000,5.978613037109375,-0.3183746337890625,-0.0399932861328125,0.9341888427734375
1768216473908614000,5.98861376953125,-0.30877685546875,-0.0414886474609375,0.9418487548828125
1768216473918614000,5.998614013671875,-0.3113861083984375,-0.0357208251953125,0.9525146484375
1768216473928615200,6.008615234375,-0.31268310546875,-0.026153564453125,0.9598236083984375
1768216473938615000,6.018614990234375,-0.3164825439453125,-0.0294647216796875,0.968658447265625
1768216473948616000,6.028615966796875,-0.322509765625,-0.033477783203125,0.9756317138671875
1768216473958617000,6.0386171875,-0.3234100341796875,-0.0275115966796875,0.9741973876953125
1768216473968617000,6.048616943359375,-0.3119049072265625,-0.0297393798828125,0.96221923828125
1768216473978617900,6.058617919921875,-0.3053131103515625,-0.0336761474609375,0.963623046875
1768216473988618200,6.0686181640625,-0.3070526123046875,-0.044830322265625,0.9665374755859375
1768216473998619100,6.078619140625,-0.311859130859375,-0.0437469482421875,0.9671630859375
1768216474008619000,6.088618896484375,-0.3077545166015625,-0.0457000732421875,0.9662322998046875
1768216474018620000,6.098619873046875,-0.3127288818359375,-0.047760009765625,0.9592437744140625
1768216474028621000,6.10862109375,-0.318023681640625,-0.0422821044921875,0.948272705078125
1768216474038621000,6.118620849609375,-0.3195037841796875,-0.0314788818359375,0.9452056884765625
1768216474048622000,6.1286220703125,-0.32452392578125,-0.025146484375,0.9398651123046875
1768216474058622200,6.138622314453125,-0.3354339599609375,-0.0228729248046875,0.9447174072265625
1768216474068623000,6.148623046875,-0.342864990234375,-0.02056884765625,0.95574951171875
1768216474078624000,6.1586240234375,-0.345550537109375,-0.0218048095703125,0.9619293212890625
1768216474088624000,6.1686240234375,-0.3434295654296875,-0.0219573974609375,0.9663848876953125
1768216474098625000,6.178625,-0.33441162109375,-0.02099609375,0.9661865234375
1768216474108625000,6.188625,-0.3135833740234375,-0.0138702392578125,0.9537200927734375
1768216474118626000,6.1986259765625,-0.289093017578125,-0.01263427734375,0.938201904296875
1768216474128627000,6.208626953125,-0.278564453125,-0.012542724609375,0.937652587890625
1768216474138627000,6.218626953125,-0.29193115234375,-0.0113677978515625,0.9414825439453125
1768216474148628000,6.2286279296875,-0.308319091796875,-0.0093536376953125,0.9464111328125
1768216474158628000,6.238628173828125,-0.32281494140625,-0.00604248046875,0.953277587890625
1768216474168629000,6.24862890625,-0.325714111328125,-0.0057830810546875,0.961029052734375
1768216474178630100,6.258630126953125,-0.32403564453125,-0.0091552734375,0.9578399658203125
1768216474188630000,6.268630126953125,-0.318878173828125,-0.013397216796875,0.9536895751953125
1768216474198631200,6.278631103515625,-0.3108978271484375,-0.014923095703125,0.95220947265625
1768216474208631000,6.288631103515625,-0.30755615234375,-0.0164794921875,0.9506988525390625
1768216474218632000,6.2986318359375,-0.3061676025390625,-0.0198974609375,0.9473724365234375
1768216474228632000,6.308632080078125,-0.3115997314453125,-0.02496337890625,0.94586181640625
1768216474238633000,6.318633056640625,-0.316802978515625,-0.0262298583984375,0.9509124755859375
1768216474248634000,6.328634033203125,-0.3233184814453125,-0.02215576171875,0.9567413330078125
1768216474258634000,6.338634033203125,-0.3265838623046875,-0.01715087890625,0.9543914794921875
1768216474268635100,6.34863525390625,-0.325958251953125,-0.01519775390625,0.9459381103515625
1768216474278635000,6.358635009765625,-0.325531005859375,-0.0124664306640625,0.9406890869140625
1768216474288636000,6.368635986328125,-0.327056884765625,-0.0126190185546875,0.9375152587890625
1768216474298636800,6.37863671875,-0.3344573974609375,-0.0146026611328125,0.934661865234375
1768216474308637000,6.388636962890625,-0.33941650390625,-0.0182952880859375,0.93408203125
1768216474318638000,6.39863818359375,-0.345184326171875,-0.016021728515625,0.9365997314453125
1768216474328638000,6.408637939453125,-0.3486175537109375,-0.01849365234375,0.94207763671875
1768216474338638600,6.418638671875,-0.34332275390625,-0.0189971923828125,0.9407806396484375
1768216474348639500,6.428639404296875,-0.3372955322265625,-0.0194854736328125,0.937469482421875
1768216474358639400,6.438639404296875,-0.3295135498046875,-0.019927978515625,0.943267822265625
1768216474368640500,6.448640625,-0.32080078125,-0.0219268798828125,0.948272705078125
1768216474378640400,6.458640380859375,-0.3138275146484375,-0.02459716796875,0.9501495361328125
1768216474388641500,6.4686416015625,-0.3083343505859375,-0.0243072509765625,0.9519500732421875
1768216474398642400,6.478642333984375,-0.305633544921875,-0.0229949951171875,0.9553375244140625
1768216474408642600,6.488642578125,-0.3019256591796875,-0.026031494140625,0.9578094482421875
1768216474418643500,6.4986435546875,-0.29803466796875,-0.02789306640625,0.9607391357421875
1768216474428643600,6.5086435546875,-0.30010986328125,-0.0287628173828125,0.9615631103515625
1768216474438644500,6.51864453125,-0.3032989501953125,-0.0287933349609375,0.9615631103515625
1768216474448645600,6.528645751953125,-0.307586669921875,-0.032806396484375,0.9571075439453125
1768216474458645500,6.5386455078125,-0.3101348876953125,-0.028961181640625,0.953369140625
1768216474468646400,6.548646484375,-0.313629150390625,-0.0291748046875,0.95654296875
1768216474478646500,6.558646484375,-0.3118743896484375,-0.031097412109375,0.959136962890625
1768216474488647400,6.5686474609375,-0.3087005615234375,-0.028533935546875,0.9588165283203125
1768216474498647600,6.5786474609375,-0.3046875,-0.029998779296875,0.954559326171875
1768216474508648700,6.588648681640625,-0.30108642578125,-0.0284271240234375,0.9522552490234375
1768216474518649600,6.598649658203125,-0.296417236328125,-0.030731201171875,0.950714111328125
1768216474528649500,6.6086494140625,-0.2923736572265625,-0.0343170166015625,0.955230712890625
1768216474538650600,6.618650634765625,-0.2869720458984375,-0.041046142578125,0.9609222412109375
1768216474548650500,6.628650390625,-0.2869110107421875,-0.0429534912109375,0.96466064453125
1768216474558651400,6.6386513671875,-0.2939910888671875,-0.04559326171875,0.96478271484375
1768216474568652500,6.648652587890625,-0.2972869873046875,-0.046051025390625,0.960968017578125
1768216474578652700,6.658652587890625,-0.29864501953125,-0.0410919189453125,0.95587158203125
1768216474588653600,6.668653564453125,-0.30035400390625,-0.0388641357421875,0.9519500732421875
1768216474598653400,6.6786533203125,-0.2977294921875,-0.03521728515625,0.9563751220703125
1768216474608654600,6.688654541015625,-0.2975311279296875,-0.0329437255859375,0.961395263671875
1768216474618655500,6.698655517578125,-0.2953338623046875,-0.0272674560546875,0.963531494140625
1768216474628655400,6.7086552734375,-0.286346435546875,-0.022735595703125,0.9673919677734375
1768216474638656500,6.718656494140625,-0.2844085693359375,-0.0271148681640625,0.9698638916015625
1768216474648656600,6.72865673828125,-0.289154052734375,-0.028228759765625,0.9670562744140625
1768216474658657500,6.738657470703125,-0.294342041015625,-0.0267791748046875,0.9587860107421875
1768216474668658400,6.748658447265625,-0.285888671875,-0.028045654296875,0.960296630859375
1768216474678658600,6.758658447265625,-0.2842254638671875,-0.0250244140625,0.9599456787109375
1768216474688659500,6.768659423828125,-0.2884521484375,-0.0235595703125,0.9563751220703125
1768216474698659300,6.778659423828125,-0.2890777587890625,-0.02105712890625,0.957244873046875
1768216474708660500,6.788660400390625,-0.2902984619140625,-0.021453857421875,0.9590911865234375
1768216474718661600,6.79866162109375,-0.2916107177734375,-0.0202178955078125,0.9560699462890625
1768216474728661500,6.80866162109375,-0.289886474609375,-0.0196685791015625,0.9543609619140625
1768216474738662400,6.818662353515625,-0.2885894775390625,-0.01788330078125,0.9579010009765625
1768216474748662500,6.82866259765625,-0.286407470703125,-0.016815185546875,0.9610748291015625
1768216474758663400,6.838663330078125,-0.2837371826171875,-0.02099609375,0.960784912109375
1768216474768664600,6.84866455078125,-0.282989501953125,-0.0215911865234375,0.9601593017578125
1768216474778664700,6.858664794921875,-0.282196044921875,-0.02130126953125,0.95989990234375
1768216474788665600,6.86866552734375,-0.2855224609375,-0.0244140625,0.959869384765625
1768216474798665500,6.87866552734375,-0.28790283203125,-0.0267486572265625,0.9573516845703125
1768216474808666400,6.888666259765625,-0.2871551513671875,-0.0284423828125,0.956512451171875
1768216474818666500,6.89866650390625,-0.2855377197265625,-0.030303955078125,0.963134765625
1768216474828667400,6.90866748046875,-0.2896270751953125,-0.0289306640625,0.961822509765625
1768216474838668500,6.91866845703125,-0.291778564453125,-0.0306854248046875,0.95916748046875
1768216474848668700,6.928668701171875,-0.296600341796875,-0.0335845947265625,0.957427978515625
1768216474858669600,6.938669677734375,-0.298370361328125,-0.032745361328125,0.956024169921875
1768216474868669400,6.94866943359375,-0.3006134033203125,-0.0316314697265625,0.956573486328125
1768216474878670300,6.95867041015625,-0.299652099609375,-0.03070068359375,0.9559173583984375
1768216474888671700,6.968671630859375,-0.2942962646484375,-0.0258941650390625,0.956390380859375
1768216474898671600,6.978671630859375,-0.2943267822265625,-0.02154541015625,0.957916259765625
1768216474908672500,6.988672607421875,-0.2945098876953125,-0.0198974609375,0.9633026123046875
1768216474918672600,6.998672607421875,-0.2953033447265625,-0.0245819091796875,0.9659423828125
1768216474928673500,7.008673583984375,-0.2947998046875,-0.02423095703125,0.9629058837890625
1768216474938674400,7.01867431640625,-0.2927093505859375,-0.0281982421875,0.9622344970703125
1768216474948674600,7.028674560546875,-0.2849884033203125,-0.0316162109375,0.9617767333984375
1768216474958675700,7.03867578125,-0.280548095703125,-0.03448486328125,0.9587554931640625
1768216474968675600,7.048675537109375,-0.2797393798828125,-0.03497314453125,0.95648193359375
1768216474978676500,7.058676513671875,-0.2826995849609375,-0.0325164794921875,0.9573822021484375
1768216474988677400,7.068677490234375,-0.2884674072265625,-0.030914306640625,0.95465087890625
1768216474998677500,7.078677490234375,-0.293121337890625,-0.0254058837890625,0.9551849365234375
1768216475008678400,7.088678466796875,-0.2948760986328125,-0.02557373046875,0.9532318115234375
1768216475018678500,7.098678466796875,-0.2969970703125,-0.023834228515625,0.9517364501953125
1768216475028679700,7.1086796875,-0.2963714599609375,-0.025543212890625,0.9503631591796875
1768216475038680600,7.1186806640625,-0.29644775390625,-0.0281982421875,0.9512939453125
1768216475048680400,7.128680419921875,-0.2992706298828125,-0.02935791015625,0.950927734375
1768216475058681600,7.138681640625,-0.2989959716796875,-0.030120849609375,0.951873779296875
1768216475068681500,7.148681396484375,-0.29656982421875,-0.033050537109375,0.9595489501953125
1768216475078682400,7.158682373046875,-0.2927703857421875,-0.0324249267578125,0.96282958984375
1768216475088683500,7.16868359375,-0.291900634765625,-0.0361328125,0.9596099853515625
1768216475098683600,7.17868359375,-0.29144287109375,-0.0366363525390625,0.95953369140625
1768216475108684500,7.1886845703125,-0.292510986328125,-0.0348663330078125,0.9584197998046875
1768216475118684400,7.198684326171875,-0.294342041015625,-0.03558349609375,0.952911376953125
1768216475128685600,7.208685546875,-0.297576904296875,-0.0368499755859375,0.952789306640625
1768216475138685400,7.218685546875,-0.2982940673828125,-0.0372772216796875,0.955413818359375
1768216475148686300,7.228686279296875,-0.297393798828125,-0.0377349853515625,0.9560699462890625
1768216475158687500,7.2386875,-0.297210693359375,-0.0368194580078125,0.9594573974609375
1768216475168687600,7.2486875,-0.293212890625,-0.0361328125,0.960357666015625
1768216475178688500,7.2586884765625,-0.2907867431640625,-0.0350189208984375,0.956634521484375
1768216475188688600,7.268688720703125,-0.2891387939453125,-0.0356903076171875,0.95538330078125
1768216475198689500,7.278689453125,-0.28839111328125,-0.0357666015625,0.9564361572265625
1768216475208690400,7.2886904296875,-0.2878570556640625,-0.035064697265625,0.9567108154296875
1768216475218690600,7.298690673828125,-0.2861175537109375,-0.03546142578125,0.9561004638671875
1768216475228691500,7.30869140625,-0.2846221923828125,-0.0383148193359375,0.9540863037109375
1768216475238691600,7.318691650390625,-0.28594970703125,-0.0396728515625,0.953033447265625
1768216475248692500,7.3286923828125,-0.2855987548828125,-0.041046142578125,0.955474853515625
1768216475258693400,7.338693359375,-0.2866668701171875,-0.04052734375,0.9551239013671875
1768216475268693500,7.348693603515625,-0.2878265380859375,-0.038482666015625,0.957183837890625
1768216475278694700,7.358694580078125,-0.285858154296875,-0.03814697265625,0.9599456787109375
1768216475288694500,7.368694580078125,-0.28399658203125,-0.04010009765625,0.9602203369140625
1768216475298695700,7.37869580078125,-0.28240966796875,-0.0405426025390625,0.958038330078125
1768216475308696600,7.388696533203125,-0.2779388427734375,-0.0435028076171875,0.960296630859375
1768216475318696400,7.398696533203125,-0.2780303955078125,-0.0419921875,0.964385986328125
1768216475328697300,7.408697265625,-0.273773193359375,-0.0401763916015625,0.9651031494140625
1768216475338698800,7.41869873046875,-0.2694091796875,-0.04132080078125,0.965301513671875
1768216475348699600,7.42869970703125,-0.2637481689453125,-0.0403900146484375,0.97027587890625
1768216475358700800,7.43870068359375,-0.262664794921875,-0.0417938232421875,0.9655303955078125
1768216475368700700,7.44870068359375,-0.258056640625,-0.0423736572265625,0.9643402099609375
1768216475378701600,7.45870166015625,-0.25531005859375,-0.043365478515625,0.9666595458984375
1768216475388701700,7.46870166015625,-0.2581329345703125,-0.03973388671875,0.9660797119140625
1768216475398702600,7.47870263671875,-0.2583160400390625,-0.03839111328125,0.9662017822265625
1768216475408703500,7.488703369140625,-0.2630462646484375,-0.039215087890625,0.9627532958984375
1768216475418703600,7.49870361328125,-0.264739990234375,-0.038330078125,0.96514892578125
1768216475428704800,7.508704833984375,-0.266143798828125,-0.03680419921875,0.9659576416015625
1768216475438704600,7.51870458984375,-0.25970458984375,-0.0377349853515625,0.9708404541015625
1768216475448705800,7.528705810546875,-0.2584075927734375,-0.039337158203125,0.9711151123046875
1768216475458706700,7.538706787109375,-0.2541046142578125,-0.040985107421875,0.9721832275390625
1768216475468706600,7.54870654296875,-0.25164794921875,-0.04071044921875,0.9731903076171875
1768216475478707500,7.55870751953125,-0.25018310546875,-0.040191650390625,0.975189208984375
1768216475488707600,7.56870751953125,-0.255157470703125,-0.0380706787109375,0.9709625244140625
1768216475498708700,7.578708740234375,-0.2583160400390625,-0.0355682373046875,0.96429443359375
1768216475508709600,7.588709716796875,-0.2536163330078125,-0.0348052978515625,0.9634246826171875
1768216475518709800,7.598709716796875,-0.2518768310546875,-0.0370941162109375,0.963897705078125
1768216475528710700,7.608710693359375,-0.2512969970703125,-0.039154052734375,0.9671478271484375
1768216475538710500,7.61871044921875,-0.2544097900390625,-0.0395660400390625,0.9677734375
1768216475548711400,7.62871142578125,-0.2585601806640625,-0.03985595703125,0.9684600830078125
1768216475558712800,7.638712890625,-0.259552001953125,-0.0395660400390625,0.9663848876953125
1768216475568712700,7.648712646484375,-0.263031005859375,-0.0333404541015625,0.9667510986328125
1768216475578713600,7.658713623046875,-0.2608795166015625,-0.030670166015625,0.966033935546875
1768216475588713700,7.668713623046875,-0.2626190185546875,-0.0297698974609375,0.9641571044921875
1768216475598714600,7.678714599609375,-0.262542724609375,-0.0301513671875,0.96575927734375
1768216475608715500,7.688715576171875,-0.2590484619140625,-0.0326385498046875,0.96771240234375
1768216475618715600,7.698715576171875,-0.2571868896484375,-0.034149169921875,0.967742919921875
1768216475628716800,7.708716796875,-0.25579833984375,-0.0342559814453125,0.9671783447265625
1768216475638716700,7.718716552734375,-0.25408935546875,-0.0347137451171875,0.9646148681640625
1768216475648717600,7.728717529296875,-0.25714111328125,-0.0362701416015625,0.96484375
1768216475658718500,7.738718505859375,-0.2588958740234375,-0.0344696044921875,0.9639129638671875
1768216475668718600,7.748718505859375,-0.25531005859375,-0.033721923828125,0.9673004150390625
1768216475678719700,7.7587197265625,-0.2579803466796875,-0.032958984375,0.96942138671875
1768216475688720000,7.768719970703125,-0.258758544921875,-0.033905029296875,0.96820068359375
1768216475698720800,7.778720703125,-0.2609710693359375,-0.034423828125,0.967071533203125
1768216475708721700,7.7887216796875,-0.2608184814453125,-0.0363006591796875,0.9683685302734375
1768216475718721500,7.798721435546875,-0.2586822509765625,-0.037750244140625,0.968292236328125
1768216475728722700,7.80872265625,-0.2597198486328125,-0.0389862060546875,0.968780517578125
1768216475738722600,7.81872265625,-0.2630767822265625,-0.03802490234375,0.9690093994140625
1768216475748723700,7.8287236328125,-0.264617919921875,-0.038421630859375,0.9650421142578125
1768216475758724600,7.838724609375,-0.2626800537109375,-0.0357666015625,0.96673583984375
1768216475768724700,7.848724853515625,-0.2587127685546875,-0.0375823974609375,0.9692535400390625
1768216475778725600,7.8587255859375,-0.253509521484375,-0.039825439453125,0.96875
1768216475788725500,7.8687255859375,-0.2442626953125,-0.0425262451171875,0.9719696044921875
1768216475798726700,7.8787265625,-0.2430877685546875,-0.0417633056640625,0.9691314697265625
1768216475808727800,7.888727783203125,-0.2474212646484375,-0.0411529541015625,0.9686279296875
1768216475818727700,7.898727783203125,-0.2510986328125,-0.0402069091796875,0.9684295654296875
1768216475828728600,7.908728515625,-0.2570953369140625,-0.04052734375,0.9666290283203125
1768216475838728700,7.918728759765625,-0.259185791015625,-0.040435791015625,0.9652252197265625
1768216475848729600,7.9287294921875,-0.2619781494140625,-0.040283203125,0.96600341796875
1768216475858730500,7.93873046875,-0.2616424560546875,-0.039581298828125,0.96795654296875
1768216475868730600,7.948730712890625,-0.2583465576171875,-0.0384521484375,0.96630859375
1768216475878731800,7.958731689453125,-0.2552490234375,-0.0401458740234375,0.966339111328125
1768216475888731600,7.968731689453125,-0.2523040771484375,-0.041290283203125,0.966705322265625
1768216475898732500,7.978732666015625,-0.250244140625,-0.0424957275390625,0.9663848876953125
1768216475908733700,7.988733642578125,-0.2489776611328125,-0.038848876953125,0.9658355712890625
1768216475918733600,7.998733642578125,-0.251251220703125,-0.037841796875,0.9666900634765625
1768216475928734500,8.008734375,-0.2545013427734375,-0.0361480712890625,0.9698944091796875
1768216475938734600,8.018734619140625,-0.25701904296875,-0.0353240966796875,0.9680328369140625
1768216475948735700,8.02873583984375,-0.254852294921875,-0.03887939453125,0.9678497314453125
1768216475958736600,8.038736572265625,-0.2563018798828125,-0.0393524169921875,0.967376708984375
1768216475968736800,8.04873681640625,-0.2538299560546875,-0.0382843017578125,0.9667510986328125
1768216475978737700,8.058737548828125,-0.2567901611328125,-0.03802490234375,0.96966552734375
1768216475988737500,8.068737548828125,-0.25592041015625,-0.0370635986328125,0.96795654296875
1768216475998738400,8.078738525390625,-0.253631591796875,-0.0363922119140625,0.9692535400390625
1768216476008739600,8.088739501953125,-0.2538909912109375,-0.0357208251953125,0.9683685302734375
1768216476018739700,8.09873974609375,-0.2534027099609375,-0.036712646484375,0.9688720703125
1768216476028740600,8.10874072265625,-0.25225830078125,-0.0372161865234375,0.9684600830078125
1768216476038740700,8.11874072265625,-0.252532958984375,-0.0357513427734375,0.96832275390625
1768216476048741600,8.12874169921875,-0.2539825439453125,-0.035552978515625,0.9704437255859375
1768216476058742800,8.13874267578125,-0.25152587890625,-0.03717041015625,0.9698333740234375
1768216476068742700,8.14874267578125,-0.2508087158203125,-0.0391387939453125,0.966339111328125
1768216476078743800,8.158743896484374,-0.252166748046875,-0.0355377197265625,0.967864990234375
1768216476088743700,8.16874365234375,-0.2474212646484375,-0.032562255859375,0.9627685546875
1768216476098744600,8.17874462890625,-0.2528228759765625,-0.03460693359375,0.962615966796875
1768216476108745500,8.188745361328126,-0.2544403076171875,-0.0325164794921875,0.9764251708984375
1768216476118745600,8.19874560546875,-0.2515716552734375,-0.0337982177734375,0.974334716796875
1768216476128746800,8.208746826171875,-0.250244140625,-0.03369140625,0.9735565185546875
1768216476138746600,8.21874658203125,-0.2470855712890625,-0.034088134765625,0.9771881103515625
1768216476148747800,8.228747802734375,-0.24517822265625,-0.0369415283203125,0.9765777587890625
1768216476158748700,8.238748779296875,-0.2407379150390625,-0.0391082763671875,0.973602294921875
1768216476168748500,8.24874853515625,-0.2370758056640625,-0.0391845703125,0.9690399169921875
1768216476178749400,8.25874951171875,-0.2374725341796875,-0.040618896484375,0.9697265625
1768216476188749600,8.26874951171875,-0.240997314453125,-0.0410919189453125,0.9691314697265625
1768216476198750700,8.278750732421875,-0.243927001953125,-0.0383148193359375,0.96893310546875
1768216476208751600,8.288751708984375,-0.248443603515625,-0.037078857421875,0.9692230224609375
1768216476218751700,8.298751708984375,-0.2508392333984375,-0.0415802001953125,0.97027587890625
1768216476228752600,8.308752685546875,-0.2507476806640625,-0.041046142578125,0.9707183837890625
1768216476238753500,8.31875341796875,-0.2484588623046875,-0.0388641357421875,0.974609375
1768216476248753700,8.328753662109374,-0.2447052001953125,-0.03875732421875,0.97747802734375
1768216476258754800,8.3387548828125,-0.241790771484375,-0.0379791259765625,0.9769439697265625
1768216476268754700,8.348754638671876,-0.23919677734375,-0.0380706787109375,0.977142333984375
1768216476278755600,8.358755615234376,-0.2378387451171875,-0.0396575927734375,0.9745941162109375
1768216476288756700,8.3687568359375,-0.2372894287109375,-0.04278564453125,0.9715423583984375
1768216476298756600,8.378756591796876,-0.2408294677734375,-0.042816162109375,0.96636962890625
1768216476308757500,8.388757568359376,-0.2449188232421875,-0.0427398681640625,0.963409423828125
1768216476318757600,8.398757568359375,-0.2487640380859375,-0.0390472412109375,0.9664764404296875
1768216476328758800,8.4087587890625,-0.2494354248046875,-0.0337982177734375,0.9668426513671875
1768216476338759000,8.418759033203125,-0.24542236328125,-0.0333099365234375,0.9697265625
1768216476348759000,8.428759033203125,-0.2476806640625,-0.035125732421875,0.9692840576171875
1768216476358760000,8.438760009765625,-0.254669189453125,-0.036651611328125,0.9663543701171875
1768216476368759800,8.448759765625,-0.25897216796875,-0.0383148193359375,0.96240234375
1768216476378760700,8.4587607421875,-0.26422119140625,-0.0384521484375,0.9640655517578125
1768216476388761900,8.468761962890625,-0.2685394287109375,-0.0391082763671875,0.96832275390625
1768216476398761700,8.47876171875,-0.2646636962890625,-0.0397796630859375,0.972137451171875
1768216476408763000,8.488762939453125,-0.2631988525390625,-0.0398101806640625,0.977508544921875
1768216476418763000,8.498762939453124,-0.258056640625,-0.042266845703125,0.9781951904296875
1768216476428764000,8.508763916015624,-0.2503662109375,-0.0429840087890625,0.9751129150390625
1768216476438764800,8.518764892578124,-0.24945068359375,-0.04180908203125,0.970916748046875
1768216476448765000,8.528764892578126,-0.2497100830078125,-0.04168701171875,0.965362548828125
1768216476458765800,8.538765869140626,-0.257476806640625,-0.037841796875,0.959625244140625
1768216476468765700,8.548765625,-0.26263427734375,-0.0353851318359375,0.9571990966796875
1768216476478766800,8.558766845703126,-0.2575225830078125,-0.0321197509765625,0.9586944580078125
1768216476488767700,8.568767822265626,-0.2571258544921875,-0.0339202880859375,0.9605255126953125
1768216476498768000,8.578767822265625,-0.258148193359375,-0.037933349609375,0.957183837890625
1768216476508768800,8.588768798828125,-0.25726318359375,-0.0435028076171875,0.95867919921875
1768216476518769000,8.598768798828125,-0.2635498046875,-0.04522705078125,0.9548492431640625
1768216476528770000,8.60877001953125,-0.261260986328125,-0.046112060546875,0.9585113525390625
1768216476538771000,8.61877099609375,-0.2653961181640625,-0.0420379638671875,0.9635162353515625
1768216476548770800,8.628770751953125,-0.268096923828125,-0.0400390625,0.9660491943359375
1768216476558772000,8.63877197265625,-0.2701873779296875,-0.0373687744140625,0.9654998779296875
1768216476568771800,8.648771728515625,-0.273162841796875,-0.0357818603515625,0.9684906005859375
1768216476578772700,8.658772705078125,-0.277435302734375,-0.0352325439453125,0.9705810546875
1768216476588774000,8.66877392578125,-0.279296875,-0.037261962890625,0.972869873046875
1768216476598774000,8.67877392578125,-0.2818756103515625,-0.0361328125,0.9733428955078125
1768216476608775000,8.68877490234375,-0.2825927734375,-0.0355377197265625,0.9695281982421875
1768216476618775800,8.69877587890625,-0.2798919677734375,-0.0346832275390625,0.9660186767578125
1768216476628776000,8.70877587890625,-0.2760162353515625,-0.03594970703125,0.9630279541015625
1768216476638776800,8.71877685546875,-0.2710723876953125,-0.0360260009765625,0.9603424072265625
1768216476648776700,8.728776611328126,-0.2689056396484375,-0.0378570556640625,0.9598388671875
1768216476658777900,8.73877783203125,-0.274627685546875,-0.0390167236328125,0.9581451416015625
1768216476668779000,8.748779052734376,-0.279510498046875,-0.0417327880859375,0.9569091796875
1768216476678779000,8.75877880859375,-0.2810821533203125,-0.0415191650390625,0.9562225341796875
1768216476688779800,8.76877978515625,-0.281646728515625,-0.0402069091796875,0.9571380615234375
1768216476698780000,8.77877978515625,-0.2816009521484375,-0.0383148193359375,0.9587249755859375
1768216476708780800,8.78878076171875,-0.280975341796875,-0.042144775390625,0.959625244140625
1768216476718782000,8.798781982421875,-0.284942626953125,-0.04119873046875,0.958221435546875
1768216476728781800,8.80878173828125,-0.28668212890625,-0.0411529541015625,0.956298828125
1768216476738783000,8.818782958984375,-0.287567138671875,-0.040863037109375,0.9559173583984375
1768216476748782800,8.828782958984375,-0.285491943359375,-0.0443115234375,0.9555206298828125
1768216476758783700,8.83878369140625,-0.28460693359375,-0.0425262451171875,0.95947265625
1768216476768784600,8.84878466796875,-0.2828216552734375,-0.0410614013671875,0.96282958984375
1768216476778784800,8.85878466796875,-0.281097412109375,-0.039306640625,0.964813232421875
1768216476788786000,8.868785888671875,-0.2787322998046875,-0.038909912109375,0.964935302734375
1768216476798786000,8.8787861328125,-0.2753448486328125,-0.040130615234375,0.964324951171875
1768216476808787000,8.888786865234374,-0.277587890625,-0.042755126953125,0.9617462158203125
1768216476818787800,8.898787841796874,-0.2752685546875,-0.0423583984375,0.9658660888671875
1768216476828787700,8.90878759765625,-0.275054931640625,-0.0423431396484375,0.9642333984375
1768216476838788900,8.918788818359374,-0.27606201171875,-0.040802001953125,0.9635467529296875
1768216476848788700,8.928788818359376,-0.2787628173828125,-0.041534423828125,0.962310791015625
1768216476858790000,8.938789794921876,-0.28216552734375,-0.0442047119140625,0.96246337890625
1768216476868790800,8.948790771484376,-0.2823944091796875,-0.0424652099609375,0.95849609375
1768216476878791000,8.958791015625,-0.2798309326171875,-0.0409088134765625,0.95867919921875
1768216476888791800,8.968791748046876,-0.2740478515625,-0.040283203125,0.960968017578125
1768216476898791700,8.978791748046875,-0.2654266357421875,-0.0420989990234375,0.9606170654296875
1768216476908792800,8.988792724609375,-0.2585601806640625,-0.043243408203125,0.9633331298828125
1768216476918794000,8.9987939453125,-0.2565765380859375,-0.0467987060546875,0.966705322265625
1768216476928793900,9.0087939453125,-0.2590789794921875,-0.0467376708984375,0.967987060546875
1768216476938794800,9.018794677734375,-0.2633514404296875,-0.0435943603515625,0.97039794921875
1768216476948795000,9.028794921875,-0.2689208984375,-0.0416412353515625,0.9709625244140625
1768216476958795800,9.038795654296875,-0.266845703125,-0.03955078125,0.96734619140625
1768216476968797000,9.048796875,-0.26641845703125,-0.04022216796875,0.9645233154296875
1768216476978797000,9.058797119140625,-0.269439697265625,-0.0379180908203125,0.9608612060546875
1768216476988798000,9.0687978515625,-0.2676239013671875,-0.033294677734375,0.9615325927734375
1768216476998797800,9.0787978515625,-0.2629547119140625,-0.0340728759765625,0.9656524658203125
1768216477008798700,9.088798828125,-0.267669677734375,-0.0330352783203125,0.964874267578125
1768216477018799900,9.0987998046875,-0.271820068359375,-0.0322265625,0.9669952392578125
1768216477028799700,9.1087998046875,-0.2739715576171875,-0.0353851318359375,0.9640655517578125
1768216477038801000,9.11880078125,-0.2758331298828125,-0.037628173828125,0.9610443115234375
1768216477048801000,9.128801025390626,-0.2774810791015625,-0.0384979248046875,0.959686279296875
1768216477058802000,9.138802001953126,-0.2782135009765625,-0.03564453125,0.960418701171875
1768216477068802800,9.148802734375,-0.274169921875,-0.0334320068359375,0.962921142578125
1768216477078803000,9.158802978515626,-0.267059326171875,-0.0334014892578125,0.9644317626953125
1768216477088803800,9.168803955078126,-0.2527313232421875,-0.036529541015625,0.966217041015625
1768216477098803700,9.1788037109375,-0.2497100830078125,-0.038330078125,0.9652099609375
1768216477108804900,9.188804931640625,-0.252655029296875,-0.0424957275390625,0.9673309326171875
1768216477118805800,9.1988056640625,-0.2542877197265625,-0.0440826416015625,0.9673919677734375
1768216477128806000,9.208805908203125,-0.2592315673828125,-0.0406036376953125,0.9671630859375
1768216477138806800,9.218806884765625,-0.2569580078125,-0.0407257080078125,0.9677581787109375
1768216477148807700,9.2288076171875,-0.2591552734375,-0.0410308837890625,0.9657440185546875
1768216477158807800,9.238807861328125,-0.260711669921875,-0.0398712158203125,0.9637603759765625
1768216477168809000,9.24880908203125,-0.2624053955078125,-0.0365753173828125,0.9627838134765625
1768216477178808800,9.258808837890625,-0.2599029541015625,-0.0403594970703125,0.9646148681640625
1768216477188810000,9.26881005859375,-0.260345458984375,-0.03863525390625,0.9654541015625
1768216477198811000,9.278810791015625,-0.2591094970703125,-0.038543701171875,0.965850830078125
1768216477208810800,9.288810791015624,-0.2582550048828125,-0.0423431396484375,0.965606689453125
1768216477218811600,9.298811767578124,-0.256744384765625,-0.043548583984375,0.969818115234375
1768216477228811800,9.308811767578124,-0.2563323974609375,-0.0439910888671875,0.9676513671875
1768216477238813000,9.31881298828125,-0.2571258544921875,-0.0423736572265625,0.967041015625
1768216477248813800,9.328813720703126,-0.2584381103515625,-0.043548583984375,0.967193603515625
1768216477258814000,9.33881396484375,-0.2581787109375,-0.043365478515625,0.967010498046875
1768216477268814800,9.34881494140625,-0.260009765625,-0.04180908203125,0.9679412841796875
1768216477278814700,9.358814697265625,-0.264373779296875,-0.0428466796875,0.9701690673828125
1768216477288815600,9.368815673828125,-0.2645263671875,-0.0426177978515625,0.96820068359375
1768216477298817000,9.378817138671875,-0.2635345458984375,-0.04302978515625,0.9674530029296875
1768216477308817000,9.38881689453125,-0.264434814453125,-0.0411529541015625,0.965057373046875
1768216477318817800,9.39881787109375,-0.261688232421875,-0.040374755859375,0.963958740234375
1768216477328818000,9.40881787109375,-0.2581787109375,-0.040252685546875,0.9642486572265625
1768216477338819600,9.418819580078125,-0.2577056884765625,-0.04266357421875,0.9642181396484375
1768216477348820500,9.428820556640625,-0.260284423828125,-0.041839599609375,0.96160888671875
1768216477358820400,9.4388203125,-0.263336181640625,-0.03985595703125,0.963592529296875
1768216477368821500,9.448821533203125,-0.2615814208984375,-0.04132080078125,0.9656219482421875
1768216477378821400,9.4588212890625,-0.26043701171875,-0.04150390625,0.968597412109375
1768216477388822500,9.468822509765625,-0.2602386474609375,-0.04071044921875,0.9708404541015625
1768216477398823400,9.478823486328125,-0.256927490234375,-0.0413818359375,0.969207763671875
1768216477408823600,9.488823486328124,-0.2552642822265625,-0.03955078125,0.967987060546875
1768216477418824400,9.498824462890624,-0.2538604736328125,-0.0398101806640625,0.9675750732421875
1768216477428824300,9.50882421875,-0.2546234130859375,-0.03912353515625,0.9687347412109375
1768216477438825500,9.518825439453124,-0.2551422119140625,-0.040313720703125,0.96728515625
1768216477448826600,9.52882666015625,-0.2584228515625,-0.0410919189453125,0.9655914306640625
1768216477458826500,9.538826416015626,-0.2552947998046875,-0.0403289794921875,0.9659423828125
1768216477468827400,9.548827392578126,-0.2543487548828125,-0.038848876953125,0.966278076171875
1768216477478827500,9.55882763671875,-0.25469970703125,-0.0389862060546875,0.9663238525390625
1768216477488828400,9.568828369140626,-0.2556304931640625,-0.04058837890625,0.9689178466796875
1768216477498829300,9.578829345703125,-0.2579498291015625,-0.040924072265625,0.9688873291015625
1768216477508829700,9.58882958984375,-0.2557830810546875,-0.041168212890625,0.968719482421875
1768216477518830600,9.59883056640625,-0.25677490234375,-0.040496826171875,0.968170166015625
1768216477528830500,9.60883056640625,-0.2536163330078125,-0.042633056640625,0.9684295654296875
1768216477538831400,9.618831298828125,-0.2520751953125,-0.0411376953125,0.969482421875
1768216477548832500,9.62883251953125,-0.25201416015625,-0.0413970947265625,0.969390869140625
1768216477558832400,9.638832275390625,-0.2531890869140625,-0.0434722900390625,0.96905517578125
1768216477568833500,9.64883349609375,-0.257110595703125,-0.040771484375,0.969268798828125
1768216477578833700,9.658833740234375,-0.257720947265625,-0.042510986328125,0.96942138671875
1768216477588834600,9.66883447265625,-0.259490966796875,-0.0428924560546875,0.96710205078125
1768216477598835500,9.67883544921875,-0.2601776123046875,-0.0430755615234375,0.9684600830078125
1768216477608835600,9.688835693359374,-0.2616424560546875,-0.038818359375,0.966796875
1768216477618836500,9.69883642578125,-0.2601318359375,-0.0360107421875,0.961639404296875
1768216477628836400,9.70883642578125,-0.258697509765625,-0.0369110107421875,0.962982177734375
1768216477638837500,9.71883740234375,-0.2599334716796875,-0.0396575927734375,0.9628753662109375
1768216477648838400,9.72883837890625,-0.260498046875,-0.041656494140625,0.9611358642578125
1768216477658838500,9.738838623046876,-0.259918212890625,-0.042205810546875,0.9657440185546875
1768216477668839400,9.74883935546875,-0.2602386474609375,-0.0421142578125,0.965850830078125
1768216477678839600,9.758839599609376,-0.259765625,-0.042388916015625,0.9669952392578125
1768216477688840400,9.76884033203125,-0.2579193115234375,-0.0428619384765625,0.9694061279296875
1768216477698841600,9.778841552734375,-0.25555419921875,-0.044952392578125,0.9705047607421875
1768216477708841500,9.788841552734375,-0.2558441162109375,-0.0455169677734375,0.9698028564453125
1768216477718842600,9.798842529296875,-0.257415771484375,-0.04425048828125,0.96917724609375
1768216477728842500,9.808842529296875,-0.258819580078125,-0.042510986328125,0.9677734375
1768216477738843400,9.818843505859375,-0.2631683349609375,-0.040985107421875,0.970611572265625
1768216477748844300,9.82884423828125,-0.2648773193359375,-0.0410003662109375,0.9644622802734375
1768216477758844400,9.838844482421875,-0.2622222900390625,-0.0421142578125,0.9620361328125
1768216477768845600,9.848845458984375,-0.2668914794921875,-0.0381317138671875,0.967132568359375
1768216477778845400,9.858845458984375,-0.268157958984375,-0.037017822265625,0.9662017822265625
1768216477788846600,9.8688466796875,-0.2682647705078125,-0.0366668701171875,0.96575927734375
1768216477798847500,9.878847412109375,-0.2673492431640625,-0.0316162109375,0.9647216796875
1768216477808847400,9.888847412109374,-0.265869140625,-0.0309295654296875,0.9624786376953125
1768216477818848300,9.89884814453125,-0.2571563720703125,-0.0405120849609375,0.965118408203125
1768216477828848400,9.908848388671874,-0.2555084228515625,-0.0417938232421875,0.96661376953125
1768216477838849500,9.918849609375,-0.261505126953125,-0.0427703857421875,0.966156005859375
1768216477848850400,9.928850341796876,-0.2711181640625,-0.04290771484375,0.9652252197265625
1768216477858850600,9.9388505859375,-0.2767333984375,-0.0389404296875,0.96240234375
1768216477868851500,9.9488515625,-0.273681640625,-0.0396881103515625,0.961944580078125
1768216477878851300,9.958851318359375,-0.2632598876953125,-0.0419769287109375,0.9648284912109375
1768216477888852500,9.9688525390625,-0.2592620849609375,-0.0382080078125,0.966156005859375
1768216477898853600,9.978853515625,-0.258331298828125,-0.0377349853515625,0.97125244140625
1768216477908853500,9.988853515625,-0.256256103515625,-0.036224365234375,0.9734039306640625
1768216477918854400,9.9988544921875,-0.2557373046875,-0.0377655029296875,0.97186279296875
1768216477928854500,10.0088544921875,-0.2595367431640625,-0.04193115234375,0.9664764404296875
1768216477938855400,10.01885546875,-0.2578277587890625,-0.0481109619140625,0.9650726318359375
1768216477948856600,10.028856689453125,-0.2620849609375,-0.04974365234375,0.9649200439453125
1768216477958856700,10.038856689453125,-0.267486572265625,-0.0556488037109375,0.9669342041015625
1768216477968857600,10.048857666015625,-0.273590087890625,-0.051483154296875,0.9654541015625
1768216477978857500,10.058857421875,-0.268829345703125,-0.0492095947265625,0.967071533203125
1768216477988858400,10.0688583984375,-0.2644805908203125,-0.0499267578125,0.963836669921875
1768216477998859500,10.078859619140625,-0.26544189453125,-0.0494384765625,0.95855712890625
1768216478008859400,10.088859375,-0.260467529296875,-0.052001953125,0.9608154296875
1768216478018860500,10.098860595703124,-0.26324462890625,-0.0521392822265625,0.9597625732421875
1768216478028860700,10.108860595703124,-0.26568603515625,-0.054168701171875,0.95941162109375
1768216478038861600,10.118861572265626,-0.26324462890625,-0.052001953125,0.9662017822265625
1768216478048862500,10.128862548828126,-0.262237548828125,-0.0468292236328125,0.9741363525390625
1768216478058862300,10.1388623046875,-0.26092529296875,-0.049072265625,0.9644622802734375
1768216478068863500,10.148863525390626,-0.2603607177734375,-0.045867919921875,0.9608001708984375
1768216478078863400,10.15886328125,-0.26348876953125,-0.04766845703125,0.9641876220703125
1768216478088864500,10.168864501953125,-0.266845703125,-0.0516357421875,0.9638671875
1768216478098865400,10.178865478515625,-0.2659149169921875,-0.0524749755859375,0.9638824462890625
1768216478108865500,10.188865478515625,-0.2730255126953125,-0.049774169921875,0.9618682861328125
1768216478118866400,10.198866455078125,-0.2791900634765625,-0.0484161376953125,0.9600677490234375
1768216478128866600,10.208866455078125,-0.2838897705078125,-0.0442352294921875,0.9620513916015625
1768216478138867500,10.218867431640625,-0.2844696044921875,-0.04412841796875,0.9636383056640625
1768216478148868600,10.22886865234375,-0.2863922119140625,-0.0456390380859375,0.9597015380859375
1768216478158868500,10.238868408203125,-0.282440185546875,-0.051666259765625,0.9508514404296875
1768216478168869400,10.248869384765625,-0.2785491943359375,-0.0511932373046875,0.9509429931640625
1768216478178869500,10.258869384765624,-0.2767333984375,-0.045989990234375,0.9569549560546875
1768216478188870400,10.268870361328124,-0.2711944580078125,-0.046844482421875,0.959686279296875
1768216478198871300,10.278871337890624,-0.2687530517578125,-0.045135498046875,0.964752197265625
1768216478208871400,10.288871337890624,-0.2683868408203125,-0.044097900390625,0.9667205810546875
1768216478218872600,10.29887255859375,-0.2706756591796875,-0.04718017578125,0.9674072265625
1768216478228872400,10.30887255859375,-0.2723846435546875,-0.0487060546875,0.967498779296875
1768216478238873600,10.31887353515625,-0.27288818359375,-0.048095703125,0.96478271484375
1768216478248874500,10.32887451171875,-0.2702178955078125,-0.0478668212890625,0.9620361328125
1768216478258874400,10.338874267578126,-0.268402099609375,-0.0467376708984375,0.9595947265625
1768216478268875300,10.348875244140626,-0.265625,-0.047119140625,0.961700439453125
1768216478278875600,10.358875732421875,-0.267547607421875,-0.0453033447265625,0.9649810791015625
1768216478288876500,10.36887646484375,-0.2705535888671875,-0.0469207763671875,0.9678497314453125
1768216478298877400,10.37887744140625,-0.2740478515625,-0.04791259765625,0.96673583984375
1768216478308877600,10.388877685546875,-0.27618408203125,-0.047271728515625,0.9638824462890625
1768216478318878500,10.39887841796875,-0.276397705078125,-0.0442352294921875,0.9618072509765625
1768216478328878300,10.40887841796875,-0.2740631103515625,-0.0450592041015625,0.9598236083984375
1768216478338879200,10.418879150390625,-0.2718048095703125,-0.04901123046875,0.9587554931640625
1768216478348880100,10.428880126953125,-0.2662353515625,-0.0496368408203125,0.960418701171875
1768216478358880000,10.4388798828125,-0.2612457275390625,-0.05169677734375,0.96405029296875
1768216478368881000,10.448880859375,-0.2576904296875,-0.0540771484375,0.9666748046875
1768216478378881000,10.458881103515624,-0.258392333984375,-0.05035400390625,0.9649658203125
1768216478388882000,10.4688818359375,-0.26239013671875,-0.04583740234375,0.96649169921875
1768216478398883000,10.478883056640624,-0.2657623291015625,-0.044342041015625,0.966552734375
1768216478408883200,10.48888330078125,-0.2703857421875,-0.0447235107421875,0.965728759765625
1768216478418884000,10.498884033203124,-0.2759857177734375,-0.042144775390625,0.961517333984375
1768216478428885000,10.508885009765624,-0.27496337890625,-0.0434112548828125,0.960235595703125
1768216478438884900,10.518884765625,-0.277740478515625,-0.041656494140625,0.96209716796875
1768216478448886000,10.528885986328126,-0.2756805419921875,-0.0367584228515625,0.9638519287109375
1768216478458886000,10.538885986328125,-0.2731170654296875,-0.0399169921875,0.9634246826171875
1768216478468887000,10.548886962890625,-0.2686614990234375,-0.043060302734375,0.9639892578125
1768216478478887200,10.55888720703125,-0.26239013671875,-0.043853759765625,0.967742919921875
1768216478488888000,10.56888818359375,-0.259429931640625,-0.047454833984375,0.9648590087890625
1768216478498889000,10.578888916015625,-0.2552337646484375,-0.049774169921875,0.969940185546875
1768216478508888800,10.588888916015625,-0.2584991455078125,-0.052734375,0.9681396484375
1768216478518890000,10.598889892578125,-0.2645721435546875,-0.053497314453125,0.965545654296875
1768216478528890000,10.60889013671875,-0.267822265625,-0.0471649169921875,0.965362548828125
1768216478538891000,10.61889111328125,-0.271636962890625,-0.0440673828125,0.9629669189453125
1768216478548892000,10.628891845703125,-0.2757720947265625,-0.043304443359375,0.960693359375
1768216478558892000,10.63889208984375,-0.271759033203125,-0.038848876953125,0.962677001953125
1768216478568893000,10.648892822265625,-0.2733917236328125,-0.0367889404296875,0.9665374755859375
1768216478578893000,10.65889306640625,-0.27532958984375,-0.0395660400390625,0.9704132080078125
1768216478588894200,10.668894287109374,-0.2759552001953125,-0.0408172607421875,0.9674530029296875
1768216478598895000,10.67889501953125,-0.2712249755859375,-0.0415191650390625,0.967315673828125
1768216478608895000,10.68889501953125,-0.26324462890625,-0.0409393310546875,0.958526611328125
1768216478618896100,10.698896240234374,-0.2621917724609375,-0.0386810302734375,0.95025634765625
1768216478628896000,10.70889599609375,-0.2652130126953125,-0.037750244140625,0.950958251953125
1768216478638897000,10.71889697265625,-0.253204345703125,-0.042724609375,0.9592132568359375
1768216478648898000,10.72889794921875,-0.2559051513671875,-0.044281005859375,0.9695892333984375
1768216478658898200,10.738898193359375,-0.2688140869140625,-0.0475006103515625,0.973388671875
1768216478668899000,10.748899169921875,-0.271453857421875,-0.0521087646484375,0.9732818603515625
1768216478678899000,10.75889892578125,-0.272705078125,-0.05487060546875,0.9696502685546875
1768216478688900000,10.768900146484375,-0.2730255126953125,-0.0494384765625,0.9708709716796875
1768216478698901000,10.77890087890625,-0.2690887451171875,-0.0529327392578125,0.967010498046875
1768216478708900900,10.78890087890625,-0.2585296630859375,-0.06573486328125,0.965484619140625
1768216478718902000,10.798902099609375,-0.2515716552734375,-0.0696563720703125,0.9583740234375
1768216478728902100,10.808902099609375,-0.2452545166015625,-0.0562896728515625,0.960845947265625
1768216478738903000,10.818903076171875,-0.2523956298828125,-0.0383758544921875,0.9735870361328125
1768216478748904000,10.828904052734375,-0.2503204345703125,-0.0361480712890625,0.973785400390625
1768216478758904000,10.838904052734375,-0.263824462890625,-0.02984619140625,0.985748291015625
1768216478768905000,10.848905029296875,-0.2685546875,-0.0249481201171875,0.98150634765625
1768216478778904800,10.85890478515625,-0.270355224609375,-0.0203399658203125,0.9681854248046875
1768216478788906000,10.868906005859374,-0.277801513671875,-0.021270751953125,0.9678497314453125
1768216478798907100,10.8789072265625,-0.28424072265625,-0.0363006591796875,0.9591522216796875
1768216478808907000,10.888906982421876,-0.2815399169921875,-0.048553466796875,0.95648193359375
1768216478818908000,10.898907958984376,-0.272308349609375,-0.0580596923828125,0.9486083984375
1768216478828908800,10.90890869140625,-0.27703857421875,-0.0556640625,0.945892333984375
1768216478838909000,10.918908935546876,-0.2782135009765625,-0.046722412109375,0.95068359375
1768216478848910000,10.92891015625,-0.2800445556640625,-0.0401458740234375,0.954132080078125
1768216478858910200,10.93891015625,-0.2823638916015625,-0.0330047607421875,0.965484619140625
1768216478868911000,10.9489111328125,-0.28564453125,-0.0325927734375,0.9669189453125
1768216478878911000,10.958910888671875,-0.2877655029296875,-0.0324859619140625,0.9580078125
1768216478888912000,10.968911865234375,-0.27734375,-0.035430908203125,0.9544525146484375
1768216478898913000,10.9789130859375,-0.2711029052734375,-0.0406494140625,0.955322265625
1768216478908913200,10.9889130859375,-0.2664794921875,-0.0430908203125,0.95257568359375
1768216478918914000,10.9989140625,-0.2723541259765625,-0.0491790771484375,0.9559326171875
1768216478928914200,11.0089140625,-0.2656707763671875,-0.0589752197265625,0.941497802734375
1768216478938915000,11.0189150390625,-0.2857818603515625,-0.052978515625,0.965911865234375
1768216478948916000,11.028916015625,-0.28814697265625,-0.0474090576171875,0.975433349609375
1768216478958915800,11.038915771484374,-0.274017333984375,-0.0515594482421875,0.96856689453125
1768216478968917200,11.048917236328125,-0.2716827392578125,-0.0528411865234375,0.9686431884765625
1768216478978917000,11.058917236328124,-0.2708892822265625,-0.0482940673828125,0.96337890625
1768216478988918000,11.06891796875,-0.267425537109375,-0.0443115234375,0.9635009765625
1768216478998919000,11.0789189453125,-0.2612457275390625,-0.03948974609375,0.962066650390625
1768216479008919000,11.0889189453125,-0.2583160400390625,-0.0368804931640625,0.9573516845703125
1768216479018920000,11.098919921875,-0.2551727294921875,-0.0368804931640625,0.9628448486328125
1768216479028919800,11.108919921875,-0.2556610107421875,-0.0387420654296875,0.9632568359375
1768216479038921200,11.118921142578126,-0.2639923095703125,-0.04302978515625,0.9614715576171875
1768216479048922000,11.128922119140626,-0.2644500732421875,-0.041778564453125,0.965301513671875
1768216479058922000,11.138921875,-0.2684783935546875,-0.046112060546875,0.9661865234375
1768216479068923000,11.1489228515625,-0.2712249755859375,-0.04583740234375,0.9709930419921875
1768216479078923000,11.158923095703125,-0.264007568359375,-0.045379638671875,0.9749755859375
1768216479088924000,11.168923828125,-0.27001953125,-0.0424346923828125,0.9716339111328125
1768216479098925000,11.178925048828125,-0.2704620361328125,-0.0416259765625,0.9675140380859375
1768216479108925200,11.18892529296875,-0.2747650146484375,-0.037017822265625,0.9635009765625
1768216479118926000,11.198926025390625,-0.2732696533203125,-0.0334625244140625,0.9661407470703125
1768216479128926000,11.208926025390625,-0.2703704833984375,-0.036102294921875,0.96551513671875
1768216479138927000,11.218927001953125,-0.2677459716796875,-0.03619384765625,0.96319580078125
1768216479148928000,11.228927978515625,-0.2650909423828125,-0.0352630615234375,0.9647674560546875
1768216479158928000,11.238927978515624,-0.264007568359375,-0.036712646484375,0.965087890625
1768216479168929000,11.248928955078124,-0.258941650390625,-0.0375213623046875,0.9617156982421875
1768216479178929200,11.25892919921875,-0.2569732666015625,-0.0384674072265625,0.9583892822265625
1768216479188930000,11.268929931640624,-0.2502593994140625,-0.0382843017578125,0.96746826171875
1768216479198931000,11.278930908203124,-0.250030517578125,-0.0432281494140625,0.96978759765625
1768216479208931000,11.28893115234375,-0.249542236328125,-0.0367584228515625,0.970855712890625
1768216479218932000,11.298931884765626,-0.2478485107421875,-0.0364990234375,0.96875
1768216479228931800,11.308931884765625,-0.2375946044921875,-0.0386810302734375,0.9692840576171875
1768216479238933000,11.31893310546875,-0.2399139404296875,-0.039398193359375,0.977935791015625
1768216479248934100,11.32893408203125,-0.2488250732421875,-0.042205810546875,0.976593017578125
1768216479258934000,11.33893408203125,-0.2545013427734375,-0.0443572998046875,0.9733428955078125
1768216479268935000,11.348934814453125,-0.26092529296875,-0.0432281494140625,0.9697723388671875
1768216479278935000,11.35893505859375,-0.259613037109375,-0.0411529541015625,0.9701080322265625
1768216479288936000,11.36893603515625,-0.259368896484375,-0.039154052734375,0.9647369384765625
1768216479298937000,11.37893701171875,-0.2557373046875,-0.0418701171875,0.96038818359375
1768216479308937000,11.38893701171875,-0.249969482421875,-0.0436859130859375,0.9613037109375
1768216479318938000,11.398938232421875,-0.2561187744140625,-0.042999267578125,0.96405029296875
1768216479328938000,11.40893798828125,-0.2554779052734375,-0.0432891845703125,0.9657440185546875
1768216479338939400,11.418939453125,-0.256591796875,-0.042144775390625,0.9674835205078125
1768216479348940300,11.428940185546875,-0.2568511962890625,-0.039794921875,0.9699859619140625
1768216479358940400,11.4389404296875,-0.25347900390625,-0.0399017333984375,0.9713592529296875
1768216479368941300,11.44894140625,-0.2502593994140625,-0.0414581298828125,0.972747802734375
1768216479378941200,11.458941162109374,-0.2500762939453125,-0.0430908203125,0.969207763671875
1768216479388942300,11.4689423828125,-0.2517852783203125,-0.0424346923828125,0.967620849609375
1768216479398943500,11.478943603515624,-0.2567291259765625,-0.040618896484375,0.9693450927734375
1768216479408943400,11.488943359375,-0.26312255859375,-0.0367584228515625,0.969512939453125
1768216479418944300,11.4989443359375,-0.2672271728515625,-0.033050537109375,0.969573974609375
1768216479428944400,11.5089443359375,-0.268585205078125,-0.0308837890625,0.971649169921875
1768216479438945300,11.5189453125,-0.2666168212890625,-0.034149169921875,0.96771240234375
1768216479448946200,11.5289462890625,-0.2608489990234375,-0.03350830078125,0.9633331298828125
1768216479458946600,11.538946533203125,-0.2522735595703125,-0.0375823974609375,0.958770751953125
1768216479468947500,11.548947509765625,-0.2400360107421875,-0.0420379638671875,0.9597015380859375
1768216479478947300,11.558947265625,-0.23809814453125,-0.0409698486328125,0.96649169921875
1768216479488948200,11.5689482421875,-0.236785888671875,-0.0429534912109375,0.9692535400390625
1768216479498949400,11.578949462890625,-0.23883056640625,-0.0455169677734375,0.97088623046875
1768216479508949200,11.58894921875,-0.237701416015625,-0.0453033447265625,0.97076416015625
1768216479518950400,11.598950439453125,-0.2406768798828125,-0.0412445068359375,0.97344970703125
1768216479528950500,11.608950439453125,-0.2447662353515625,-0.03985595703125,0.9742431640625
1768216479538951400,11.618951416015625,-0.242950439453125,-0.0401458740234375,0.97308349609375
1768216479548952300,11.628952392578125,-0.24517822265625,-0.0372161865234375,0.973052978515625
1768216479558952400,11.638952392578124,-0.248992919921875,-0.0365142822265625,0.97076416015625
1768216479568953300,11.648953369140624,-0.2484130859375,-0.036895751953125,0.967620849609375
1768216479578953200,11.658953125,-0.2467041015625,-0.03857421875,0.9670257568359375
1768216479588954400,11.668954345703124,-0.242645263671875,-0.0402679443359375,0.96453857421875
1768216479598955500,11.67895556640625,-0.2410125732421875,-0.04376220703125,0.965362548828125
1768216479608955400,11.688955322265626,-0.2414093017578125,-0.0455322265625,0.965087890625
1768216479618956300,11.698956298828126,-0.242523193359375,-0.04364013671875,0.9684600830078125
1768216479628956400,11.708956298828125,-0.24871826171875,-0.04058837890625,0.9706878662109375
1768216479638957300,11.718957275390625,-0.24853515625,-0.043182373046875,0.9712677001953125
1768216479648958500,11.72895849609375,-0.2452239990234375,-0.0445098876953125,0.970672607421875
1768216479658958300,11.738958251953125,-0.246002197265625,-0.04193115234375,0.9686431884765625
1768216479668959500,11.74895947265625,-0.2488555908203125,-0.0394744873046875,0.9691162109375
1768216479678959400,11.75895947265625,-0.2478179931640625,-0.040252685546875,0.9698333740234375
1768216479688960300,11.768960205078125,-0.2465667724609375,-0.0381011962890625,0.969818115234375
1768216479698961200,11.778961181640625,-0.248291015625,-0.038330078125,0.9730987548828125
1768216479708961300,11.788961181640625,-0.251800537109375,-0.0387115478515625,0.9738006591796875
1768216479718962400,11.79896240234375,-0.2506256103515625,-0.03826904296875,0.9708404541015625
1768216479728962300,11.80896240234375,-0.2433319091796875,-0.0394134521484375,0.97509765625
1768216479738963500,11.81896337890625,-0.2401123046875,-0.0428009033203125,0.9730224609375
1768216479748964400,11.82896435546875,-0.23779296875,-0.044525146484375,0.9724578857421875
1768216479758964200,11.838964111328124,-0.2369537353515625,-0.0432586669921875,0.972442626953125
1768216479768965000,11.848965087890624,-0.238555908203125,-0.04296875,0.9726104736328125
1768216479778965200,11.85896533203125,-0.2382659912109375,-0.043548583984375,0.9713592529296875
1768216479788966400,11.86896630859375,-0.238861083984375,-0.0431671142578125,0.969970703125
1768216479798967300,11.87896728515625,-0.2352752685546875,-0.0425262451171875,0.971832275390625
1768216479808967400,11.888967529296876,-0.2349700927734375,-0.04400634765625,0.9750518798828125
1768216479818968300,11.89896826171875,-0.2377471923828125,-0.0408477783203125,0.9773101806640625
1768216479828968200,11.90896826171875,-0.236663818359375,-0.038604736328125,0.9777374267578125
1768216479838969300,11.91896923828125,-0.2355194091796875,-0.037139892578125,0.975250244140625
1768216479848970500,11.928970458984375,-0.231231689453125,-0.040740966796875,0.9730377197265625
1768216479858970400,11.938970458984375,-0.2271270751953125,-0.0439453125,0.9693145751953125
1768216479868971300,11.94897119140625,-0.2286834716796875,-0.0407257080078125,0.9705657958984375
1768216479878971400,11.958971435546875,-0.227142333984375,-0.0409393310546875,0.9722747802734375
1768216479888972300,11.96897216796875,-0.2273406982421875,-0.039337158203125,0.977081298828125
1768216479898972200,11.97897216796875,-0.225067138671875,-0.0417938232421875,0.9766998291015625
1768216479908973600,11.9889736328125,-0.2230072021484375,-0.043426513671875,0.9755096435546875
1768216479918974500,11.998974365234375,-0.2209625244140625,-0.042327880859375,0.9765777587890625
1768216479928974300,12.008974365234375,-0.2251739501953125,-0.0431365966796875,0.975372314453125
1768216479938975200,12.018975341796875,-0.2216644287109375,-0.041717529296875,0.9775390625
1768216479948975400,12.028975341796874,-0.2209320068359375,-0.044830322265625,0.974029541015625
1768216479958976300,12.038976318359374,-0.217041015625,-0.0459136962890625,0.9761962890625
1768216479968977400,12.048977294921874,-0.2191314697265625,-0.0477142333984375,0.97821044921875
1768216479978977500,12.0589775390625,-0.216400146484375,-0.0490875244140625,0.97564697265625
1768216479988978400,12.068978515625,-0.215911865234375,-0.049896240234375,0.97314453125
1768216479998978300,12.078978271484376,-0.2189178466796875,-0.0464630126953125,0.973114013671875
1768216480008979200,12.088979248046876,-0.220672607421875,-0.0460968017578125,0.9771270751953125
1768216480018980400,12.09898046875,-0.2174835205078125,-0.0467987060546875,0.9788360595703125
1768216480028980200,12.108980224609375,-0.21929931640625,-0.044281005859375,0.9809417724609375
1768216480038981400,12.1189814453125,-0.2200775146484375,-0.0413970947265625,0.9803924560546875
1768216480048981500,12.1289814453125,-0.22235107421875,-0.0418243408203125,0.9783172607421875
1768216480058982400,12.138982421875,-0.2256927490234375,-0.0416717529296875,0.9777374267578125
1768216480068983300,12.1489833984375,-0.2259368896484375,-0.042877197265625,0.9773712158203125
1768216480078983400,12.1589833984375,-0.2279052734375,-0.04351806640625,0.9743499755859375
1768216480088984300,12.168984375,-0.228363037109375,-0.042022705078125,0.9740142822265625
1768216480098984200,12.178984130859375,-0.225860595703125,-0.04400634765625,0.9725341796875
1768216480108985300,12.1889853515625,-0.23101806640625,-0.0428619384765625,0.9714508056640625
1768216480118986500,12.198986572265625,-0.2339324951171875,-0.04083251953125,0.9735870361328125
1768216480128986400,12.208986328125,-0.23736572265625,-0.0394439697265625,0.9727935791015625
1768216480138987300,12.2189873046875,-0.2384033203125,-0.0364532470703125,0.9761962890625
1768216480148987400,12.2289873046875,-0.2327423095703125,-0.0364837646484375,0.975067138671875
1768216480158988300,12.23898828125,-0.23052978515625,-0.0404815673828125,0.97412109375
1768216480168989400,12.248989501953124,-0.2302398681640625,-0.0404052734375,0.9736328125
1768216480178989300,12.2589892578125,-0.2274932861328125,-0.0387725830078125,0.9717559814453125
1768216480188990500,12.268990478515626,-0.2245941162109375,-0.03912353515625,0.9716644287109375
1768216480198990300,12.278990234375,-0.220611572265625,-0.04119873046875,0.973358154296875
1768216480208991200,12.2889912109375,-0.2195281982421875,-0.0390625,0.975677490234375
1768216480218992000,12.2989921875,-0.215484619140625,-0.039031982421875,0.9784698486328125
1768216480228992500,12.308992431640625,-0.215240478515625,-0.0420379638671875,0.98028564453125
1768216480238993400,12.318993408203125,-0.2141876220703125,-0.042999267578125,0.980560302734375
1768216480248993300,12.3289931640625,-0.2131500244140625,-0.0452880859375,0.981475830078125
1768216480258994400,12.338994384765625,-0.2139892578125,-0.0462493896484375,0.98248291015625
1768216480268995300,12.348995361328125,-0.212371826171875,-0.0495147705078125,0.9832611083984375
1768216480278995200,12.3589951171875,-0.217529296875,-0.0496063232421875,0.9811248779296875
1768216480288996400,12.368996337890625,-0.2146759033203125,-0.048187255859375,0.9803466796875
1768216480298996500,12.37899658203125,-0.21661376953125,-0.04632568359375,0.979461669921875
1768216480308997400,12.388997314453125,-0.2171630859375,-0.0469970703125,0.975189208984375
1768216480318998300,12.398998291015625,-0.2155609130859375,-0.047882080078125,0.9705352783203125
1768216480328998400,12.408998291015624,-0.22052001953125,-0.0457000732421875,0.970123291015625
1768216480338999300,12.418999267578124,-0.2227935791015625,-0.0435943603515625,0.970703125
1768216480348999400,12.42899951171875,-0.2220001220703125,-0.0455474853515625,0.97161865234375
1768216480359000300,12.439000244140624,-0.2251129150390625,-0.0423126220703125,0.9747314453125
1768216480369001500,12.44900146484375,-0.2235260009765625,-0.04241943359375,0.9754638671875
1768216480379001300,12.45900146484375,-0.221832275390625,-0.0459136962890625,0.9744415283203125
1768216480389002500,12.46900244140625,-0.220703125,-0.048828125,0.974212646484375
1768216480399002600,12.479002685546876,-0.22100830078125,-0.0472412109375,0.973724365234375
1768216480409003500,12.48900341796875,-0.2262115478515625,-0.0450286865234375,0.9741973876953125
1768216480419004400,12.49900439453125,-0.2220458984375,-0.0438385009765625,0.9775238037109375
1768216480429004500,12.509004638671875,-0.2259521484375,-0.0431365966796875,0.972930908203125
1768216480439005400,12.51900537109375,-0.2210693359375,-0.0396728515625,0.9752044677734375
1768216480449005300,12.52900537109375,-0.2185211181640625,-0.0421142578125,0.977081298828125
1768216480459006500,12.53900634765625,-0.217559814453125,-0.0458984375,0.9747314453125
1768216480469007600,12.549007568359375,-0.21038818359375,-0.047943115234375,0.976776123046875
1768216480479007500,12.559007568359375,-0.2080078125,-0.05096435546875,0.980255126953125
1768216480489008400,12.56900830078125,-0.2078094482421875,-0.0518035888671875,0.9834136962890625
1768216480499008500,12.579008544921875,-0.20611572265625,-0.0517730712890625,0.985076904296875
1768216480509009400,12.589009521484375,-0.2032623291015625,-0.0575408935546875,0.9810333251953125
1768216480519009500,12.599009521484374,-0.2037506103515625,-0.0577239990234375,0.976806640625
1768216480529010400,12.609010498046874,-0.1977386474609375,-0.0543212890625,0.9757232666015625
1768216480539011600,12.619011474609374,-0.19873046875,-0.0528411865234375,0.975189208984375
1768216480549011500,12.629011474609374,-0.19671630859375,-0.0527801513671875,0.9779052734375
1768216480559012400,12.639012451171874,-0.1958160400390625,-0.05328369140625,0.9789276123046875
1768216480569012500,12.649012451171876,-0.199554443359375,-0.05181884765625,0.982269287109375
1768216480579013600,12.659013671875,-0.20196533203125,-0.0512847900390625,0.9840240478515625
1768216480589014500,12.6690146484375,-0.2054290771484375,-0.048583984375,0.98468017578125
1768216480599014400,12.679014404296876,-0.2046966552734375,-0.0500640869140625,0.9871978759765625
1768216480609015600,12.689015625,-0.20599365234375,-0.048309326171875,0.9838104248046875
1768216480619015400,12.699015380859375,-0.203277587890625,-0.0504913330078125,0.9788360595703125
1768216480629016300,12.709016357421875,-0.2044219970703125,-0.0519561767578125,0.976837158203125
1768216480639017500,12.719017578125,-0.2043609619140625,-0.055389404296875,0.9718017578125
1768216480649017600,12.729017578125,-0.20281982421875,-0.05474853515625,0.968658447265625
1768216480659018500,12.7390185546875,-0.2057647705078125,-0.054443359375,0.9723663330078125
1768216480669018600,12.7490185546875,-0.206207275390625,-0.0532989501953125,0.9761505126953125
1768216480679019500,12.75901953125,-0.205902099609375,-0.0479278564453125,0.977294921875
1768216480689020400,12.7690205078125,-0.2049407958984375,-0.0489501953125,0.9815826416015625
1768216480699020300,12.779020263671875,-0.205810546875,-0.0474395751953125,0.9830780029296875
1768216480709021700,12.789021728515625,-0.2047576904296875,-0.049407958984375,0.980438232421875
1768216480719021600,12.799021484375,-0.209869384765625,-0.0482635498046875,0.9815521240234375
1768216480729022500,12.8090224609375,-0.2100372314453125,-0.04644775390625,0.97705078125
1768216480739023400,12.8190234375,-0.2122039794921875,-0.0465087890625,0.9764556884765625
1768216480749023500,12.8290234375,-0.2093658447265625,-0.0485382080078125,0.975067138671875
1768216480759024400,12.8390244140625,-0.2048492431640625,-0.051025390625,0.9750518798828125
1768216480769024300,12.849024169921876,-0.2037353515625,-0.05242919921875,0.97869873046875
1768216480779025700,12.859025634765626,-0.205963134765625,-0.05206298828125,0.9810638427734375
1768216480789026600,12.869026611328126,-0.2053375244140625,-0.0469970703125,0.98150634765625
1768216480799026400,12.8790263671875,-0.20556640625,-0.04632568359375,0.9806365966796875
1768216480809027300,12.88902734375,-0.205047607421875,-0.0488433837890625,0.981689453125
1768216480819027500,12.89902734375,-0.2044525146484375,-0.0517730712890625,0.9815673828125
1768216480829028400,12.9090283203125,-0.2072906494140625,-0.0482177734375,0.9816436767578125
1768216480839029500,12.919029541015625,-0.20916748046875,-0.046630859375,0.9827728271484375
1768216480849029600,12.929029541015625,-0.2036285400390625,-0.048065185546875,0.9812774658203125
1768216480859030500,12.939030517578125,-0.2025604248046875,-0.0476226806640625,0.9768218994140625
1768216480869030400,12.949030517578125,-0.2041168212890625,-0.046844482421875,0.9798431396484375
1768216480879031300,12.95903125,-0.205474853515625,-0.0466766357421875,0.9806671142578125
1768216480889032400,12.969032470703125,-0.2072296142578125,-0.04461669921875,0.97869873046875
