time,seconds_elapsed,z,y,x
1768216467974514000,0.054513916015625,-0.07357610834240913,0.032263051027432085,-0.03247136001586914
1768216467984515000,0.06451513671875,-0.039707814075425264,0.018166282744333146,0.012471943560242652
1768216467994515000,0.074514892578125,0.0070423197269439694,-0.041199879264086484,0.027919688060879706
1768216468004516000,0.08451611328125,-0.032556773276999594,-0.062231049920246,0.05316869560778141
1768216468014516200,0.09451611328125,-0.07758833965845406,-0.07906528034321963,0.06642915919721126
1768216468024517000,0.10451708984375,-0.08314473167657851,-0.07716843374595046,0.08149053472876548
1768216468034518000,0.11451806640625,-0.07978840698599815,-0.07808496406897902,0.08117255482077598
1768216468044518000,0.124517822265625,-0.03192885063700378,-0.00837488350495696,0.11560264768898486
1768216468054519000,0.13451904296875,0.02041150438785553,0.04422434165179729,0.06457330219745636
1768216468064519000,0.144518798828125,0.01599361488036811,0.0500517326310277,0.034141339054703713
1768216468074520000,0.15452001953125,0.01416647251844406,0.05616210527010262,0.059475686797499656
1768216468084521000,0.16452099609375,-0.006962897815182805,0.057747328634932635,0.04454173703789711
1768216468094521000,0.17452099609375,0.01658990027308464,0.03319587489813566,0.06301847397089004
1768216468104522000,0.18452197265625,0.022726138005778194,0.03399608536511659,0.06261924552023411
1768216468114521900,0.19452197265625,0.008613514566421508,-0.038650925433635706,0.0739823510557413
1768216468124523000,0.20452294921875,-0.04987381878085434,-0.07705832443498074,0.024696634361147878
1768216468134523000,0.21452294921875,-0.11614559545926749,-0.08364033317379653,-0.009182838886976241
1768216468144524000,0.22452392578125,-0.0834544552128762,-0.06147862411774695,-0.0036409868508577347
1768216468154525000,0.23452490234375,-0.07646255049891769,-0.06031469490490853,-0.00405249026119709
1768216468164525000,0.244525146484375,-0.021712723179534075,-0.04122340627014637,0.0014841010779142378
1768216468174526000,0.25452587890625,-0.03104045042991638,-0.03791340493932366,-0.0358019657433033
1768216468184526000,0.264526123046875,-0.011815452412888406,-0.033917905562371016,-0.05045943664908409
1768216468194527000,0.27452685546875,-0.0720480950575322,-0.02888751017972827,-0.07239478960335254
1768216468204526800,0.28452685546875,-0.1275789166867733,-0.0007753682866692542,-0.0671463675558567
1768216468214528000,0.294528076171875,-0.046294133663177486,0.009718334003165364,-0.08621756325066089
1768216468224529200,0.304529052734375,0.0032826018672436476,0.011615326730906962,-0.05920680672824383
1768216468234529000,0.314529052734375,0.031793314623832704,0.040264717305824156,0.0015694412738084791
1768216468244530000,0.324530029296875,0.019296309687569735,0.04840623044632375,0.034224925684928895
1768216468254530000,0.334530029296875,-0.015971476113796235,0.04990282567963004,0.052392450538277624
1768216468264531200,0.34453125,-0.014687939109280705,0.02328442947566509,0.026736031234264372
1768216468274532000,0.354531982421875,-0.03204232094883919,-0.013309271167218684,-0.010244915160536765
1768216468284532000,0.364531982421875,-0.03803951553702354,-0.0017329612724483012,-0.0060170683324337
1768216468294533000,0.374533203125,-0.00975442822985351,-0.030672566965594887,0.02051028858721256
1768216468304533000,0.384532958984375,-0.003770093123242259,-0.05041413620263338,0.02039572229683399
1768216468314534000,0.394533935546875,-0.0010931289989501236,-0.06468216939941049,0.0174368724912405
1768216468324534000,0.404533935546875,-0.00903444339223206,-0.04241816901266575,-0.01200841770172119
1768216468334535000,0.414534912109375,-0.03197926564998924,-0.022407573575899002,-0.01822889965176582
1768216468344535800,0.424535888671875,-0.055448915499448775,-0.004963832952454686,0.0053594812065362925
1768216468354536000,0.434535888671875,-0.04445172066688537,0.023910598549991845,0.00246259072124958
1768216468364536800,0.444536865234375,-0.000991422190144658,0.02159939899817109,0.010317980396747589
1768216468374536700,0.45453662109375,0.0005365180294960737,0.01784333440028131,-0.011767594683170318
1768216468384537600,0.46453759765625,-0.02140044235996902,0.02629632464274764,-0.004240121787786483
1768216468394537700,0.474537841796875,0.03178272016458213,-0.0031705928601324556,0.051745969328284264
1768216468404539000,0.484538818359375,0.03299268047623336,-0.0044297991409897805,0.05158931746184826
1768216468414539800,0.494539794921875,-0.021960487395524978,0.009279723390191792,0.028521745607256888
1768216468424540000,0.504539794921875,-0.005217515452578664,-0.008068009512871503,0.0294014510512352
1768216468434540800,0.514540771484375,0.009432941190525889,0.000415814259275794,0.033737434428930284
1768216468444540700,0.524540771484375,0.04454648627825081,-0.025507073961198327,0.022841946405172345
1768216468454541600,0.53454150390625,0.04577748937793076,-0.026331834347546098,0.022712767067551612
1768216468464541700,0.544541748046875,0.038843890722468494,-0.02724814547486603,0.02734393399953842
1768216468474542800,0.55454296875,-0.005805398343130946,-0.02517952250726521,0.016226327657699584
1768216468484543700,0.564543701171875,-0.029072876683995125,-0.004239902592077851,-0.015547697743773459
1768216468494544000,0.5745439453125,-0.03855396786518395,0.004416135941818357,-0.003311316505074501
1768216468504544800,0.584544677734375,-0.03649864277057349,0.0038842940874397754,-0.0034703064590692516
1768216468514544600,0.594544677734375,-0.019058920735120773,0.00466506920158863,0.005983166062831878
1768216468524545800,0.6045458984375,-0.01844166561961174,-0.03842778420224786,0.04388005825877189
1768216468534547000,0.614546875,-0.01654540354423225,-0.03880589679963887,0.04374152657091617
1768216468544546800,0.624546875,-0.007265680154040456,-0.032094343397021295,0.0075707275152206415
1768216468554547700,0.634547607421875,-0.003081599402427673,-0.033399142385274166,0.007237550038099288
1768216468564547800,0.6445478515625,0.03426116604208946,-0.022767712125182152,0.02013911718726158
1768216468574548700,0.654548828125,-0.019466843948885797,0.010635631511174143,0.018850830942392347
1768216468584548600,0.664548583984375,-0.02165306541416794,0.0381735902454704,0.0090104049295187
1768216468594549800,0.6745498046875,-0.00670680416226387,0.03242660755869001,0.01263151803612709
1768216468604551000,0.684551025390625,-0.0031283611536026,0.031745274231024086,0.012379589101672172
1768216468614550800,0.69455078125,-0.06513904632143676,0.00662161009684205,0.006038695642352104
1768216468624551700,0.7045517578125,-0.06344977806024253,0.005972462005726993,0.00590074847638607
1768216468634551800,0.7145517578125,-0.0981983622930944,0.0024548823388293385,-0.002114215674996376
1768216468644552700,0.724552734375,-0.046644846796989436,-0.0033877062095329165,-0.020150223103165624
1768216468654553600,0.7345537109375,-0.007778853840567171,-0.018060557347536085,-0.01906067430078983
1768216468664554000,0.744553955078125,-0.04582067093253135,-0.016315394180640576,-0.0036181904971599576
1768216468674555000,0.754554931640625,-0.039247137761116026,-0.01077664741706103,0.014510755911469459
1768216468684554800,0.7645546875,-0.02307575516104698,-0.02164619728196412,0.04268529551625252
1768216468694555600,0.7745556640625,0.0009177724320441484,-0.0033166867999359965,0.046925417304039
1768216468704555800,0.7845556640625,0.015331972633861005,0.016479498701170086,0.039941549766063685
1768216468714556700,0.794556640625,-0.019865597475506366,0.00815426302421838,0.03355272551178932
1768216468724557800,0.804557861328125,-0.027723909760452806,0.021080818484164772,0.031657121023535725
1768216468734558000,0.814557861328125,0.004046023987792432,0.010979768773727118,0.030969723281264305
1768216468744558800,0.824558837890625,0.03552366025857627,-0.009565116202831268,0.05734276642203331
1768216468754558700,0.834558837890625,0.011409867286682128,-0.008639927649311721,0.04598082993030548
1768216468764560000,0.844559814453125,-0.010362330995127558,-0.011366028144955635,0.02100362506210804
1768216468774559700,0.854559814453125,0.001849500324204564,0.0108912137074396,0.007405307820439338
1768216468784560600,0.864560546875,-0.013818024406954645,0.015108867935091256,0.010432546687126159
1768216468794561800,0.874561767578125,0.006124547294899821,0.002966156329214573,0.04592997652590274
1768216468804562000,0.88456201171875,0.014134981401637195,-0.0012479542344808578,0.05223696771562099
1768216468814562800,0.894562744140625,-0.024154782569408416,-0.015629713471420108,0.01966857706606388
1768216468824562700,0.904562744140625,-0.030112156603857874,-0.01675597755499184,-0.013019056048989295
1768216468834563800,0.914563720703125,-0.016198197541758417,0.0014597338216379284,-0.020298107141256332
1768216468844564700,0.924564697265625,-0.11673362448029219,0.03336005248390138,-0.02114215674996376
1768216468854564600,0.934564697265625,-0.07663425380401313,0.03556103312689811,-0.016126958936452863
1768216468864565800,0.944565673828125,-0.011162103070691227,0.049396373994834715,0.002374327915906906
1768216468874566000,0.95456591796875,-0.01141224190685898,0.048596930712834,0.0023410101681947708
1768216468884566800,0.96456689453125,-0.0198773244459182,0.030943091002665457,0.021639584878087044
1768216468894566700,0.974566650390625,0.03300670900158584,0.0125289709771052,0.05591887109875679
1768216468904567800,0.98456787109375,0.007260894381068647,0.0057089887639507645,0.05143383463919163
1768216468914568700,0.994568603515625,-0.0073977090358734125,0.0028321546860039233,0.028519992041587828
1768216468924568600,1.004568603515625,-0.0008616217980161308,-0.010533449778333306,0.012931962287425994
1768216468934569700,1.01456982421875,-0.0025496844828128812,-0.02696414090171456,-0.002211246308684349
1768216468944569900,1.02456982421875,-0.031074352699518203,-0.020114165409095584,-0.0025508535265922547
1768216468954570800,1.03457080078125,-0.031008813182637093,-0.020465609195269643,-0.0025748189240694043
1768216468964571600,1.044571533203125,-0.04834573243074119,-0.01986293059438467,0.009984218397736548
1768216468974571800,1.05457177734375,-0.012680544809624552,-0.02082457870077342,0.026903204494714734
1768216468984573000,1.064572998046875,-0.028038382537104188,-0.013889518740586936,0.011796820777654647
1768216468994572800,1.07457275390625,-0.06550963319949805,-0.006747866825014353,0.01598725820481777
1768216469004573700,1.08457373046875,-0.050509778596833345,0.006081950262188911,0.04442132552862167
1768216469014573800,1.09457373046875,-0.05095277312397956,0.005455452394299209,0.04441021961271763
1768216469024574700,1.10457470703125,0.027543913551047444,0.027203064224123955,0.06485621079206466
1768216469034575600,1.11457568359375,0.028536431719735262,0.026110117888264357,0.06473579928278923
1768216469044575700,1.12457568359375,-0.028042949114367364,0.054537499742954965,0.020122750574350357
1768216469054577000,1.134576904296875,-0.026213505197502672,0.053085364705882966,0.01993570356965065
1768216469064576800,1.14457666015625,-0.1451204551288858,0.037335531986132264,-0.03582417757511139
1768216469074578000,1.154577880859375,-0.10216397798843681,0.05264485439676791,0.01958615947961807
1768216469084578800,1.164578857421875,-0.06286532923579216,0.07892050157766789,0.033786534267663954
1768216469094578700,1.17457861328125,0.09447875724807381,0.007873254125751555,0.11072656608521937
1768216469104579600,1.18457958984375,0.09307572204973548,0.0050613385101780295,0.11064473302066326
1768216469114579700,1.194579833984375,0.09274725728034973,-0.004673581301607191,0.13168459843993185
1768216469124580900,1.204580810546875,0.004332549311593175,-0.06278579772617668,0.09690554600358009
1768216469134580700,1.214580810546875,-0.022341668732836842,-0.06376706384848803,0.0390916549384594
1768216469144582000,1.224581787109375,-0.009248341871239244,-0.03104753775782883,-0.008391980770230293
1768216469154582800,1.234582763671875,-0.056581791986897584,-0.013321911453083157,-0.041514498171210286
1768216469164582700,1.244582763671875,-0.02097615253329277,0.015147811705991625,0.008899345770478248
1768216469174583600,1.25458349609375,-0.01797174655292183,0.037648105066642165,0.004870236384868621
1768216469184583700,1.264583740234375,-0.04590261359494179,0.06786087250076234,-0.011411036330461501
1768216469194584800,1.274584716796875,-0.023098040058091282,0.05491192254591733,0.0008937339693307876
1768216469204585700,1.284585693359375,-0.00747965169828385,0.04340261347275227,0.022481296399235726
1768216469214585900,1.2945859375,0.023011384687945245,0.04030625489261001,0.05809972226917744
1768216469224586800,1.304586669921875,-0.027169673411175606,0.05258435638118535,0.027842531171441077
1768216469234586600,1.314586669921875,-0.04781392710898071,0.027974413922801613,0.008625789526104927
1768216469244587800,1.324587890625,-0.05416530542969703,0.036918329487368465,-0.0007505261063575744
1768216469254587600,1.334587646484375,-0.0781388862133026,0.0324292744398117,-0.016154431465268133
1768216469264588800,1.3445888671875,-0.049318449920415876,0.01877747344523668,0.01810556553304195
1768216469274589700,1.354589599609375,-0.03017418898940086,0.028665684122592208,0.029196868389844893
1768216469284589800,1.36458984375,-0.03341832200977951,0.029357831105217336,0.032815643408894535
1768216469294590700,1.3745908203125,-0.002791676545143127,0.017820830307528377,0.06159048699438571
1768216469304590600,1.384590576171875,-0.0015291092634201048,0.02370722146499902,0.027671850779652594
1768216469314592000,1.394592041015625,0.012887538623809813,-0.010411394301243125,0.016356091517210007
1768216469324593000,1.404593017578125,-0.013874284638836979,-0.012817834388464688,0.008182721933722496
1768216469334592500,1.414592529296875,-0.03304068433642387,-0.008008680541068316,0.0251531459569931
1768216469344593400,1.424593505859375,-0.032163828436657785,-0.008204933765530586,0.025094693768024444
1768216469354593500,1.434593505859375,-0.02229366487264633,0.01016940223891288,0.002947159367799759
1768216469364594700,1.4445947265625,0.011649521261453627,0.0016153627747669814,0.01645487571656704
1768216469374594800,1.4545947265625,0.011014730489253997,0.0018341931572183965,0.016502221989631652
1768216469384595700,1.464595703125,0.014973185791447758,0.012878807328082621,-0.011444354078173636
1768216469394596600,1.4745966796875,0.02864975590109825,0.016577990639582277,0.024353520011901855
1768216469404596500,1.484596435546875,0.11132803910970687,-0.02234557772297412,0.06657061349451542
1768216469414597600,1.49459765625,0.11779515276458113,-0.055204293088614936,0.08568506380915641
1768216469424597500,1.504597412109375,0.0508031355202198,-0.049817960407771165,0.07376257082521916
1768216469434598700,1.5145986328125,-0.03961538655161857,-0.03472534948773682,0.04341419431269169
1768216469444599600,1.524599609375,-0.06726677906513213,-0.044554815715178844,-0.01518997034728527
1768216469454599700,1.534599609375,-0.029588498055934904,-0.002038848883844912,-0.04052548713386059
1768216469464600600,1.5446005859375,-0.024703100634552538,-0.002624941676110029,-0.05893558857142925
1768216469474600400,1.554600341796875,-0.03416534098479897,-0.012002828211151062,-0.03304419146776199
1768216469484601600,1.5646015625,-0.009613046997785568,-0.015401567271351814,-0.004296235889196396
1768216469494602800,1.574602783203125,-0.010140322274900972,0.03135324270613491,0.03400982162952423
1768216469504602600,1.5846025390625,-0.019812953972816467,0.043885611216723915,0.04414660024046898
1768216469514603500,1.594603515625,-0.03714980015568435,0.04565068466048688,0.0396142175078392
1768216469524603600,1.604603759765625,-0.038731589454412456,0.04536028687916696,0.02926934910416603
1768216469534604500,1.6146044921875,-0.03855966695360839,0.04534413946196437,0.029259996753931043
1768216469544604400,1.6246044921875,0.007278539635613561,0.04716514434404671,0.02686462604999542
1768216469554605600,1.63460546875,0.040895562555268404,0.02395093056038022,0.028977672681212423
1768216469564606700,1.644606689453125,0.0412647977264598,0.02459273559525609,0.028993454772233963
1768216469574606600,1.654606689453125,-0.0038578810045495626,-0.021763759247027337,0.010162497574090957
1768216469584607500,1.664607421875,-0.060212695835158224,-0.04740560203641653,-0.0025058453410863875
1768216469594607600,1.674607666015625,-0.06357603478841484,-0.044040180723927916,-0.03250935393869877
1768216469604608500,1.6846083984375,-0.07682955718040466,-0.039093189308419825,-0.01893091044127941
1768216469614609700,1.694609619140625,-0.034872575938701626,-0.031132622225396332,-0.00040448914766311644
1768216469624609800,1.70460986328125,-0.007968238932825625,-0.031100363923609254,0.030264205360412594
1768216469634610700,1.714610595703125,-0.028322423642873764,-0.014971139964833855,0.07519406493306159
1768216469644610600,1.724610595703125,-0.00007014262676239014,0.001730550119653344,0.052346273308992386
1768216469654611700,1.73461181640625,0.0038626667775213718,-0.01544778103325516,0.07044424005746841
1768216469664611600,1.744611572265625,0.030012860947847365,0.015021116586402058,0.07303601011633873
1768216469674612500,1.754612548828125,0.04015438879914582,0.02124989144075662,0.012265607333183288
1768216469684613600,1.764613525390625,0.08950783696770667,0.03842909937649965,0.010120411998033523
1768216469694613800,1.77461376953125,-0.026022951061464846,0.04296813104562461,-0.012480126866698265
1768216469704614700,1.78461474609375,0.03685527418851852,0.0005676438201218843,0.026586978152394292
1768216469714614500,1.794614501953125,-0.01102298686094582,-0.002361468434333801,-0.009604863691329955
1768216469724615700,1.80461572265625,-0.014204977897927164,-0.035813656181097026,-0.018859598770737646
1768216469734616600,1.814616455078125,-0.08346154254078865,-0.02002670632135123,-0.0234627086520195
1768216469744616400,1.824616455078125,-0.012677183808758855,-0.016124876577220858,-0.005796703580021858
1768216469754617600,1.83461767578125,0.04820091713257134,-0.011559103031642735,0.024826982742547986
1768216469764617700,1.84461767578125,-0.004051905739307403,-0.008685374226234853,0.07307926473617553
1768216469774618600,1.85461865234375,-0.014790741896629333,0.0017499489398673175,0.055334933730959886
1768216469784619500,1.86461962890625,-0.01802789718694985,0.016504560077190398,0.03774608554840088
1768216469794619600,1.87461962890625,-0.015412673187255858,0.0344659678991884,0.02047638631761074
1768216469804620500,1.88462060546875,-0.02447860769629478,0.029243009086512027,-0.006228080734610557
1768216469814620400,1.894620361328125,-0.011430837009474634,0.023898835046961903,-0.019918167912960052
1768216469824621600,1.90462158203125,-0.014369813070818782,0.01050904598943889,0.0006429740786552428
1768216469834621700,1.91462158203125,-0.019452961554005742,0.01074073585346341,0.008321838143467902
1768216469844622600,1.92462255859375,-0.039901875342801214,0.0029950901627540587,-0.01001636710166931
1768216469854623500,1.93462353515625,-0.04170439472012222,0.01570493413209915,-0.012483633998036384
1768216469864623600,1.94462353515625,-0.03863105168938637,0.01299194884635508,0.04385200120806694
1768216469874624500,1.95462451171875,-0.037179135848022994,0.013365312203392385,0.04379413354098797
1768216469884624600,1.964624755859375,0.008557400465011597,-0.0020079788215458393,0.0935720176666975
1768216469894625500,1.97462548828125,-0.02825699372384697,0.011527648447453975,0.02347323004603386
1768216469904626700,1.984626708984375,-0.044412082776241,-0.00031582448352128267,-0.00010989011526107787
1768216469914626600,1.99462646484375,-0.06496953497342765,-0.004187076426297426,0.005475801062583923
1768216469924627500,2.00462744140625,-0.06317622181586921,-0.004371968006528914,0.005370587122440338
1768216469934627600,2.014627685546875,-0.05890921202115714,-0.0011922785244882106,0.01766834315955639
1768216469944628700,2.024628662109375,-0.050503860312700266,0.010601583111099898,0.03057867813706398
1768216469954628600,2.034628662109375,0.012829086434841156,0.01484068198557943,0.03318447672128677
1768216469964629800,2.044629638671875,0.003768924079462886,0.010425715087540447,0.03474339660108089
1768216469974630700,2.054630615234375,-0.018764321702718734,0.009823730606399477,0.01697100854516029
1768216469984630500,2.064630615234375,-0.009595547873713075,-0.004208009616471827,0.02553133161962032
1768216469994631400,2.07463134765625,-0.024333682800270616,-0.013347995742410421,0.02556581841111183
1768216470004631600,2.084631591796875,-0.022522870518639684,-0.013574972898699342,0.02545943542718887
1768216470014632700,2.0946328125,-0.04569912691209465,-0.012082761579565704,0.009203881675004959
1768216470024633600,2.104633544921875,-0.04152092791199684,0.0036652079766616224,0.024699556970596313
1768216470034633700,2.1146337890625,-0.04049100034236908,0.003748538878560066,0.024651041653752325
1768216470044634600,2.124634521484375,-0.054489167089201505,0.00798953744918108,0.011735445979237556
1768216470054634500,2.134634521484375,-0.012611680824495852,0.0023080577466636893,0.01676291875243187
1768216470064635400,2.144635498046875,0.003156418204307556,0.015999350501410662,0.02505085462629795
1768216470074636800,2.15463671875,-0.0041045857746154065,0.0030897096436470744,0.03899520882666111
1768216470084636700,2.16463671875,0.00419452908039093,0.025529943380132317,0.030794951236248015
1768216470094637600,2.174637451171875,-0.0007926116824150085,0.0202634742192924,0.017513444858789442
1768216470104637700,2.1846376953125,0.030826478885672984,0.01070738157313317,0.009324877706170081
1768216470114638600,2.194638671875,-0.014324293428659438,-0.011521291771903634,-0.005420856004953384
1768216470124638500,2.204638427734375,-0.04576806396245956,-0.031052104335092007,0.007520458632707595
1768216470134639600,2.2146396484375,-0.032456089381501074,-0.0248054650304839,0.014784896677732466
1768216470144640800,2.224640869140625,0.005908420326188206,-0.012603205257095396,-0.003087444621324539
1768216470154640600,2.234640625,0.012387260951474308,-0.006021561844460666,0.013161679390072822
1768216470164641500,2.2446416015625,-0.016415749282576143,-0.0007112170092761517,0.016249708533287048
1768216470174641700,2.2546416015625,-0.024178236510232088,0.0035959786653518675,0.03282441123723984
1768216470184642600,2.264642578125,-0.030049174370244142,0.00030508389379829167,0.03803133223056793
1768216470194643500,2.2746435546875,-0.013441738440468906,0.007937368870526552,0.02724105814695358
1768216470204643600,2.2846435546875,-0.025216347386315462,0.016264467711001634,0.016640753677487373
1768216470214644700,2.294644775390625,-0.017319383591413495,0.03429707760568708,-0.022648469659686088
1768216470224644600,2.30464453125,0.022675942188501358,0.0006467004057019948,-0.04471475551724434
1768216470234645500,2.3146455078125,0.043351650470495225,0.01935845167096704,-0.005434884530305862
1768216470244646700,2.324646728515625,0.049859717190265655,-0.007518997327983379,-0.006601590222120285
1768216470254646500,2.334646484375,-0.059302083796262735,-0.0321099428249523,0.03081657854616642
1768216470264647400,2.3446474609375,-0.05933832415342331,-0.03700662882532924,0.030700843212008475
1768216470274647800,2.354647705078125,-0.06094809743762016,-0.03735646517630666,0.030762218010425564
1768216470284648700,2.364648681640625,-0.04277651746366173,-0.03557663255482912,0.0413134226411581
1768216470294649600,2.374649658203125,-0.008122516179084778,0.0031864845490083096,0.031679332855343814
1768216470304649500,2.3846494140625,-0.02174414123110473,0.0030616160603240132,0.004985387197136879
1768216470314650600,2.394650634765625,-0.037840705029293896,0.024772622206807135,-0.0011807342171669005
1768216470324650500,2.404650390625,0.0022528204280883074,0.032327604163624346,0.01693359914422035
1768216470334652400,2.41465234375,0.0914624416342005,0.027177016467414796,0.05702127938270569
1768216470344652300,2.42465234375,0.04624032111670821,-0.0025322218913584947,0.0527419946283102
1768216470354653400,2.4346533203125,0.046384113501571116,-0.0021854542803019282,0.05275368506610393
1768216470364654300,2.444654296875,-0.0434008233744651,-0.003925393282808363,0.0023141221612691877
1768216470374654200,2.454654296875,-0.04279639120791107,-0.0036470877980813382,0.0022989245921373365
1768216470384655400,2.4646552734375,-0.00388473247885704,-0.008454853405989705,0.0339893633633852
1768216470394655500,2.474655517578125,-0.02126023017168045,0.006960778923332691,0.0008732757031917572
1768216470404656400,2.484656494140625,-0.05316230239961296,0.02148340793568641,-0.020396891340613364
1768216470414657300,2.4946572265625,-0.05942370088193565,0.01717168221641332,-0.01740413926541805
1768216470424657400,2.504657470703125,-0.02888009405825287,0.023448716659285128,0.010906009417772292
1768216470434658300,2.514658203125,-0.0031517420291900635,0.03561309210769832,0.0064577978372573844
1768216470444658200,2.524658203125,-0.012995090651512145,0.04973145116809755,0.02160392904281616
1768216470454659600,2.53465966796875,-0.006755940533615648,0.03430248443316668,0.03241115426123142
1768216470464660500,2.544660400390625,0.006516176960989832,0.01254625090546906,0.025999533653259275
1768216470474660400,2.554660400390625,-0.010443141146376728,0.008868402642942964,0.027344518521428107
1768216470484661200,2.5646611328125,-0.006726750971749425,-0.020571809516102074,0.010872691670060157
1768216470494661400,2.574661376953125,-0.022765995092131196,-0.014057897577434777,0.01669043803811073
1768216470504662300,2.584662353515625,-0.02307465918250382,-0.01411178318914026,0.016703297519683837
1768216470514662400,2.594662353515625,-0.021277765828371046,0.002769720441661775,0.010274141255021095
1768216470524663600,2.60466357421875,-0.006352510831877589,0.01370619806293398,0.010142623829841614
1768216470534664400,2.61466455078125,-0.013491970790363848,0.0035173239385709165,0.0052162733435630795
1768216470544664300,2.624664306640625,-0.012687668670155108,-0.012682919429801404,0.019568623822927473
1768216470554665200,2.634665283203125,-0.007899228817224503,-0.021078480396606026,0.05726093335747719
1768216470564665300,2.644665283203125,0.0014472761988639832,-0.008402940555661917,0.07459083834290504
1768216470574666500,2.65466650390625,0.021024083328247067,-0.02464216422755271,0.0639180531591177
1768216470584667400,2.66466748046875,-0.005486322456598282,-0.014141922599077223,0.027356208959221837
1768216470594667500,2.67466748046875,-0.020714286726713178,0.006447020714916289,0.01205634849667549
1768216470604668400,2.68466845703125,-0.006753565913438796,0.0357952437415719,0.01876490622460842
1768216470614668300,2.694668212890625,-0.006737199300527573,0.04174848959017545,-0.008644494226574897
1768216470624669400,2.70466943359375,-0.04335632664561272,0.03165565971881151,0.004659223982691764
1768216470634670600,2.714670654296875,-0.029833924184367058,0.028369623785465953,0.016485855376720426
1768216470644670500,2.72467041015625,-0.014670257322117686,0.0025689006399363277,0.012596446722745895
1768216470654671400,2.73467138671875,-0.031717326778173446,-0.004856134794279932,-0.020314473754167554
1768216470664671500,2.74467138671875,-0.033937413980439306,-0.010719510402344166,-0.01698679063618183
1768216470674672400,2.75467236328125,-0.003855542916990816,-0.009470679385028779,-0.011259645161032675
1768216470684673300,2.76467333984375,0.03636778293251991,0.00030691052470356226,-0.004216156390309334
1768216470694673400,2.77467333984375,0.018747882024571297,0.01604132647961378,-0.007509937238693237
1768216470704674600,2.784674560546875,0.021608678283169865,0.024373101495206356,0.011505144354701041
1768216470714674400,2.79467431640625,-0.002197838837839663,0.0024914514895528553,0.042186113822460174
1768216470724675300,2.80467529296875,-0.0116074722180143,-0.020281009875982997,0.06644844841957091
1768216470734676500,2.814676513671875,0.02773549060039222,-0.024516711216978727,0.03221124777495861
1768216470744676400,2.82467626953125,-0.0003578004617244005,-0.023388474372029303,-0.0033919805258512494
1768216470754677200,2.83467724609375,0.012255085939168929,0.002616831434890628,-0.012815642431378364
1768216470764677400,2.844677490234375,0.020937574088573455,0.009530337150394915,-0.018052374041080475
1768216470774678500,2.854678466796875,0.0079646952688694,0.0002691357975825667,-0.01533025560081005
1768216470784678400,2.864678466796875,0.006783961051702499,-0.00013429390415549278,-0.015291092634201049
1768216470794679300,2.87467919921875,-0.031386487388610836,0.0009804624047130347,-0.011949380990862846
1768216470804680400,2.884680419921875,-0.038454562611319125,-0.006455934673734009,-0.02505085462629795
1768216470814680300,2.894680419921875,-0.022824447281099853,-0.004977569216862321,-0.005965045884251594
1768216470824681200,2.90468115234375,0.02814823611974716,0.0037490868678316473,0.02584112822115421
1768216470834681600,2.914681640625,0.03688340430445969,0.02752736427504569,0.034737551382184026
1768216470844682500,2.9246826171875,0.038846228810027236,0.02949307485744357,0.017718027520179747
1768216470854683400,2.934683349609375,0.013259258013032377,0.012850567614287137,0.05139174906313419
1768216470864683300,2.944683349609375,-0.03640051615834236,-0.003629150282591581,0.04704115263819694
1768216470874684400,2.954684326171875,-0.03695000326726586,-0.004324110276810824,0.04703296933174133
1768216470884684300,2.964684326171875,-0.03023965544104576,0.01830828503090888,0.0028998130947351453
1768216470894685400,2.974685546875,-0.014754428474232554,0.005686009747162461,-0.01036883380115032
1768216470904686300,2.984686279296875,-0.028802827570959925,-0.008635361072048544,0.01186637888252735
1768216470914686500,2.9946865234375,-0.01688449930548668,-0.005072371360845864,0.0187222361266613
1768216470924687400,3.004687255859375,-0.014671572496369481,-0.018945596553757785,-0.028138883769512176
1768216470934687500,3.0146875,-0.021052140378952026,-0.0409151440385729,0.007445055308938026
1768216470944688400,3.0246884765625,-0.03453815635256469,-0.031423458398133514,0.014880758267641066
1768216470954689500,3.034689453125,-0.030507293401286006,-0.017058248437196014,0.011370704320073127
1768216470964689400,3.044689453125,-0.031953400556370616,-0.017177490902692077,0.01144376955628395
1768216470974690600,3.054690673828125,-0.008298968724533916,-0.004820259763300419,0.04277180475592613
1768216470984690400,3.0646904296875,0.003168072109483182,0.014052125423774122,0.05359072041213512
1768216470994691300,3.07469140625,0.006561842733621597,-0.007549684727191925,0.05122048414945602
1768216471004691500,3.08469140625,-0.01934182932972908,0.007945223383419216,0.02178045465350151
1768216471014692400,3.0946923828125,-0.02354224016163498,-0.009223572756163775,0.012837854263186455
1768216471024693500,3.104693603515625,-0.018565511194989084,-0.007719597934000194,0.042488896161317825
1768216471034693400,3.114693359375,-0.03279284705519676,-0.012842238177359104,0.03995966994464397
1768216471044694500,3.124694580078125,-0.06592698182873427,-0.017698117243312297,0.036543139499425885
1768216471054694400,3.1346943359375,-0.039458734685182566,0.009344970646128058,0.03447919270694256
1768216471064695300,3.1446953125,-0.0067394643228501075,0.016986644505709407,0.03075812635719776
1768216471074696200,3.1546962890625,-0.021353753674030303,-0.0021424919214099642,0.02989186491668224
1768216471084696300,3.1646962890625,-0.04667407289147377,0.00540766772981733,0.02590659467279911
1768216471094697500,3.174697509765625,-0.02567687757015228,0.013294000532850622,0.01057107837498188
1768216471104697300,3.184697265625,0.0024841814985498783,0.0168873488496989,0.006453706184029579
1768216471114698500,3.194698486328125,0.008449848437309265,0.016288834967277944,0.02342179211974144
1768216471124699400,3.204699462890625,0.03784669637866318,0.005181494291126728,0.02586860074996948
1768216471134699300,3.21469921875,-0.019815218995139,-0.006774279907904565,0.010650573351979255
1768216471144700400,3.224700439453125,-0.029250680936314163,-0.014381941900029777,0.0342114816814661
1768216471154700300,3.2347001953125,-0.0952408641943708,0.0005902575107291341,-0.0021907880425453183
1768216471164701400,3.244701416015625,-0.07624627739973366,0.017415975833684205,-0.01389934601485729
1768216471174702300,3.254702392578125,-0.023750329954363405,0.020895707708224652,0.011810849303007125
1768216471184702500,3.264702392578125,-0.04738021186683326,0.03943188321087509,-0.02187280911207199
1768216471194703400,3.274703369140625,-0.0024538228929042814,0.049195554193109274,0.0003127192109823227
1768216471204703200,3.284703125,0.041982663672231135,0.03357709276806563,0.005787351229786872
1768216471214704400,3.294704345703125,0.03997307741548866,0.022573577792569993,0.02696925546824932
1768216471224704500,3.30470458984375,-0.012110234108380972,0.02041753226984292,0.03960369611382484
1768216471234705400,3.314705322265625,0.028385552006959913,-0.03456785737108439,0.05657119752764701
1768216471244706300,3.324706298828125,0.04080320809669792,-0.033486893733963366,0.05985562602579593
1768216471254706400,3.33470654296875,-0.008844985234737396,-0.03125007459260523,0.07717325605154036
1768216471264707300,3.344707275390625,-0.03493347581308335,-0.03862699656877666,0.08596271170675754
1768216471274707200,3.354707275390625,0.00829670370221138,-0.0009074702337384223,0.08787994350492953
1768216471284708600,3.36470849609375,0.007815021132491528,0.00001768178716301918,0.08795943848192692
1768216471294709500,3.37470947265625,-0.013791209465265273,0.005455415861681103,0.011665887874364853
1768216471304709400,3.38470947265625,-0.02908113305568695,0.030609657797217367,0.003894669350981712
1768216471314710300,3.394710205078125,-0.016406433464959264,0.05718863530624658,-0.0062730889201164245
1768216471324710400,3.40471044921875,-0.01618424208164215,0.0572333877634257,-0.006283025792241096
1768216471334710800,3.414710693359375,-0.03609656477570534,0.024513131020404397,-0.0021259061127901074
1768216471344711700,3.424711669921875,-0.028094460105895995,0.012296952319517732,-0.001405190622806549
1768216471354712000,3.434712158203125,-0.0026338556349277493,-0.015511128593049943,0.023557985720038414
1768216471364713000,3.444712890625,-0.004388517282530665,-0.00019172317981719968,0.017079729616641996
1768216471374712800,3.454712890625,-0.003041888446547091,-0.00009027209933847189,0.017006664380431174
1768216471384714000,3.4647138671875,0.012604556963965296,0.006809935743175447,0.011966916647553442
1768216471394715000,3.47471484375,0.017100699339434502,0.01986428230125457,0.01331599316895008
1768216471404714800,3.48471484375,0.0203390967387706,0.019658749791793523,0.013116671204566955
1768216471414716000,3.4947158203125,0.014978957945108413,-0.010842077336087823,0.05027472773194313
1768216471424716000,3.504716064453125,0.012086707102321088,-0.02534669576771557,0.03711830903887749
1768216471434717000,3.514717041015625,-0.01234751346297562,-0.005812229942716658,0.028157588469982144
1768216471444717800,3.5247177734375,-0.008527005326747893,-0.006404935138858855,0.02790858214497566
1768216471454718000,3.534718017578125,0.0010462941825389862,-0.01161072362102568,0.039814123994112015
1768216471464718800,3.54471875,0.016974588741734624,0.012434351496212184,0.02913374002575874
1768216471474718700,3.55471875,-0.001965089527890086,0.01695241344254464,0.02160042191147804
1768216471484719900,3.564719970703125,0.00955108767747879,0.005320829696580767,0.013150573474168776
1768216471494720000,3.574719970703125,-0.015477043660357594,0.019043284774571657,0.0060702598243951795
1768216471504721000,3.584720947265625,-0.061022952772118146,0.02975698649063706,-0.020122166052460668
1768216471514721800,3.5947216796875,-0.08965758416932075,0.026157025769911704,-0.022129998743534086
1768216471524722000,3.604721923828125,-0.08728325625341385,0.007139715686812997,-0.0516004233777523
1768216471534722800,3.614722900390625,-0.012103219845704734,-0.0027893749902024863,-0.03212941471040249
1768216471544722700,3.62472265625,0.031274186120554805,-0.009875095467455684,-0.0033761984348297117
1768216471554724000,3.63472412109375,0.04452537042498588,0.0017544424518942832,0.00504500842988491
1768216471564725000,3.64472509765625,0.05048164848089218,0.009504252861067652,-0.0016477672070264815
1768216471574724900,3.654724853515625,0.03456277933716774,0.013896898329444228,0.016173136165738105
1768216471584725800,3.664725830078125,0.012422259199619293,0.019435425897315145,0.055527825954556465
1768216471594726000,3.674725830078125,0.04832943888306617,0.01585000515859574,0.03366495371460915
1768216471604726800,3.684726806640625,0.07375738319344818,0.024342121835052966,0.022126491612195966
1768216471614728000,3.69472802734375,0.11661211699247359,0.010775843699462712,0.031686931639909745
1768216471624728000,3.70472802734375,0.13013093925714492,-0.016285766227357088,0.03404781555235386
1768216471634729000,3.71472900390625,0.1062556312162429,-0.02516691875401884,-0.019419570741057393
1768216471644728800,3.724728759765625,0.09403905065655707,-0.03001830430794507,-0.0381546663492918
1768216471654729700,3.734729736328125,0.12034838091135025,-0.03462170645017177,-0.06836041952073574
1768216471664731000,3.74473095703125,0.12202245160341262,-0.04670899807438254,-0.046486441364884376
1768216471674730800,3.754730712890625,0.12052607556581496,-0.04767579727992415,-0.046454877182841296
1768216471684732000,3.76473193359375,0.1560415525179356,-0.05496591775547713,-0.04773322655558586
1768216471694732000,3.77473193359375,0.16245733784437177,-0.05350201921537518,-0.07787468231916427
1768216471704733000,3.78473291015625,0.13859262426272034,-0.04342964761015027,-0.10516250221729279
1768216471714733800,3.79473388671875,0.14152677801847457,-0.053191163167916236,-0.09578677110671996
1768216471724734000,3.80473388671875,0.15663312520291656,-0.075425024144724,-0.0935632498383522
1768216471734735000,3.814735107421875,0.1840144320707768,-0.0847499749161303,-0.058981181278824804
1768216471744735000,3.82473486328125,0.19666713902540503,-0.08475983872301876,-0.05308686254322528
1768216471754735900,3.83473583984375,0.19171145284678787,-0.08578731860723346,-0.052852469265460965
1768216471764736000,3.844736083984375,0.18811792186684906,-0.07656436690557748,-0.05230477225482463
1768216471774737000,3.85473681640625,0.18873861104846,-0.06178984549138695,-0.033192075505852695
1768216471784737800,3.86473779296875,0.18425890835113823,-0.06233480255566537,-0.032952421531081195
1768216471794738000,3.874738037109375,0.08380056523680686,-0.06323785234261303,0.024272855991125105
1768216471804739000,3.884739013671875,0.08359481353163718,-0.06892587138377129,0.10516834743618965
1768216471814739000,3.894739013671875,0.0830757580935955,-0.04055675905495882,0.05784136359393596
1768216471824739800,3.90473974609375,0.04948905724696815,-0.008138955857232212,0.02701192556619644
1768216471834741000,3.914740966796875,0.03611636545471847,-0.007689421991445124,0.039563948625326154
1768216471844740900,3.924740966796875,-0.01354808489177376,0.014750446418859064,0.03834814309477806
1768216471854741800,3.93474169921875,0.005585691177845001,0.03431187331601977,0.07486439458727837
1768216471864742000,3.944741943359375,-0.011962824994325638,0.016389190069213508,0.07458674668967723
1768216471874743000,3.954742919921875,-0.01740479685254395,0.016026165443100034,0.07491641703546047
1768216471884744000,3.964743896484375,0.014907719339802861,0.021469817801751195,0.06361117916703224
1768216471894743800,3.974743896484375,0.10448328778147697,0.03122000824790448,0.10201894349455833
1768216471904745000,3.984744873046875,0.09861242298670113,0.03113609282411635,0.10240180533230304
1768216471914744800,3.994744873046875,0.1273169778149575,0.016874416302889585,0.08449088558852672
1768216471924745700,4.004745849609375,0.13887531366162,0.0017831570897251367,0.027187282133102415
1768216471934747000,4.014746826171875,0.1805330927610397,0.01150634993109852,-0.001249123278260231
1768216471944747000,4.0247470703125,0.23967728258185086,-0.010885514619015156,-0.0280418531358242
1768216471954748000,4.034747802734375,0.26819376749210055,0.004398417622037232,-0.04042553389072418
1768216471964748000,4.044748046875,0.3496142326593399,0.016238931410945952,-0.0830143832951784
1768216471974749000,4.0547490234375,0.4416167359869927,0.030589126465842126,-0.06482990730702877
1768216471984748800,4.064748779296875,0.5682195741832256,0.00376753583997488,-0.07471183437407017
1768216471994749700,4.074749755859375,0.6704922001779079,0.017890169216692446,-0.08219196099638938
1768216472004750800,4.084750732421875,0.6973416286587715,-0.015128924342431127,-0.186185419434309
1768216472014751000,4.0947509765625,0.7736322566568851,-0.01745437161531299,-0.18815116654932498
1768216472024751900,4.104751953125,0.7850362787246704,-0.055756812404841184,-0.26990648969411846
1768216472034752000,4.114751953125,0.7672423364240676,-0.07828322658743708,-0.3811205470353365
1768216472044753000,4.1247529296875,0.7852969754874706,-0.06448485672902315,-0.507570751953125
1768216472054753800,4.13475390625,0.7879342651885003,-0.06269903275817633,-0.5810884081065655
1768216472064754000,4.14475390625,0.6892061799328774,-0.0871404502492398,-0.539999441871047
1768216472074755000,4.154755126953125,0.5374922813557088,-0.126726939499937,-0.5554325733244418
1768216472084755000,4.1647548828125,0.5024643687248229,-0.05903842789139598,-0.5079734875351191
1768216472094755800,4.174755859375,0.5680722746670246,-0.006061747724376619,-0.530695022431016
1768216472104756700,4.1847568359375,0.6595464432716369,0.06014196868650615,-0.5236351670473813
1768216472114756900,4.1947568359375,0.7235199529450387,0.05895579110924154,-0.4376251090675592
1768216472124758000,4.204758056640625,0.6467781471133232,0.026703298008441925,-0.3991735055983066
1768216472134758000,4.2147578125,0.5743699135065078,0.006626834261231124,-0.4295101916730404
1768216472144759000,4.224759033203125,0.6165875915110111,0.003174428785033524,-0.4617728773742914
1768216472154760000,4.234760009765625,0.5984755962371826,0.057215961704589424,-0.3806751413553953
1768216472164759800,4.244759765625,0.5416062925457954,0.03817950852960348,-0.2843149542748928
1768216472174760700,4.2547607421875,0.4949963709317147,0.009613120063021778,-0.4011760775923729
1768216472184760800,4.2647607421875,0.5366880523007362,-0.018007219725102185,-0.4080138146579265
1768216472194762000,4.274761962890625,0.6238054139353335,-0.10627744118925184,-0.3741682436794042
1768216472204763000,4.284762939453125,0.687031977698952,-0.15051270609386264,-0.4883288758665323
1768216472214763000,4.294762939453125,0.7136335688985884,-0.18799546453095972,-0.5319803860664367
1768216472224764000,4.304763916015625,0.6500771886587142,-0.20922274228110907,-0.5395908610701561
1768216472234763800,4.314763671875,0.5563444274723529,-0.210240248760581,-0.5683657046556473
1768216472244765000,4.324764892578125,0.43343342953138053,-0.18742394825331865,-0.5090875862568617
1768216472254764800,4.334764892578125,0.3277696267284453,-0.19652605005428195,-0.5411369214683771
1768216472264766000,4.344765869140625,0.19338541394099593,-0.16756021394133566,-0.6172662214249373
1768216472274766800,4.354766845703125,0.15540551963672042,-0.15942403456307946,-0.6118383511573076
1768216472284767000,4.36476708984375,0.21629545714631676,-0.07957133016921579,-0.6615490152657032
1768216472294767900,4.374767822265625,0.6041090720795095,-0.004112184559181332,-0.3702496089309454
1768216472304767700,4.384767822265625,0.5286344366393984,0.05787395068928599,-0.3307511267572641
1768216472314769000,4.394768798828125,0.38378625911325215,0.024540859277546404,-0.3933142581760883
1768216472324770000,4.40477001953125,0.22214316026121378,0.03964059405811131,-0.45909050642251964
1768216472334770200,4.414770263671875,0.17317147795185445,0.033942236286029215,-0.4981546888321638
1768216472344771000,4.42477099609375,0.13388605400696396,0.037034210951998825,-0.5149269599348306
1768216472354771200,4.434771240234375,0.20037877995967865,-0.006936594330146908,-0.5723708486437797
1768216472364772000,4.444772216796875,0.146726538618654,0.01194901566468179,-0.5616016173481941
1768216472374773000,4.45477294921875,0.16045257389321924,-0.031550445778667925,-0.512649078130722
1768216472384773000,4.464773193359375,-0.017892068912833927,-0.06260251358114183,-0.44415538761913775
1768216472394774300,4.474774169921875,-0.15467574405744672,-0.020938231675699352,-0.5803074868619441
1768216472404774100,4.484774169921875,-0.18436317244321107,0.002614566412568092,-0.7764958293944597
1768216472414775000,4.494775146484375,-0.1850702977992594,0.05858779804706573,-0.9450357020229101
1768216472424776200,4.504776123046875,-0.07027589775323867,0.12885346666723488,-0.7430740367859602
1768216472434776000,4.514776123046875,-0.0057046413823962205,0.1416687437724322,-0.5791261681228875
1768216472444777000,4.52477685546875,-0.10987374864816665,0.2136637204032391,-0.48655426740944385
1768216472454777000,4.534777099609375,-0.22024083377122877,0.2816903779249638,-0.49956747823953623
1768216472464778200,4.5447783203125,-0.23883652090877294,0.2752721814457327,-0.41403439012169835
1768216472474779100,4.554779052734375,-0.07186696633696556,0.2645752847339958,-0.02273322533369064
1768216472484779000,4.564779052734375,0.05264964016973972,0.2126705446474254,-0.010695581537485122
1768216472494780200,4.5747802734375,0.1597632764548063,0.12534450869821012,-0.12071253804862499
1768216472504780000,4.584780029296875,0.17627105140239,0.0863060452517122,-0.0420715475320816
1768216472514781000,4.594781005859375,0.217028885987401,0.0927457229103893,0.0814244837552309
1768216472524781000,4.604781005859375,0.012508768439292908,0.0950909708622843,0.2431716275036335
1768216472534782200,4.6147822265625,0.005700257468223571,0.14259674533754588,0.33146599702835083
1768216472544783000,4.624783203125,-0.03817833948582411,0.12436375403255223,0.569140196159482
1768216472554783200,4.634783203125,-0.09202829535603523,0.1171218200802803,0.6120768360882998
1768216472564784000,4.6447841796875,-0.11499182231426239,0.16643500930368899,0.34557226379215716
1768216472574784000,4.654783935546875,-0.16077274575829506,0.20984277387559414,0.10492752441763878
1768216472584785000,4.664784912109375,-0.3236518161460757,0.1377592421784997,0.0199117381721735
1768216472594786000,4.6747861328125,-0.77366031370759,0.1470282980442047,-0.27959494001567364
1768216472604786200,4.6847861328125,-1.0393462630972266,0.13771174977496264,-0.41269232786297794
1768216472614787000,4.694787109375,-1.2098173960492014,0.15205664760023355,-0.5457762717068195
1768216472624787200,4.704787109375,-1.2449705424949526,0.1847939650759101,-0.5285018963009118
1768216472634788000,4.7147880859375,-0.7296309101060032,0.2751411754772067,-0.5264560696870089
1768216472644789200,4.724789306640625,-0.34703912147432564,0.23561419786140322,-0.3196668381631374
1768216472654789000,4.7347890625,-0.1309232586786151,0.16675488890781998,-0.1665343780249357
1768216472664790300,4.744790283203125,-0.29722587377429005,0.1490171337738633,-0.2858785503298044
1768216472674790100,4.7547900390625,-0.3903054317489266,-0.042726358179003,-0.23665245486795902
1768216472684791000,4.764791015625,-0.6303221023529768,0.07099559032991529,-0.19401333658099174
1768216472694792000,4.7747919921875,-0.5494318716049194,0.05834361402764916,-0.25552140598893164
1768216472704792000,4.7847919921875,-0.23877602289319036,0.0032424890525639054,-0.3421154013365507
1768216472714793200,4.794793212890625,0.0316670578956604,-0.028731004443764686,-0.41489772895276544
1768216472724793000,4.80479296875,0.04479629632085561,0.004469985020905733,-0.41288346652090546
1768216472734794200,4.814794189453125,-0.026414836455881593,0.06881093976721167,0.3203472216427326
1768216472744794000,4.824794189453125,-0.04843377604037523,-0.06102350076138973,0.6403934145122766
1768216472754795000,4.834794921875,0.11863836212307215,-0.2372990822084248,0.7803899142235518
1768216472764796000,4.8447958984375,0.2240349653571844,-0.3504508296139538,0.5897492689460515
1768216472774796000,4.854796142578125,0.2110726079314947,-0.43416736982911824,0.37428222544789314
1768216472784797200,4.864797119140625,0.24773703572303055,-0.39615035838484763,0.370815426120162
1768216472794797000,4.874797119140625,-0.18171470376104115,-0.34405645240172744,-0.1584141999334097
1768216472804798200,4.884798095703125,-0.15737784262299537,-0.31465938526466486,-0.15938567531406878
1768216472814799000,4.894799072265625,-0.7616714774891734,0.013238690149039029,-0.4176964197605848
1768216472824799000,4.904799072265625,-0.9126678023815155,0.16790318216010927,-0.5038374106436968
1768216472834800000,4.914800048828125,-0.9530603107854724,0.2253932480983436,-0.5257803623825311
1768216472844800000,4.924800048828125,-0.933041897368431,0.2500172556146979,-0.5260393055796623
1768216472854801200,4.93480126953125,-0.9368398283466696,0.23831834225356577,-0.38635961673259733
1768216472864802000,4.944802001953125,-0.8587292914450169,0.21673355630263685,-0.11256781003773211
1768216472874802200,4.95480224609375,-0.7995487882018089,0.13307955992966888,0.15971709922552108
1768216472884803000,4.964802978515625,-0.7301426590204239,0.07439838451072574,0.2187052947670221
1768216472894803000,4.974802978515625,-0.43350802913755176,0.1161490295253694,0.14407120180428026
1768216472904804000,4.98480419921875,-0.11070347747057675,0.08323562483042478,0.1035229183167219
1768216472914805200,4.99480517578125,-0.02921528082937002,0.11941650688871741,0.11346855826973914
1768216472924805000,5.00480517578125,0.03656067515611648,0.19204729720503091,0.22282851217687127
1768216472934806000,5.014805908203125,0.11122048708200453,0.2365747134566307,0.3031412352979183
1768216472944806100,5.02480615234375,0.11839461649507284,0.1933387983202934,0.11946984451115131
1768216472954807000,5.03480712890625,0.09067308135479688,0.15461743799895047,-0.12411562449038029
1768216472964808000,5.044807861328125,0.11712532721161842,0.1307411801099777,-0.11075988383293152
1768216472974808300,5.054808349609375,0.23983166942596434,0.002647299638390541,-0.06156009185612201
1768216472984809200,5.064809326171875,0.2582394327759743,-0.09146598529815674,0.097675945854187
1768216472994809000,5.07480908203125,0.28300913237333297,-0.27302316040992736,0.024657471394538878
1768216473004810000,5.08481005859375,0.29819501106739044,-0.31550796491801736,0.0034083471387624737
1768216473014810000,5.09481005859375,0.19078677574992178,-0.2301730297207832,0.06968728421032429
1768216473024811000,5.10481103515625,-0.0021896189987659453,-0.09070084614455699,0.0382592957675457
1768216473034812200,5.114812255859375,-0.08706336642503738,0.08934007918536663,-0.1405138015836477
1768216473044812300,5.124812255859375,-0.1312277945831418,0.2070706788137555,-0.3802519475072622
1768216473054813200,5.134813232421875,-0.10292816729396581,0.324721783465147,-0.30423838288486005
1768216473064813000,5.14481298828125,-0.15149375302046536,0.3102119043365121,-0.13879530722796915
1768216473074814200,5.154814208984375,-0.07473200037926435,0.29582974324077366,-0.16054887387454508
1768216473084815000,5.164815185546875,0.12146510998159646,0.05312719455361366,0.24015257194340228
1768216473094815000,5.17481494140625,0.2632537538066506,-0.05719020620882511,0.27664076638519763
1768216473104816000,5.184816162109375,0.3896329393148422,-0.1124050206914544,0.1585533161431551
1768216473114816300,5.194816162109375,0.5800618415378034,-0.16022008031159637,-0.023946108254790304
1768216473124817200,5.204817138671875,0.7161011280559003,-0.1439241945490241,-0.2188029099225998
1768216473134818000,5.214818115234375,0.8132391676411033,-0.027565467795729635,-0.37816812697052954
1768216473144818200,5.224818115234375,0.7984216838680207,0.10751198795288801,-0.3747983582764864
1768216473154819000,5.234819091796875,0.8670178118407725,0.0873874838128686,-0.3916489553123712
1768216473164819000,5.24481884765625,0.48406931872591374,0.10073504116386174,-0.35490941645801066
1768216473174820000,5.254820068359375,0.3058008098959923,-0.04606996951848268,-0.3067483198791742
1768216473184821200,5.2648212890625,-0.006482493887096643,-0.14664733590260148,-0.19584113653004168
1768216473194821000,5.274821044921875,-0.2758676631208509,-0.19816461104154587,0.02166705740690231
1768216473204822000,5.284822021484375,-0.29858320666737853,-0.17189546666666863,0.3295090177416801
1768216473214822100,5.294822265625,-0.2125659152291715,-0.21845424261540172,0.7671615993380546
1768216473224823000,5.304822998046875,-0.048255642994493246,-0.18708499862253664,1.426947696584463
1768216473234824200,5.31482421875,-0.03685995036363601,-0.28280323453769085,1.3204226738423108
1768216473244824000,5.324823974609375,-0.03933591202311217,-0.4900105453431606,1.6792454643517731
1768216473254825200,5.3348251953125,0.004373319713398814,-0.5489528559163213,2.7574679860711098
1768216473264825000,5.3448251953125,-0.20577968915514647,-0.5833008234590291,2.6861633297920227
1768216473274826000,5.354825927734375,-0.4488800415208563,-0.5663644478358328,2.9480794052541253
1768216473284827000,5.364826904296875,-0.28909630679991094,-0.5618040080524981,3.7583500784784554
1768216473294827000,5.374826904296875,-0.2248188457438722,-0.6190623110614717,4.0113177083313465
1768216473304828200,5.384828125,-0.12437223873310721,-0.6650451868183911,4.000575949564576
1768216473314828000,5.394828125,-0.05091770181059837,-0.8845056838668882,3.845172621884942
1768216473324829200,5.4048291015625,0.048190313540166244,-0.9251173879794776,3.8379263040184974
1768216473334829000,5.4148291015625,0.003603577449917793,-0.8554694128662347,3.234259568879008
1768216473344830000,5.424829833984375,-0.015189385825395583,-0.7226289223894476,2.6106822646111247
1768216473354831000,5.4348310546875,-0.09111118051111698,-0.4749224279351532,1.8524574204444884
1768216473364831000,5.4448310546875,-0.15915128203630446,-0.1148778405457735,1.1889894198149442
1768216473374831900,5.454831787109375,-0.3017419629592448,0.17114757090881466,0.622179127907753
1768216473384832000,5.46483203125,-0.5019540080498903,0.3896897840686142,0.23446400491297242
1768216473394833200,5.474833251953125,-0.6287492270130663,0.4661847024671733,-0.11795943994820117
1768216473404834000,5.484833984375,-0.7196966683298349,0.5027702198036015,-0.48749827026128767
1768216473414834000,5.494833984375,-0.7797625761054455,0.5012186064474284,-0.7317898417055606
1768216473424835000,5.5048349609375,-0.6955114175569266,0.4100891596272587,-0.9644079264909028
1768216473434835000,5.5148349609375,-0.5558797325700521,0.347734118001163,-1.2023644496947525
1768216473444835800,5.5248359375,-0.4078688532292843,0.2507711427219212,-1.3958435332685708
1768216473454837000,5.5348369140625,-0.29683132149875163,0.1649558766618371,-1.4724106401205062
1768216473464837000,5.544837158203125,-0.18008761401586235,0.044339930855482816,-1.4759388142466545
1768216473474838000,5.554838134765625,-0.16650164479911325,-0.10166881488263606,-1.34899585737586
1768216473484838000,5.564837890625,-0.23854995905235407,-0.13341463710293172,-1.1769336558401584
1768216473494839000,5.574839111328125,-0.30458748858347534,-0.15707951726354658,-0.8223989179134369
1768216473504840200,5.584840087890625,-0.36542905690670013,-0.18006079907417297,-0.429128498879075
1768216473514840000,5.594840087890625,-0.42326399075984955,-0.27900354999378324,-0.14819734182357788
1768216473524841000,5.604841064453125,-0.22850363520383835,-0.27147644242458047,0.011768763726949691
1768216473534841000,5.614841064453125,-0.03278802474960685,-0.26959377048313615,0.019239537999033926
1768216473544842000,5.624842041015625,0.12982304235175252,-0.2881951567091048,0.053095045849680896
1768216473554842000,5.634842041015625,0.2651585645146668,-0.3348205681532621,0.15654606797397136
1768216473564843000,5.644843017578125,0.27579510934129353,-0.3241512901008129,0.27194237943589683
1768216473574844200,5.65484423828125,0.15563538286983966,-0.27117672882564364,0.3530085512727499
1768216473584844000,5.664843994140625,-0.04045008381009101,-0.1796567483179271,0.37601416380703445
1768216473594845200,5.67484521484375,-0.11898702943027019,-0.11853175994344055,0.39352234796881674
1768216473604845000,5.684844970703125,-0.14748977807611227,-0.05133190863467753,0.41931028469800946
1768216473614846000,5.694845947265625,-0.1908463969826698,0.014876082092523574,0.44329672496318817
1768216473624846800,5.704846923828125,-0.26916765402555465,0.09063727938905358,0.48448389087617394
1768216473634847000,5.714846923828125,-0.31577275333404536,0.17286628446020186,0.46282852390706536
1768216473644848000,5.72484814453125,-0.3780862939059734,0.21976875928007064,0.3536497717857361
1768216473654848000,5.734847900390625,-0.41541970700025554,0.23822167694605886,0.29246786559224125
1768216473664849200,5.74484912109375,-0.3449199373632669,0.26107290263622995,0.12138415369987487
1768216473674850000,5.75485009765625,-0.2896235820770264,0.24000147303491828,0.13214286360144614
1768216473684850000,5.764849853515625,0.006441577354818582,0.35248781533427537,-0.4701292023092508
1768216473694850800,5.774850830078125,0.05564999102950096,0.3322228798102587,-0.46004035449326036
1768216473704851000,5.784850830078125,-0.10139964255243539,0.44554523454234,-0.530821863681078
1768216473714852000,5.79485205078125,-0.18479995642527935,0.40198534814864395,-0.368027256706357
1768216473724853000,5.80485302734375,-0.3619235330037772,0.42299277260303497,-0.0671241557240486
1768216473734853000,5.81485302734375,-0.46013387799561023,0.32009660788252947,0.050451837864518165
1768216473744854000,5.82485400390625,-0.46662382453680035,0.2609161777045578,0.012546177840232849
1768216473754854000,5.83485400390625,-0.3582888297632336,0.2282745756883174,-0.05423310996890068
1768216473764854800,5.844854736328125,-0.32774785328805445,0.2134407983675599,-0.046909050691127774
1768216473774856200,5.854856201171875,-0.1799684446156025,0.10270561058446764,-0.1212695874094963
1768216473784856000,5.86485595703125,-0.1413198572695255,-0.0037676819704473017,-0.17649696911275387
1768216473794857000,5.87485693359375,-0.061954644131660457,-0.09689944505635649,-0.22684651564657687
1768216473804857000,5.884857177734375,-0.050287879474461075,-0.11266042022462934,-0.23728256946504114
1768216473814858000,5.89485791015625,-0.10336743549406528,-0.140767593681626,-0.16083704316616057
1768216473824857900,5.90485791015625,-0.1480421512618661,-0.11600490834694355,-0.024455226820707318
1768216473834859000,5.91485888671875,-0.1992065213099122,-0.11236892646476626,0.06139993285834789
1768216473844860200,5.924860107421875,-0.19798107116818428,-0.08304704345576465,0.09397884490191936
1768216473854860000,5.934860107421875,-0.1818918138936162,-0.023840967379882932,0.015774492236971853
1768216473864861000,5.94486083984375,-0.241846516379714,-0.02819832233916968,-0.03988777375221252
1768216473874861000,5.954861083984375,-0.339003991317749,-0.020494981420226394,-0.12438742716908455
1768216473884862000,5.964862060546875,-0.3744505677521229,-0.02652531109303236,-0.16304770495295523
1768216473894863000,5.974863037109375,-0.34563773024380207,-0.009368570717424154,-0.21141922941207886
1768216473904863200,5.98486328125,-0.23217443267107007,-0.01363064860869199,-0.19210954878628253
1768216473914864000,5.994864013671875,-0.15087532886117697,-0.016720431317575276,-0.09838029473125934
1768216473924864000,6.004864013671875,-0.18796528858840464,0.04120265574306249,0.01400397543311119
1768216473934865000,6.014864990234375,-0.18913725497722625,0.09495159892421215,0.07589373763501643
1768216473944866000,6.024865966796875,-0.21665859137028454,0.02396112316083163,0.18008768708109854
1768216473954866000,6.034865966796875,-0.26739304556846616,0.021745785198919475,0.21918518723845481
1768216473964867000,6.0448671875,-0.2076741976648569,0.04526577699612826,0.1619727691978216
1768216473974867200,6.0548671875,-0.0892933174341917,0.01930489485282451,0.06934475438296794
1768216473984868000,6.0648681640625,-0.036197687062621116,-0.0603671192118898,0.1258008010983467
1768216473994869000,6.074868896484375,-0.08006605488359927,-0.11939794831871986,0.1340922441035509
1768216474004868900,6.084868896484375,-0.06532616639137268,-0.1485971547961235,0.11856091297268867
1768216474014870000,6.0948701171875,-0.1306824356600642,-0.1414310260264203,0.020664017844200133
1768216474024870000,6.104869873046875,-0.12861293590962886,-0.14114252794124185,0.021330957320332525
1768216474034871000,6.11487109375,-0.17073182971477507,0.030795280029810964,-0.09103928431868552
1768216474044872000,6.124871826171875,-0.25355975052714347,0.07417498755101114,-0.12609949178397656
1768216474054872000,6.1348720703125,-0.34712212358266115,0.0993947324708104,-0.031518589335680004
1768216474064873000,6.144873046875,-0.3988397435992956,0.10526241892781107,0.06199029996693134
1768216474074873000,6.154873046875,-0.403175142455101,0.0996458211550489,0.10721125144064426
1768216474084874000,6.1648740234375,-0.3748322605460882,0.09844378842152654,0.149981887152791
1768216474094875100,6.174875244140625,-0.23276889143288135,0.1403665751326829,0.10775251871049403
1768216474104875000,6.184875,-0.0007139934882521629,0.19007234387025235,-0.046349078720808026
1768216474114876000,6.1948759765625,0.21001170070171354,0.19355905347485095,-0.1478261704236269
1768216474124876000,6.2048759765625,0.21114625768959522,0.20649726283997297,-0.1304752226501703
1768216474134877000,6.214876953125,0.06139817929267883,0.21916531349420545,-0.08130641033351421
1768216474144877000,6.224876953125,-0.10267302348911761,0.25051651037372646,-0.040005847173929215
1768216474154878000,6.2348779296875,-0.20155834513306617,0.26616905673146246,0.06155541568100452
1768216474164879000,6.244879150390625,-0.1981973442673683,0.2501961558455601,0.09078560181856155
1768216474174879000,6.25487890625,-0.1627200804337859,0.21629366704802958,0.04724515077769756
1768216474184880000,6.264880126953125,-0.09556728313714265,0.1913390028052032,0.012032383099198341
1768216474194880000,6.2748798828125,-0.0356798006683588,0.1783443870777264,-0.0042728550136089324
1768216474204881000,6.284880859375,-0.006287701967358589,0.16311795717757194,-0.014746902754902839
1768216474214882000,6.294882080078125,-0.03158843970149755,0.12209935276452451,-0.06380816304385661
1768216474224882200,6.304882080078125,-0.0810977360188961,0.09265227247327566,-0.03633388066291809
1768216474234883000,6.314883056640625,-0.15684154378920792,0.08885138235297053,0.011605097597837448
1768216474244883000,6.324883056640625,-0.16327888336032628,0.0902552943341434,0.009603694647550582
1768216474254884000,6.334884033203125,-0.2158373381152749,0.15118055888544768,0.04962064773738384
1768216474264885000,6.344885009765625,-0.23372224663496016,0.19200565002039074,-0.013602993416786193
1768216474274884900,6.354884765625,-0.22810148414373396,0.20798304441832005,-0.09696925888955593
1768216474284886000,6.364885986328125,-0.22981997849941252,0.22657164422795176,-0.13136369592249392
1768216474294886100,6.37488623046875,-0.2797390246614814,0.21652908323910086,-0.1586795728713274
1768216474304887000,6.384886962890625,-0.3449041552722454,0.1864743924435228,-0.19066461067497728
1768216474314888000,6.394887939453125,-0.38455139826685186,0.16179613398928194,-0.17609481805264948
1768216474324888000,6.40488818359375,-0.4443836434170603,0.17205825601294636,-0.1304752226501703
1768216474334888400,6.414888427734375,-0.4505453809171915,0.15534600800182669,-0.09088730862736702
1768216474344888600,6.424888671875,-0.3793231422245502,0.14384974107332527,-0.1364239019215107
1768216474354889700,6.4348896484375,-0.32861411472856994,0.14593118698988108,-0.13416940099298955
1768216474364890600,6.444890625,-0.2419289339661598,0.1242049102090299,-0.07787935849428176
1768216474374890500,6.454890380859375,-0.16029285328686235,0.10231569795142859,-0.0438274512887001
1768216474384891400,6.464891357421875,-0.10269523532092571,0.08487615857906639,-0.01721241608560085
1768216474394891500,6.4748916015625,-0.058763739135861394,0.09358228333238512,-0.004513678032159805
1768216474404892400,6.484892333984375,-0.04702507828623056,0.08442903586607425,0.034490883144736285
1768216474414892500,6.494892578125,0.012634732906520367,0.04476169993150979,0.05631868407130241
1768216474424893700,6.504893798828125,0.020673954716324806,0.02468571110833436,0.07942249628305435
1768216474434894600,6.51489453125,-0.013584580977261066,0.0355120611523278,0.08318564820885657
1768216474444894500,6.52489453125,-0.05372866757810116,-0.0005467654288746416,0.06909224092662335
1768216474454895600,6.5348955078125,-0.08458791622221469,-0.02806223833672702,0.010085925206542015
1768216474464895500,6.5448955078125,-0.13193623511344194,-0.007041589074581861,0.038542788884043694
1768216474474896400,6.554896484375,-0.10049538718909025,-0.006325458428170532,0.05728957493007183
1768216474484897500,6.5648974609375,-0.07464432209581136,0.00042078269533813,0.04299567663967609
1768216474494897700,6.574897705078125,-0.04708148464858532,-0.019162308044359085,-0.0053583121627569195
1768216474504898600,6.584898681640625,0.0015887304961681365,-0.004165248186979442,-0.026624387553334235
1768216474514898400,6.5948984375,0.028922727623581886,-0.04042378032505512,-0.015806640940904615
1768216474524899600,6.604899658203125,0.08516367028355598,-0.08461984573043882,0.03237491390407085
1768216474534900500,6.614900390625,0.11931085455715655,-0.1372769933531992,0.07754150484204292
1768216474544900400,6.624900390625,0.07828004824966192,-0.16490785453533752,0.10994038414359092
1768216474554901500,6.634901611328125,0.010271510906517504,-0.1863735076186247,0.08200549851357937
1768216474564901600,6.644901611328125,-0.006868716725707054,-0.16589580612676216,0.039589083066582674
1768216474574902500,6.654902587890625,-0.04484218128919601,-0.12070145039902999,-0.007157470539212226
1768216474584903400,6.6649033203125,-0.039351767179369924,-0.09441447810651733,-0.02464168930351734
1768216474594903600,6.674903564453125,-0.03000526216328144,-0.07099045749707147,0.033926819521188735
1768216474604904400,6.684904541015625,-0.030716040781140326,-0.04048689042283222,0.06813771668076515
1768216474614904300,6.694904296875,0.014369886136054992,0.02170351695977151,0.09629355158507823
1768216474624905500,6.704905517578125,0.09185293878912926,0.039708106336370105,0.12610709056854247
1768216474634905600,6.714905517578125,0.08306815930902957,-0.008142828314751386,0.14611527485251427
1768216474644906500,6.724906494140625,0.009567454290390014,0.010298051853571086,0.0785749395430088
1768216474654907400,6.734907470703125,0.0070262453749775884,0.0005042049287818372,0.023280337822437287
1768216474664907500,6.744907470703125,0.07079612223505974,0.0005697627119719982,0.05159866981208324
1768216474674908400,6.754908447265625,0.05810527522712946,0.03156633746754378,0.023494272834062576
1768216474684908500,6.764908447265625,0.019613047486543654,0.0523062152932398,0.00443418305516243
1768216474694909700,6.77490966796875,0.016730770048499106,0.052555586944427336,0.0035638299614191055
1768216474704910600,6.78491064453125,-0.0015814239725470542,0.06946978726843371,0.017931962531805037
1768216474714910500,6.794910400390625,-0.0028133038550615308,0.0700069994176738,0.017573066091537474
1768216474724911400,6.804911376953125,-0.00887830298244953,0.0763242014741525,-0.011838906353712082
1768216474734911500,6.814911376953125,0.0071557169735431666,0.08784180345162748,-0.011946458381414412
1768216474744912600,6.82491259765625,0.021714111419022082,0.11124879986103624,0.02718669761121273
1768216474754913500,6.83491357421875,0.05065232887268066,0.09477744793370366,0.0489426023453474
1768216474764913700,6.84491357421875,0.0746925451517105,0.06233045517411082,0.04449439076483249
1768216474774914600,6.85491455078125,0.09196575151383876,0.06360133362645283,0.035113983479142186
1768216474784914400,6.86491455078125,0.07358224582225084,0.05223817329201847,0.03250409324169159
1768216474794915300,6.874915283203125,0.04516834450364113,0.021004136518761516,0.028241759622097014
1768216474804916700,6.884916748046875,0.03663607847988605,0.01252666942216456,0.003271569016575813
1768216474814916600,6.89491650390625,0.050256899814307684,-0.026280688682198523,0.02550269004702568
1768216474824917500,6.90491748046875,0.04946370361000299,-0.024476854130625725,0.06840075153112411
1768216474834917600,6.914917724609375,0.0066617959767580025,-0.02072130098938942,0.048525838238000864
1768216474844918500,6.92491845703125,-0.004954992058873176,-0.03749748108219355,0.02971241669654846
1768216474854919400,6.93491943359375,-0.05762362919002771,-0.05324952402533963,0.011776362511515617
1768216474864919600,6.94491943359375,-0.07194120061695575,-0.04442788313357159,0.0025455928295850753
1768216474874920700,6.954920654296875,-0.09626286418586968,-0.03601414718925953,0.007424597042798996
1768216474884920600,6.964920654296875,-0.06404577119201421,-0.015671616384387015,0.0056885670304298395
1768216474894921500,6.97492138671875,-0.02612345229387283,0.027743673906847833,0.008054127117991448
1768216474904922400,6.98492236328125,-0.03443009286820888,0.07955900041060522,0.03072363956570625
1768216474914922500,6.994922607421875,-0.04252805912792682,0.05654421818917617,0.08507423843443393
1768216474924923400,7.00492333984375,-0.036683132492005825,0.027790179929696023,0.054738136881589884
1768216474934923500,7.014923583984375,0.010651742395758628,-0.01909854035945609,0.06001929215490818
1768216474944924700,7.024924560546875,0.07622983772158622,-0.04054610979678109,0.04498948080539703
1768216474954924500,7.034924560546875,0.09798545019477606,-0.05773720909971743,0.013819851037859916
1768216474964925400,7.044925537109375,0.10673925001472234,-0.03862076775738969,0.0024169980138540265
1768216474974926600,7.054926513671875,0.057471068976819514,-0.023120672015007584,0.006553659427165985
1768216474984926500,7.064926513671875,0.017172668597102165,0.008253394283447414,-0.009428922602534294
1768216474994927400,7.07492724609375,-0.019667115761339664,0.055018013268895445,-0.015372341176867484
1768216475004927700,7.084927734375,-0.03542699495106935,0.05579942770386114,-0.02932195607423782
1768216475014928600,7.0949287109375,-0.05450140551626682,0.07024331065788865,-0.051772857335209845
1768216475024929500,7.104929443359375,-0.05221154101341963,0.05697462722938507,-0.057525721773505206
1768216475034929400,7.114929443359375,-0.06872486891895532,0.03213211812414229,-0.04058393932282924
1768216475044930600,7.1249306640625,-0.0891340352192521,0.030636764999851584,-0.05783610289692878
1768216475054930400,7.134930419921875,-0.0870256647631526,0.017557466663606462,-0.023825112223625183
1768216475064931600,7.144931640625,-0.04842033203691244,0.0012651610976085067,0.05388648848831653
1768216475074932500,7.154932373046875,-0.03095774058252573,-0.004086867454834282,0.05471183339655399
1768216475084932600,7.1649326171875,-0.027290742507576942,-0.036241928063146765,0.013872458007931708
1768216475094933500,7.17493359375,-0.028017887738347052,-0.01825655484367162,0.03126841396689415
1768216475104933400,7.184933349609375,-0.05220131188035011,-0.00904511091671884,-0.006536123770475387
1768216475114934500,7.1949345703125,-0.08421645256131886,-0.01570248644668609,-0.045889059993624685
1768216475124935700,7.204935791015625,-0.11184358741641044,-0.016504669675044714,-0.026114099943637847
1768216475134935600,7.214935546875,-0.10758972936421632,-0.019825996117480097,-0.01942424691617489
1768216475144936400,7.2249365234375,-0.11026625509709119,-0.027116664582304655,0.002707505393028259
1768216475154936600,7.2349365234375,-0.1023205567896366,-0.007550013520754874,0.02964578120112419
1768216475164937500,7.2449375,-0.07321078216135501,0.0031722368279471992,0.007770049479603767
1768216475174938400,7.2549384765625,-0.0642056379288435,0.02105783946737647,-0.024950316861271856
1768216475184938500,7.2649384765625,-0.07053250286281108,0.024015118370391428,-0.026709727749228477
1768216475194939600,7.274939697265625,-0.05665536867976188,0.0116986211001873,-0.035734161204099654
1768216475204939500,7.284939453125,-0.06058744743168354,0.01729340889994055,-0.023078677770495413
1768216475214940700,7.294940673828125,-0.07228314592242241,0.026515374220907686,-0.01593231314718723
1768216475224941600,7.304941650390625,-0.047888124856352805,0.018076814362592994,-0.03521919741928577
1768216475234941400,7.31494140625,-0.05718757586032152,-0.012262611658498644,-0.0618003303527832
1768216475244942300,7.3249423828125,-0.06931377472281455,-0.019585026968456803,-0.05761223101317882
1768216475254942500,7.3349423828125,-0.08221738769859074,-0.03470788689628243,-0.0475005868434906
1768216475264943600,7.344943603515625,-0.10063713374733925,-0.00606054214797914,-0.049697220104932785
1768216475274944500,7.354944580078125,-0.11561316908299922,0.0016834230422973632,-0.02095043357014656
1768216475284944600,7.364944580078125,-0.09075842155069112,-0.007849909782782197,-0.009483867660164833
1768216475294945500,7.374945556640625,-0.10087298832982777,-0.019664777673780918,-0.016828385204076767
1768216475304945400,7.3849453125,-0.0706324561059475,-0.03855184897333383,-0.027111878809332846
1768216475314946300,7.3949462890625,-0.06021247663944959,-0.04884506025500595,0.0031026421904563903
1768216475324946400,7.404946533203125,-0.06345540408343077,-0.029648375017009673,0.028378537744283675
1768216475334947600,7.414947509765625,-0.015059914226830005,-0.02768321242388338,0.025686229920387268
1768216475344949800,7.42494970703125,0.019474515798687933,-0.030789727071858942,0.05308101732432842
1768216475354949600,7.43494970703125,0.0339873175367713,-0.02129197701681405,0.0656692807406187
1768216475364950800,7.44495068359375,0.05523702631443739,-0.034069881253689524,0.015481062248349189
1768216475374950700,7.45495068359375,0.10579670846760272,-0.05002013191636651,0.02313420735001564
1768216475384951600,7.46495166015625,0.0909559899494052,-0.038180019986256954,0.030581016224622726
1768216475394952400,7.474952392578125,0.039297406643629074,-0.003502272499911487,0.014559855750203132
1768216475404952600,7.48495263671875,-0.009563654898107052,-0.004231244361586868,-0.013344050219655037
1768216475414953700,7.49495361328125,-0.033543373161554334,0.00810856071896851,0.012125322079658508
1768216475424953600,7.50495361328125,-0.01570493413209915,0.013360270702093838,0.03639817807078361
1768216475434954800,7.514954833984375,0.02678191620260477,0.006140438983775675,0.0708452220737934
1768216475444955600,7.52495556640625,0.04930003748089075,-0.00654167672842741,0.07019581825435162
1768216475454955500,7.53495556640625,0.07491700155735015,-0.023270254819840193,0.07534311801493167
1768216475464956700,7.544956787109375,0.09490852696746588,-0.030106932439468798,0.09640519526600837
1768216475474956800,7.554956787109375,0.08892360733896493,-0.011262933096662164,0.09940437708199024
1768216475484957700,7.564957763671875,0.02893324901759624,0.01882412559855729,0.03548106322586536
1768216475494958600,7.57495849609375,0.02663549346923828,0.02890135604199022,-0.01497778890132904
1768216475504958700,7.584958740234375,0.0654950932174921,0.026459260119497775,-0.014565700969099997
1768216475514959600,7.594959716796875,0.07635667897164822,-0.0033358664244413374,0.00016366612911224363
1768216475524959500,7.60495947265625,0.06442746398597955,-0.0011627601690590381,0.025596213549375534
1768216475534960600,7.614960693359375,0.0190881468296051,-0.014962591332197189,0.020600304958224295
1768216475544961800,7.6249619140625,-0.006227788473665714,-0.01619936658553779,0.02377542786300182
1768216475554961700,7.634961669921875,-0.02484422613829374,0.0006425722198560833,0.013864859223365783
1768216475564962600,7.644962646484375,-0.041701545175909994,0.06559332942757755,0.0173234752446413
1768216475574962700,7.654962646484375,-0.03124970926642418,0.07328322634305805,0.0032961189359426496
1768216475584963600,7.664963623046875,-0.05042962603271007,0.08100845030024648,-0.011541969233751297
1768216475594964700,7.67496484375,-0.02536795775145292,0.05937419918440282,0.014210311660170553
1768216475604964600,7.684964599609375,-0.004106558535993099,0.04710724014434963,0.027419921845197676
1768216475614965800,7.6949658203125,0.006322188758850098,0.032798473078384995,0.01475683962702751
1768216475624965600,7.704965576171875,0.0192103119045496,0.029331783348508177,0.006114098966121673
1768216475634966500,7.714966552734375,0.04304331517368555,0.024288747680000958,-0.009628244566917419
1768216475644967700,7.7249677734375,0.04265636168271303,0.023614026756212114,-0.009757423904538154
1768216475654967600,7.734967529296875,-0.019446751008927822,0.02054477537870407,-0.01553892991542816
1768216475664968700,7.74496875,0.003630465456843376,0.03946995019894093,-0.002830254989862442
1768216475674968800,7.75496875,0.00812543878853321,0.04109313095398247,0.03134849346578121
1768216475684969700,7.7649697265625,-0.016444062061607836,0.050537141527794295,0.03172609460651874
1768216475694970600,7.774970703125,-0.02043634656816721,0.037542781528644265,0.02097089183628559
1768216475704970500,7.784970458984375,-0.047615153133869166,0.025284480719082056,0.013803484424948692
1768216475714971600,7.7949716796875,-0.043187692080438135,0.003852912568487227,0.023735680374503135
1768216475724971500,7.804971435546875,-0.02444558220952749,-0.016004830394126472,0.020206921726465224
1768216475734972700,7.81497265625,-0.04569441420435905,-0.015570895956270396,0.02601765383183956
1768216475744973600,7.8249736328125,-0.0812044112637639,-0.017762779977358877,0.01853226651251316
1768216475754973700,7.8349736328125,-0.08132131564170121,-0.0022921660577878353,-0.007219429859519004
1768216475764974600,7.844974609375,-0.04697510166466236,0.0022750687925145027,0.020062544819712636
1768216475774974500,7.854974365234375,-0.018691256466507912,-0.008631598212383688,0.019648118799924848
1768216475784975600,7.8649755859375,0.04405892195701599,-0.035306364246085284,0.04085691104531288
1768216475794976800,7.874976806640625,0.11410744069516658,-0.04897332627717405,0.05192950920164585
1768216475804976600,7.8849765625,0.09031506169736385,-0.0363143722448498,0.013404255974292754
1768216475814977500,7.8949775390625,0.05886836855411529,-0.02975866699106991,0.022017770540714264
1768216475824977700,7.904977783203125,0.009794833305478095,-0.024089279585145413,0.01407587162554264
1768216475834978600,7.914978515625,-0.0446881597712636,-0.024405578992702067,-0.0009101005822420119
1768216475844979500,7.9249794921875,-0.04894406365007162,-0.03198244398776442,-0.01120411558151245
1768216475854979800,7.934979736328125,-0.07843874594271183,-0.022794965458288786,0.00020049100816249847
1768216475864980700,7.944980712890625,-0.03583177635967731,-0.013456461085565388,-0.008453940090537071
1768216475874980600,7.954980712890625,-0.038492520001530646,-0.012675576373562217,-0.00912146408855915
1768216475884981800,7.964981689453125,0.011026420927047729,-0.05019325999356806,-0.0035147301226854323
1768216475894982700,7.974982666015625,0.038004444223642346,-0.040268699361197646,-0.012633856123685836
1768216475904982500,7.984982421875,0.029739596964418885,-0.008348506954684852,-0.00920855785012245
1768216475914983700,7.994983642578125,0.0027110125243663785,-0.00087930358517915,0.010997779354453086
1768216475924983800,8.00498388671875,-0.038982349345088,0.02406973463445902,0.022120646393299102
1768216475934984700,8.014984619140625,-0.03925882819890976,0.009787599847093225,0.011991466566920279
1768216475944985600,8.024985595703125,-0.030003508597612378,-0.010122567422501743,0.008664952492713927
1768216475954985700,8.03498583984375,-0.024528584317862985,-0.009197963390871882,0.00326864640712738
1768216475964986600,8.044986572265625,-0.028458617243170736,-0.0019273878660053013,0.0077495912134647365
1768216475974986500,8.054986572265625,-0.05016103822439909,0.0017946648644283413,0.020571078863739965
1768216475984987600,8.064987548828125,-0.033838264454901214,0.012909567792527377,0.01061024134159088
1768216475994988800,8.07498876953125,-0.021439970652759075,0.02827986314278096,0.013772504764795303
1768216476004988700,8.08498876953125,-0.027332535822689533,0.01729355503041297,0.0197679457873106
1768216476014989600,8.094989501953124,-0.024535306319594382,0.011053674260154366,0.01570668769776821
1768216476024990500,8.104990478515624,-0.010989011526107787,0.007877309246361255,0.011297639083862304
1768216476034990600,8.114990478515624,-0.024742519329488274,0.03046392918359488,0.009111527216434477
1768216476044991700,8.12499169921875,-0.03248860341161489,0.01222410627901554,0.03356850760281086
1768216476054991600,8.13499169921875,-0.008872750024497509,0.0006497326130047441,0.005079495221376419
1768216476064992800,8.14499267578125,-0.010317688135802746,-0.008452369187958539,-0.011359598404169082
1768216476074993700,8.15499365234375,-0.022778671910613772,0.043053069382719696,0.002465513330698013
1768216476084993500,8.16499365234375,0.024074118548631666,0.04010558122135698,-0.0829798965036869
1768216476094994400,8.174994384765625,-0.07207564065158367,0.04270034695491194,0.013859598526358603
1768216476104994600,8.18499462890625,-0.07602233245074748,0.04225578152518719,0.012827332869172096
1768216476114995700,8.19499560546875,-0.03841887024343014,0.05567143567632883,0.08300503094494342
1768216476124996600,8.20499658203125,-0.0467073906391859,0.04539579658396542,0.05014905552566051
1768216476134996700,8.214996826171875,-0.012443886509537696,0.04713595478218049,0.06262742882668972
1768216476144997600,8.22499755859375,0.008555646899342536,0.03380089158657938,0.08307458904981613
1768216476154997500,8.23499755859375,0.02790872827544808,0.005583572285994887,0.07666413748562335
1768216476164998700,8.24499853515625,0.08819105528071522,-0.017508987879380582,0.0321855288118124
1768216476174999800,8.254999755859375,0.09197641903832554,-0.010197240093909203,0.010903671330213546
1768216476184999700,8.264999755859375,0.0915676921069622,-0.022590857720933853,0.00942775355875492
1768216476195000600,8.27500048828125,0.04784720832407474,-0.01688376865312457,0.005041501298546791
1768216476205000700,8.285000732421874,0.02657075766995549,0.00693633860182017,0.01766951220333576
1768216476215001600,8.295001708984374,-0.018579028263688086,0.0017166677247732877,0.007910334733128547
1768216476225002500,8.30500244140625,-0.03007701222524047,-0.02507266459930688,0.036009471014142036
1768216476235003000,8.3150029296875,-0.03085661829560995,-0.020008111218735573,0.03485971645712852
1768216476245003800,8.325003662109374,0.008136544704437256,-0.0013632511772215365,0.07370178054869174
1768216476255003600,8.335003662109376,0.03066226476728916,0.00043240006789565085,0.08700257614850998
1768216476265004500,8.345004638671876,0.07501257088631391,0.0061318538185209034,0.08544950148761273
1768216476275005700,8.355005615234376,0.09352788626402615,-0.00441109444051981,0.08660685482919216
1768216476285005600,8.365005615234375,0.11063245806097984,-0.0070697922557592385,0.055310968333482737
1768216476295006700,8.3750068359375,0.12099778473079204,-0.04538271790668368,0.02509820089936256
1768216476305006800,8.3850068359375,0.07513093656897545,-0.03667184391301125,-0.028937925192713737
1768216476315007700,8.3950078125,0.044857671119272705,-0.02852101495489478,-0.024195699101686476
1768216476325008600,8.405008544921875,0.015942250019311904,0.02412241466976702,-0.007282558223605156
1768216476335008000,8.415008056640625,0.07042758118361234,0.043176330436207354,0.03847673791050911
1768216476345009000,8.4250087890625,0.03015636107176542,0.02828603715524077,0.020769231784343718
1768216476355008800,8.4350087890625,-0.02948153055012226,0.012523929475806652,-0.024360534274578093
1768216476365009700,8.445009765625,-0.050478725871443746,-0.0008662979731336235,-0.04026186776161193
1768216476375011000,8.455010986328125,-0.04245148676037788,-0.0008974237637594341,-0.038136546170711515
1768216476385011000,8.465010986328124,-0.10059358686655759,-0.004908887894824147,0.03547112635374069
1768216476395011800,8.47501171875,-0.06335691214501857,-0.011372896277159452,0.0931231048554182
1768216476405012000,8.485011962890624,-0.04379880971610546,-0.023009886850602925,0.12548808188736438
1768216476415012900,8.495012939453124,0.03693652273118496,-0.04003843426927924,0.12787585380673408
1768216476425013800,8.505013671875,0.09327332698106765,-0.04153152237124741,0.08233867599070072
1768216476435014000,8.515013916015626,0.09911065483242273,-0.030419724715687334,0.029765023666620254
1768216476445015000,8.52501513671875,0.08827566482424735,-0.012865655585564672,-0.006602174744009971
1768216476455015000,8.535014892578126,0.009467793308198452,0.023079371890239415,-0.06419628557860851
1768216476465015800,8.545015869140625,0.021530571545660494,0.051759486396983266,-0.06134148066937923
1768216476475017000,8.555016845703125,0.06810819832533598,0.06701912444699555,-0.03988075948953628
1768216476485016800,8.565016845703125,0.06312164208441973,0.03319634982217103,-0.04281330581009388
1768216476495017700,8.575017822265625,0.07338321611881256,-0.005785561131499708,-0.0612380202949047
1768216476505019000,8.585018798828125,0.0694254184037447,-0.05382361585255712,-0.053529930135607716
1768216476515019000,8.59501904296875,0.045481940497457976,-0.06780158006157726,-0.0780997232466936
1768216476525020000,8.60502001953125,0.058252574743330475,-0.059019723190926014,-0.014070610928535461
1768216476535019800,8.615019775390625,0.008186813586950302,-0.01260126902833581,0.017140519893169403
1768216476545021000,8.62502099609375,0.00893763195425272,0.006220774210989475,0.04286240564882755
1768216476555021800,8.635021728515625,-0.016752105097472665,0.030215543913096186,0.03999240317046642
1768216476565021700,8.645021728515625,-0.043781858581304546,0.04726334402151405,0.0713251145452261
1768216476575022800,8.65502294921875,-0.07521452319920062,0.044141010749898846,0.08986907149553298
1768216476585023000,8.66502294921875,-0.07312251935601234,0.0448812346579507,0.09048749565482139
1768216476595024000,8.67502392578125,-0.09635667994916439,0.022987675018794833,0.11619710645079612
1768216476605024800,8.685024658203124,-0.11718962461948394,0.04064209925085306,0.09500234273076057
1768216476615025000,8.69502490234375,-0.11021861656308174,0.04269384414888918,0.06479717408120632
1768216476625025800,8.70502587890625,-0.06555792932063341,0.04434672592245042,0.034146015229821206
1768216476635025700,8.715025634765626,-0.032199557337164876,0.0419952674254775,0.006701543465256691
1768216476645026800,8.72502685546875,0.01670008264929056,0.02924984068609774,-0.010748188507556915
1768216476655028000,8.735028076171876,0.018866028511524198,0.02852148987893015,-0.022079145339131353
1768216476665027800,8.74502783203125,-0.0581622661113739,0.006510916263982653,-0.045368835511803624
1768216476675028700,8.75502880859375,-0.08506693191081285,-0.018129494397900996,-0.03855623288750648
1768216476685028900,8.76502880859375,-0.08551146080791949,-0.0026173428915441037,-0.047593525823950766
1768216476695029800,8.77502978515625,-0.09440963753461837,0.014821794622018932,-0.029545243436098097
1768216476705031000,8.785031005859375,-0.07975684280395508,0.011693652664124966,-0.022612813824415205
1768216476715030800,8.79503076171875,-0.09537292960882186,-0.015810951789841054,-0.025330840611457822
1768216476725032000,8.805031982421875,-0.13068155887722968,0.0021066168904304503,-0.048041854113340374
1768216476735031800,8.81503173828125,-0.14380290625691414,0.001130611465126276,-0.04812485622167587
1768216476745032700,8.82503271484375,-0.14385317513942716,-0.013994367354549467,-0.06551788957118988
1768216476755033900,8.835033935546875,-0.12792553816735744,-0.028619214632362125,-0.04928513217270374
1768216476765034000,8.845033935546875,-0.11271364824920892,-0.005190846641361713,-0.007637947532534599
1768216476775035000,8.855034912109375,-0.10415800134986639,0.0067529083263129,0.024833412483334538
1768216476785035000,8.865034912109374,-0.08902706771343946,0.023967589434236287,0.034379823985695834
1768216476795036000,8.875035888671874,-0.039997956128418444,-0.010164579933322966,0.011955810731649398
1768216476805036800,8.885036865234374,-0.04126461506336927,-0.025640454549901187,0.021000702452659607
1768216476815036700,8.89503662109375,-0.028096505932509896,-0.01171710660494864,0.03939093014597893
1768216476825038000,8.9050380859375,-0.03247136001586914,-0.014390892391465604,0.018326514807343482
1768216476835038000,8.915037841796876,-0.0385205770522356,0.0032014629224315283,0.015464695635437965
1768216476845038800,8.925038818359376,-0.08348609246015548,-0.016788199324160813,0.00810322695672512
1768216476855039700,8.935039794921876,-0.09579553893506526,-0.043114699909463525,0.006615034225583076
1768216476865040000,8.945039794921875,-0.09245324276983738,-0.017921806463971734,-0.039973113948106764
1768216476875040800,8.955040771484375,-0.095264500798285,-0.018645371498167515,-0.04079728981256485
1768216476885040600,8.96504052734375,0.0031049802780151363,-0.0072781012441962955,-0.016238018095493315
1768216476895042000,8.9750419921875,0.07277648239731788,-0.02428955139759928,-0.004895955348014831
1768216476905043000,8.98504296875,0.12773381498754025,-0.04946355747953057,0.027896891707181928
1768216476915042800,8.995042724609375,0.12217004338055848,-0.07733757976777851,0.0491997919768095
1768216476925043700,9.005043701171875,0.08527882109582424,-0.05296736434940248,0.06722177087962627
1768216476935044900,9.015044921875,0.025472879430651664,-0.030658063516207038,0.08284136481583118
1768216476945044700,9.025044677734375,-0.005532207424938679,-0.00835044318344444,0.07833470104634761
1768216476955046000,9.0350458984375,0.02172463281303644,-0.004013108098879456,0.030226795959472655
1768216476965046000,9.0450458984375,-0.00441109444051981,-0.0021219240574166178,0.005201075774431229
1768216476975047000,9.055046875,-0.01079933417290449,0.04100706010572612,-0.026727263405919074
1768216476985047800,9.0650478515625,0.012333996394276618,0.056429414436779915,-0.001132218900322914
1768216476995047700,9.075047607421874,0.026969839990139004,0.06222589882109314,0.0227916775226593
1768216477005048800,9.085048828125,-0.0385793215021491,0.06251205881871283,0.015018120911717414
1768216477015048700,9.095048583984376,-0.06640723962634801,0.06475950895193965,0.037564883762598034
1768216477025049900,9.1050498046875,-0.09006108693629503,0.039445436812192196,-0.003398410266637802
1768216477035050800,9.11505078125,-0.1180412730127573,0.02386310614645481,-0.030433716708421706
1768216477045051000,9.12505078125,-0.12242957109957933,0.024695282654277978,-0.031603929531574246
1768216477055051800,9.1350517578125,-0.13686667725294827,0.026318974865972993,-0.04069558300375938
1768216477065052000,9.145052001953125,-0.13670330338478087,0.057449405134283,-0.026347324177622793
1768216477075052800,9.155052734375,-0.09696984341144561,0.0662417103337124,-0.0028945523977279663
1768216477085054000,9.165053955078125,0.00007248071432113647,0.06344276379756629,0.009264087429642676
1768216477095053800,9.1750537109375,0.11032470728605985,0.03559994036518037,0.01814180589020252
1768216477105055000,9.185054931640625,0.09705313778072595,0.009061806323193013,0.011076689809560775
1768216477115054800,9.195054931640625,0.06801672064960003,-0.03963215502332896,0.028467969593405723
1768216477125055700,9.2050556640625,0.03402297337204218,-0.019600480265915394,0.03255903829932213
1768216477135056600,9.215056640625,0.020577216343581676,-0.004680705162137746,0.020484569624066352
1768216477145057000,9.22505712890625,0.019890403123199937,-0.016464118468947707,0.020482231536507606
1768216477155058000,9.235057861328125,0.007874678897857666,-0.015362038978561757,-0.003845569512248039
1768216477165057800,9.245057861328124,-0.018381167604029178,0.02196205829810351,-0.012074468675255775
1768216477175059000,9.255058837890624,-0.015117781893908977,0.014410327744297683,-0.019952070182561874
1768216477185059800,9.265059814453124,-0.0005573416218161583,-0.00842902484498918,0.0023836802661418915
1768216477195059700,9.275059814453124,-0.009710369892418384,0.011282112721167505,0.015975567767024038
1768216477205060900,9.285060791015624,0.0050844636574387545,0.00031509383115917443,0.0009030863195657729
1768216477215061000,9.29506103515625,0.02045505126863718,-0.03388261505328118,0.031203532037138937
1768216477225062000,9.305061767578126,0.020907471211254594,-0.03718494453430175,0.04131868333816528
1768216477235062800,9.315062744140626,0.014923136104643344,-0.036143216929025945,0.022715689677000044
1768216477245063000,9.32506298828125,0.003260463100671768,-0.027986031295359134,0.010306289958953857
1768216477255063800,9.335063720703126,0.01591536201238632,-0.03235255594179034,0.0223211374014616
1768216477265063700,9.345063720703125,-0.03328355318158865,-0.009550028231553733,0.04107026153504848
1768216477275064800,9.35506494140625,-0.05351005639135837,-0.025071568620763717,0.04484510389864445
1768216477285066000,9.36506591796875,-0.054665363906323906,-0.021736286718212067,0.023349895927309988
1768216477295065900,9.37506591796875,-0.04778320317715406,-0.019476817353628575,0.021352000108361243
1768216477305066800,9.385066650390625,-0.05497486824691295,0.005671981221809983,-0.014177578434348106
1768216477315067000,9.39506689453125,-0.02104892550855875,0.0029570597073063252,-0.004046645042300224
1768216477325067800,9.40506787109375,-0.008015840934216976,0.0023661811420693994,-0.010698504146933555
1768216477335069400,9.4150693359375,-0.004695464339852333,-0.020108137527108192,-0.020261282262206075
1768216477345069300,9.4250693359375,-0.04417056563794613,0.009994264867715538,-0.03872574423551559
1768216477355070500,9.435070556640625,-0.06270838510841131,0.006841572990454733,-0.00343465062379837
1768216477365070600,9.445070556640625,-0.0641118221655488,0.007404869429022074,-0.0037847792357206343
1768216477375071500,9.455071533203125,-0.03330868762284517,-0.005825308619998395,0.013564999493956564
1768216477385072400,9.465072265625,-0.01764087063074112,0.00742814070675522,0.052639118775725365
1768216477395072500,9.475072509765624,-0.0046212300598621366,0.007368081082589924,0.02581248664855957
1768216477405073400,9.485073486328124,0.02568126148432493,0.012720657624304294,0.01973345899581909
1768216477415073300,9.4950732421875,0.025871815620362757,0.02032389916963875,0.019905892953276633
1768216477425074700,9.50507470703125,0.009270224909484386,0.011981420096941291,0.028415947145223615
1768216477435075600,9.51507568359375,-0.009772621473670005,0.007550780705735087,0.007139350360631943
1768216477445075500,9.525075439453126,-0.010747603985667228,0.0024588278615847226,0.0012619827598333358
1768216477455076400,9.535076416015626,0.01780336771607399,0.010826989364810287,0.014354688566923141
1768216477465076500,9.545076416015625,0.018219255040585993,0.02579122466482222,0.007650222492218017
1768216477475077400,9.555077392578125,0.014208850355446338,0.019197963879629968,0.01737491317093372
1768216477485078500,9.56507861328125,-0.010159574964642525,0.008176365258172153,0.03453647585213184
1768216477495078700,9.57507861328125,-0.007693184851109981,0.002196962055005133,0.026978607818484306
1768216477505079600,9.58507958984375,-0.014697510655224323,0.011174852954410015,0.025102292552590368
1768216477515080400,9.59508056640625,-0.015453589719533919,0.01118135576043278,0.024902970588207243
1768216477525080300,9.605080322265625,0.001148293252289295,0.004456760213151574,0.024067688807845114
1768216477535081500,9.61508154296875,0.02963876693844795,-0.010901954297162592,0.019582652348279952
1768216477545081300,9.625081298828125,0.036249124988913535,0.002296221178397536,0.04090601088404655
1768216477555082500,9.63508251953125,0.038116087904572486,-0.011445303926244377,0.025967384949326513
1768216477565082600,9.64508251953125,0.01221066227555275,-0.00670329703092575,0.03170096016526222
1768216477575083500,9.65508349609375,-0.017353870382905007,0.011271226000972091,0.03578267652094364
1768216477585084400,9.66508447265625,-0.009188391844928263,-0.016059044799394906,0.031495208460092544
1768216477595084500,9.67508447265625,-0.03412468018084764,-0.011861264315992593,0.014891864183545113
1768216477605085400,9.68508544921875,-0.02238046637326479,-0.012786781663075088,0.039190439137816425
1768216477615085300,9.695085205078126,-0.04343406805694103,0.030479419013671575,-0.005075403568148612
1768216477625086500,9.70508642578125,-0.01174567511230707,0.04746873040050268,-0.03399228597283363
1768216477635087600,9.715087646484376,-0.011261398726701736,0.027279782722145318,-0.011693360403180121
1768216477645087500,9.72508740234375,-0.010064882418513298,0.0050915509853512045,-0.03072247052192688
1768216477655088400,9.73508837890625,-0.012538286794722079,-0.010100976645201444,-0.028012627041339874
1768216477665089300,9.74508935546875,-0.01632452733516693,-0.010652290385030209,0.014509002345800399
1768216477675089400,9.75508935546875,-0.00021948796957731246,-0.011975209551863372,0.01385667591691017
1768216477685090600,9.765090576171875,-0.0029816461592912674,-0.028170594082027673,0.02862228337228298
1768216477695090400,9.77509033203125,0.031793022362887856,-0.026565971896983682,0.0568681346476078
1768216477705091600,9.785091552734375,0.04450578894168138,-0.046017070287466044,0.054666825211048126
1768216477715092500,9.795092529296875,0.04414893832802772,-0.043827962745353576,0.05195113651156425
1768216477725092400,9.80509228515625,0.025737667846679687,-0.029047705710120497,0.04177694849967956
1768216477735093500,9.815093505859375,-0.041868426175415516,0.0007584171518683433,0.06626432402431964
1768216477745093600,9.82509375,-0.009334230056405067,-0.01639284333102405,-0.03539689207375049
1768216477755094500,9.835094482421875,-0.022978724527359006,-0.004623568147420883,0.001575286492705345
1768216477765095400,9.845095458984375,-0.057470484454929825,0.032698008378595114,0.028773090019822117
1768216477775095600,9.855095458984374,-0.058662616848945616,0.03525423220004886,0.01649871485829353
1768216477785096400,9.865096435546874,-0.05030863000154495,0.05045326263662427,0.016020575952529908
1768216477795096300,9.875096435546874,-0.04733019871264696,0.11614661837257444,0.0012649053692817688
1768216477805097500,9.885097412109374,0.002500584644079208,0.06331511882990598,-0.007372574594616889
1768216477815098600,9.8950986328125,0.07898907330185174,0.0020627777487039565,0.023422376641631125
1768216477825098500,9.905098388671876,0.055983460767567154,0.007367058169282972,0.02317863101363182
1768216477835099400,9.915099365234376,-0.006648644234240055,-0.012267872355505824,0.02083060658276081
1768216477845099500,9.925099609375,-0.10808920331895351,0.017532551418058574,0.00003156418204307556
1768216477855100400,9.935100341796876,-0.1341077339336276,0.048365606174990534,-0.02131692879498005
1768216477865101600,9.9451015625,-0.07247545362412929,0.028873079795576632,-0.003980009546875953
1768216477875101400,9.955101318359375,-0.07463409296274184,0.032604411811009044,-0.004397942698001861
1768216477885102600,9.9651025390625,0.03270195390135049,0.07479542100429534,0.04546761971116066
1768216477895102500,9.9751025390625,0.03683277009576559,0.07365469000395387,0.07654723310768603
1768216477905103400,9.985103271484375,0.06756546975076198,0.09103274498004466,0.10136544802188872
1768216477915104500,9.9951044921875,0.03821107271164655,0.0645830198738724,0.04657704225778579
1768216477925104400,10.0051044921875,0.026831308302283287,0.005791187154687941,0.017094927185773847
1768216477935105500,10.01510546875,0.02718056013137102,-0.026686894862912595,-0.007312368839979171
1768216477945105700,10.025105712890625,-0.02535802087932825,-0.0615572788445279,0.023742694637179373
1768216477955106600,10.0351064453125,-0.06938128700107335,-0.09097831137906759,0.016522680255770684
1768216477965107500,10.045107421875,-0.10174655629396438,-0.036218254926614464,0.02469429627358913
1768216477975107300,10.055107421875,-0.09989625225216149,-0.03515373096764087,0.025250761112570762
1768216477985108500,10.0651083984375,-0.032359716334939004,-0.03487242980822921,0.02566168000102043
1768216477995108400,10.0751083984375,-0.019987433756887912,-0.025516572441905735,-0.020737083080410956
1768216478005109500,10.085109619140624,-0.010136486349999904,-0.036903168450854715,-0.044266427227854725
1768216478015110400,10.0951103515625,0.04703530741930008,-0.05690200038459152,-0.01368073482811451
1768216478025110500,10.105110595703126,-0.010881167237460613,-0.05415423604641109,-0.05033317992091178
1768216478035111400,10.115111328125,0.0041787469893693925,-0.07222874885406344,-0.015445406413078308
1768216478045111300,10.125111328125,0.017972879064083097,-0.019499357978999612,0.06323182446062564
1768216478055112400,10.135112548828126,0.041294425679743285,0.004881744159571827,0.09095102151334285
1768216478065113600,10.145113525390625,0.05845978775322437,-0.01023556281030178,-0.00908405468761921
1768216478075113500,10.155113525390625,0.06496931577771901,0.030357144340872763,0.00601882189810276
1768216478085114400,10.1651142578125,0.020208675292134284,-0.01939761463757604,0.011278349861502647
1768216478095114500,10.175114501953125,0.028195290131866932,-0.03642466421891004,0.02576923202872276
1768216478105115400,10.185115478515625,0.01509936945438385,-0.0426892410390079,0.014226678273081779
1768216478115116500,10.195116455078125,-0.05097498495578766,-0.015180544931814073,-0.010340776750445365
1768216478125116700,10.20511669921875,-0.10260288086235522,0.01858027037270367,-0.01138882449865341
1768216478135117600,10.21511767578125,-0.13263356972783802,0.04364577457886189,0.017963526713848113
1768216478145117400,10.225117431640625,-0.13313187463879583,0.050754401007667184,0.012542670708894728
1768216478155118600,10.23511865234375,-0.15745850664377212,-0.005027874631993472,-0.047268531653285026
1768216478165119500,10.245119384765625,-0.09138181414604186,-0.041894546997360886,-0.11913257538080214
1768216478175119400,10.255119384765624,-0.07778232786059379,-0.012265680398419498,-0.07543547247350216
1768216478185120500,10.26512060546875,-0.04276858988553285,0.018982604095898567,-0.033356910678744314
1768216478195120600,10.27512060546875,0.0001575286492705345,0.012520897268503904,0.0043944355666637415
1768216478205121500,10.28512158203125,0.011064999371767043,0.031823307903297245,0.0529816486030817
1768216478215122400,10.295122314453126,-0.03016775924861431,-0.0036541385933756827,0.06315116043984889
1768216478225122600,10.30512255859375,-0.038085985027253626,-0.0026701325247064233,0.04506546865105629
1768216478235123500,10.31512353515625,-0.038977380909025666,-0.008140855553373695,0.011148586001992224
1768216478245123300,10.325123291015625,-0.018611176967620848,-0.0007408814951777458,-0.010136194089055061
1768216478255124500,10.33512451171875,0.012325813087821005,0.0011026274796575306,-0.026049802535772323
1768216478265125600,10.345125732421875,0.01243891807347536,0.01096270804107189,0.016051555612683295
1768216478275125500,10.35512548828125,-0.0073483169361948965,0.007897621382027865,0.030301030239462852
1768216478285126400,10.36512646484375,-0.02759147901982069,-0.005482596129551529,0.05891396126151085
1768216478295126500,10.37512646484375,-0.0740916566491127,-0.015304427039809524,0.03858136732876301
1768216478305127400,10.38512744140625,-0.08565817580223083,0.0034198549134656785,0.010600304469466209
1768216478315128600,10.395128662109375,-0.07521043154597282,0.024752565799467264,-0.008769581910967826
1768216478325128400,10.40512841796875,-0.05208645332902669,0.0010206117520108818,-0.03364975614547729
1768216478335129000,10.415129150390625,-0.01629442445784807,-0.027378457323648034,-0.03677461016774177
1768216478345129000,10.42512890625,0.03761018420904875,-0.04150905481111258,-0.003930909708142281
1768216478355129900,10.4351298828125,0.07494505860805512,-0.058482145715504884,0.037758360508084295
1768216478365131000,10.445131103515624,0.07439297768324613,-0.060067478678189214,0.03752981244921684
1768216478375131100,10.455131103515624,0.10740648175179958,-0.07527885713968425,0.02675882758796215
1768216478385132000,10.465132080078124,0.0396729619577527,0.00774232122246176,0.0433265160292387
1768216478395132200,10.475132080078126,0.008145312532782554,0.006866817029565572,0.04338263013064861
1768216478405133000,10.485133056640626,-0.057610477447509766,0.02080664118528366,0.02414367665350437
1768216478415134000,10.495134033203126,-0.07155366260409354,0.032688400300033386,-0.02066927854120731
1768216478425133800,10.5051337890625,-0.08422697395533323,0.012464417840912937,-0.015062544575333594
1768216478435135200,10.51513525390625,-0.09126286394149065,0.057732569457218046,0.009039046502113342
1768216478445135000,10.525135009765625,-0.07370178054869174,0.08084927768316119,0.018694179075956344
1768216478455136000,10.535135986328125,-0.0761959354519844,0.081969331221655,0.01805295856297016
1768216478465137000,10.545136962890625,-0.0407908600717783,0.03430613769497722,-0.000083002108335495
1768216478475137000,10.555136962890625,0.006578501607477664,0.022321831521205603,0.026713234880566594
1768216478485138000,10.565137939453125,0.048266602779924866,0.006052468439377844,0.02907061166167259
1768216478495138000,10.575137939453125,0.08544424079060554,-0.02188643577862531,0.03790332193672657
1768216478505139200,10.58513916015625,0.09997750079482794,-0.05037946674805134,0.06702654056847095
1768216478515140000,10.59514013671875,0.04865209496617317,-0.080104779458791,0.043486675027012825
1768216478525140000,10.605139892578125,-0.002177344039082527,-0.06626819648183882,0.028123686200380325
1768216478535140900,10.615140869140625,-0.026460136902332305,0.0008211436571553349,0.022225275811553
1768216478545141000,10.62514111328125,-0.0732484838232398,0.009909034269675612,-0.008704115459322929
1768216478555142000,10.635141845703124,-0.0802308900564909,0.03452091295681894,-0.020462357792258263
1768216478565143000,10.64514306640625,-0.045210722340643404,0.0817566017864272,0.011506897920370102
1768216478575143200,10.65514306640625,-0.08277326801568269,0.07164660158455372,0.057153381329774856
1768216478585144000,10.66514404296875,-0.10063567244261502,0.04397343563064932,0.05862286936044692
1768216478595144000,10.67514404296875,-0.08962415682375431,0.03769917766675353,0.0443675495147705
1768216478605145000,10.68514501953125,-0.03513210365772247,0.029636355785652994,0.015101707541942596
1768216478615146000,10.69514599609375,0.034847441497445106,0.04354165661726147,-0.08711188174188136
1768216478625145900,10.705145751953125,-0.0028425299495458602,0.08099928061310202,-0.13687982899546622
1768216478635147000,10.71514697265625,0.03251256880909204,0.06322101080566644,-0.09925415495634078
1768216478645147100,10.725147216796875,0.14034633606225252,0.017005203075706958,-0.0005459434449672699
1768216478655148000,10.73514794921875,0.03825111246109009,0.01075578729212284,0.08397124562859534
1768216478665149000,10.74514892578125,-0.0555456538721919,-0.031677031300403176,0.10812076750099658
1768216478675149000,10.755149169921875,-0.09004851971566677,-0.08451463179029524,0.06359364351034164
1768216478685150000,10.76514990234375,-0.07026888349056243,-0.034870822373032566,0.07520750893652439
1768216478695150000,10.775150146484375,-0.014416355626285075,-0.12823197376802564,0.015834697991609574
1768216478705151000,10.78515087890625,0.08318535594791174,-0.23377828767113387,0.010854571491479873
1768216478715152100,10.795152099609375,0.15405337437540292,-0.2190825671141967,-0.06718026982545852
1768216478725152000,10.805152099609375,0.15293372269570826,-0.04399330937489867,0.03273147225677967
1768216478735153000,10.81515283203125,0.1147428159892559,0.06842022341657429,0.09643266779482364
1768216478745153000,10.825153076171874,0.12278028423339128,0.07622329838294535,0.1398433549761772
1768216478755154200,10.835154296875,-0.013046236316859722,0.16025957207176833,0.23555238467156886
1768216478765155000,10.845155029296874,-0.003762567403912544,0.1821104616129771,0.128607090690732
1768216478775155000,10.855155029296874,-0.02516454413384199,0.2246858670139685,0.06027706630825996
1768216478785156000,10.865156005859374,-0.10146481674313544,0.16258600572533904,0.04004384109675884
1768216478795156000,10.875156005859376,-0.11281389375329016,0.00519460950102657,-0.04918868606090546
1768216478805156900,10.885156982421876,-0.048643911659717556,-0.09983926136791706,-0.060473465663194656
1768216478815158000,10.895157958984376,0.006418050348758697,-0.15053429687116293,-0.1423877787619829
1768216478825158100,10.905158203125,-0.05561433519423008,-0.08304357285704463,-0.12926993851363658
1768216478835159000,10.915158935546875,-0.04201835604012012,-0.01039440663382411,-0.10104103837311268
1768216478845159200,10.9251591796875,-0.08766016327440738,0.055555481146462256,-0.02920037552118301
1768216478855160000,10.93516015625,-0.09168342744112014,0.11229907609894871,0.0668196198195219
1768216478865161000,10.945160888671875,-0.14472002110183238,0.10057795090600848,0.03073065382838249
1768216478875160800,10.955160888671875,-0.14577888250499962,0.10085936166327446,0.03044190001487732
1768216478885162200,10.965162353515625,-0.01837356881946325,0.060099152458086606,-0.060655836492776866
1768216478895162000,10.975162109375,0.045837622067332266,0.013026764431409536,-0.06791209123134613
1768216478905163000,10.9851630859375,0.04284662355780601,-0.004134469456225634,-0.07986205674409866
1768216478915164000,10.995163818359375,0.03933423152267933,-0.0032864377921447154,-0.08081775003373623
1768216478925164000,11.0051640625,-0.01782148789465427,-0.09152158794291317,-0.06804770030975342
1768216478935165000,11.0151650390625,0.03941811041384935,-0.17460432376656682,-0.20318565407395361
1768216478945164800,11.025164794921874,-0.23057605756372213,-0.052317229877598584,0.15798925251960755
1768216478955166200,11.035166259765624,-0.11918518235087394,-0.0538808624651283,0.07518880423605441
1768216478965167000,11.0451669921875,-0.037787586602568625,-0.101058135638386,0.0681926617383957
1768216478975167000,11.0551669921875,-0.0447989266693592,-0.0849424652809277,0.02429974399805069
1768216478985168000,11.06516796875,-0.04150193095058202,-0.03802592540308833,0.006163783326745033
1768216478995168000,11.07516796875,0.00616261428296566,-0.007224946284852922,0.006510989329218864
1768216479005169000,11.0851689453125,0.055634208938479424,0.03487520628720522,-0.03571721006929874
1768216479015170000,11.095170166015626,0.07444324656575918,0.05112067703679204,-0.05076280350983142
1768216479025170200,11.105170166015625,0.10414631091207266,0.05390347615573555,0.010895488023757933
1768216479035171000,11.115171142578125,0.050612581384181975,0.009127053579129279,-0.017366145342588422
1768216479045171000,11.1251708984375,-0.0027960604593157768,-0.008030673177167772,-0.0031938276052474973
1768216479055171800,11.135171875,-0.010111644169688225,-0.01676123825199902,0.020945757395029067
1768216479065173000,11.145173095703125,-0.07092559383362532,-0.05010602010153234,0.03526069847345352
1768216479075172900,11.1551728515625,-0.056901160134375094,-0.044709458287619054,0.08707330329716205
1768216479085174000,11.165174072265625,-0.02137304289638996,-0.03195135472975671,0.09865852715075016
1768216479095174100,11.175174072265625,-0.09125964907109736,-0.011333879441022873,0.05908113452196121
1768216479105175000,11.185175048828125,-0.10001724828332662,0.01546202875431627,0.014350012391805647
1768216479115176000,11.195176025390625,-0.1247293724745512,0.05358801699839532,-0.004547580301761627
1768216479125176000,11.205176025390625,-0.11153291403204202,0.07079780273549258,0.02240004785656929
1768216479135177200,11.21517724609375,-0.05308043280243873,0.04381605311185121,-0.014276947155594825
1768216479145177000,11.225177001953124,-0.04539689256250858,0.0559898539757356,-0.004378653475642204
1768216479155178000,11.235177978515624,-0.024323417134582994,0.04284161858912557,0.0013449848681688307
1768216479165179100,11.24517919921875,0.007559621599316596,0.01984868287332356,-0.06688976244628429
1768216479175179000,11.255178955078126,0.030533669951558113,0.025506160645745693,-0.0346340910077095
1768216479185180000,11.265179931640626,0.07625731025040149,-0.0037364465819671746,0.028628128591179847
1768216479195180000,11.275179931640626,0.05900222406685352,-0.009564714344032109,0.04215571868419647
1768216479205181200,11.28518115234375,0.04797697218358517,0.039312750343233345,0.040000586476922034
1768216479215182000,11.29518212890625,0.09175123198032378,0.02908478631749749,0.007981646403670311
1768216479225182000,11.305181884765625,0.17289339166283607,0.008375796820409596,0.07016016241908073
1768216479235183000,11.31518310546875,0.1031312886506319,0.0018978329779580235,0.1087953057616949
1768216479245183000,11.325182861328125,0.02552665544450283,-0.026919680705480276,0.08776771530210971
1768216479255184000,11.335183837890625,-0.033925942738354205,-0.04375931795593351,0.0557528668820858
1768216479265185000,11.34518505859375,-0.0722919137507677,-0.018732209531404077,0.030906594917178152
1768216479275185200,11.35518505859375,-0.04163432515859604,-0.014951704612001775,0.027950083199143407
1768216479285186000,11.36518603515625,-0.05420563744008541,-0.0007063947036862373,-0.04409223970472812
1768216479295186000,11.37518603515625,0.012474573908746242,-0.032421054600737985,-0.05205985758304596
1768216479305187000,11.38518701171875,0.009255319601297378,-0.043364838745631275,-0.04616203171610832
1768216479315187000,11.39518701171875,-0.02674275323599577,-0.033237412484921514,-0.00532908606827259
1768216479325187800,11.405187744140624,-0.021318682360649106,-0.029936653906479475,-0.004161211332678795
1768216479335189200,11.415189208984375,-0.03488601994216442,-0.007906206547282635,0.019540566772222517
1768216479345189400,11.425189453125,-0.02262918043732643,-0.003177278329245746,0.035414427730441095
1768216479355190300,11.435190185546874,-0.004044891476631164,-0.008308540270477532,0.05646539906561374
1768216479365191400,11.44519140625,-0.006218143862485885,-0.007884506172128021,0.05591477944552898
1768216479375191600,11.455191650390624,0.022619243565201758,-0.025815372725389897,0.050931730335950845
1768216479385192400,11.4651923828125,-0.003413607835769653,-0.028852804192528128,0.021574118426442145
1768216479395192300,11.4751923828125,-0.005436638095974922,-0.02816032841634005,0.02107552125453949
1768216479405193200,11.485193115234376,-0.07923486475646495,0.011053491597063838,0.03013677958846092
1768216479415194400,11.4951943359375,-0.13002572531700132,0.045186245486512774,0.02725859380364418
1768216479425194200,11.5051943359375,-0.16378186444640158,0.08898673570305109,0.028529344391822812
1768216479435195400,11.5151953125,-0.1710971558958292,0.0763903985781595,0.03861468507647514
1768216479445195500,11.525195556640625,-0.13877777157127857,0.06566244914103299,-0.015288170024752615
1768216479455196400,11.535196533203125,-0.09720394442826509,0.05973097673282027,-0.057764206704497334
1768216479465196300,11.5451962890625,0.021230419555306433,0.007321575059741735,-0.0992144074678421
1768216479475197400,11.555197509765625,0.09325169967114925,-0.006381700393743812,-0.06005027181506157
1768216479485198300,11.5651982421875,0.1081438561156392,0.0004066811047494411,0.0014607202023267745
1768216479495198200,11.5751982421875,0.09207184223681687,-0.041078262178413566,0.025970892080664634
1768216479505199400,11.585199462890625,0.07622399250268935,-0.048312049356848,0.02355681667625904
1768216479515199500,11.595199462890625,0.07654913280382752,-0.023923348433710634,0.0318850845605135
1768216479525200400,11.605200439453125,0.028413024535775183,0.004638144662044942,0.04860182608366012
1768216479535201300,11.615201171875,0.008669044145941733,0.008040829245001078,0.05794599301218986
1768216479545201400,11.625201416015624,0.025707272708415982,0.01394625389650464,0.04438917682468891
1768216479555202300,11.635202392578124,-0.014647826294600963,0.040585839018970726,0.04174012362062931
1768216479565202200,11.6452021484375,-0.037458500778675075,0.053265689708851274,0.012915595674514769
1768216479575203300,11.655203369140626,-0.027992753297090528,0.026803214718960224,-0.0037228199154138563
1768216479585204500,11.66520458984375,-0.006154284846037626,0.021459406005591153,-0.02295242104232311
1768216479595204400,11.675204345703126,0.022317045748233795,-0.00048467824440449474,-0.04438216256201267
1768216479605205200,11.685205322265626,0.02981879968047142,-0.04684022323861718,-0.02867547486424446
1768216479615205400,11.695205322265625,-0.0047463177442550655,-0.007385507141426205,0.00815992558002472
1768216479625206500,11.70520654296875,-0.051151510566473005,-0.003841843185201287,0.013835633128881454
1768216479635207400,11.71520751953125,-0.03088847473859787,-0.033182284764200445,0.024134324303269384
1768216479645207300,11.725207275390625,-0.017867080602049827,-0.029790633031912147,0.0008978256225585938
1768216479655208400,11.73520849609375,-0.04471154064685106,0.003767974231392145,0.0006517419070005417
1768216479665208300,11.745208251953125,-0.07225786535069346,0.0034480215620249508,-0.0005377601385116576
1768216479675209200,11.755209228515625,-0.042997430205345154,0.012279416662827133,0.0007084405303001403
1768216479685210400,11.76521044921875,-0.0702956253670156,0.02510704179294407,0.01563128437399864
1768216479695210500,11.77521044921875,-0.09599544542133807,0.02442925212923437,0.04959843590557575
1768216479705211400,11.78521142578125,-0.11192542048096656,0.028990349499695003,0.029019758257269858
1768216479715211300,11.795211181640624,-0.110285252058506,0.03222407072391361,0.012442717465758323
1768216479725212400,11.80521240234375,-0.027467852640151978,0.015056918552145361,0.057955929884314535
1768216479735213300,11.81521337890625,-0.02832593077421188,-0.015823519010469318,0.01642389605641365
1768216479745213200,11.825213134765624,-0.009506956274807453,-0.01930073013436049,0.015342530560493468
1768216479755214300,11.83521435546875,-0.019478022930026054,-0.011627565157972275,0.012791677033901213
1768216479765214500,11.84521435546875,-0.035975568744540214,-0.00838284761570394,0.02007248169183731
1768216479775215400,11.85521533203125,-0.05167290409207344,-0.017175445076078176,-0.008398995032906531
1768216479785216300,11.86521630859375,-0.05802782607674598,-0.0000033610008656978604,-0.020437807872891425
1768216479795216400,11.87521630859375,-0.017446224841475486,-0.007675137737765908,0.007031213811039924
1768216479805217300,11.88521728515625,-0.04422083452045917,0.003292940598167479,0.03504091824293137
1768216479815217200,11.895217041015625,-0.06767068369090556,0.03654774260930717,0.0551905568242073
1768216479825218600,11.905218505859375,-0.0609396218702197,0.04371873021721839,0.04775602290928364
1768216479835219500,11.915219482421875,-0.054553427964448925,0.05404259236548096,0.026204700836539266
1768216479845219300,11.92521923828125,0.01910042178928852,-0.0018871654534712433,-0.012545593318343162
1768216479855220200,11.93522021484375,0.01551847164928913,-0.002401836977340281,-0.01341185475885868
1768216479865220400,11.945220458984375,0.0009022095367312431,0.010788301322236656,-0.025693244183063506
1768216479875221200,11.95522119140625,-0.004427753314375877,0.01739171817526221,-0.017509353205561635
1768216479885222400,11.965222412109375,0.004209142127633094,0.01954637545850128,0.00880816035568714
1768216479895222500,11.975222412109375,0.02011602857261896,0.01861585314273834,0.04829670565724373
1768216479905223400,11.985223388671875,0.028554186572134495,-0.0034951486393809315,0.025863340052962303
1768216479915223300,11.995223388671874,0.05551116708070039,-0.009343472808785737,0.034977205356955525
1768216479925224200,12.00522412109375,0.03913023338317871,0.0009894494287669658,0.03119476420879364
1768216479935225300,12.015225341796874,0.02506955932676792,-0.003632693946547806,0.032006665113568304
1768216479945225200,12.02522509765625,0.054685822172462935,-0.004249474138021469,0.03387479707300663
1768216479955226400,12.035226318359374,0.06295213073641061,-0.023607231689244508,-0.004527706557512283
1768216479965226500,12.0452265625,0.0907312412828207,-0.0340508112270385,0.04441255770027637
1768216479975227400,12.055227294921876,0.07439736159741878,-0.05237078669574111,0.03718611357808113
1768216479985228300,12.065228271484376,0.0937543884962797,-0.06995006333235651,0.011959317862987517
1768216479995228400,12.075228515625,0.08571692025214434,-0.054703613557480275,-0.006410451564192772
