time,seconds_elapsed,z,y,x
1768216467978264000,0.05826416015625,-0.004576908424496651,-0.024835841730237007,0.006715160794556141
1768216467988265000,0.068264892578125,-0.005879194475710392,-0.024871794506907463,0.004564391914755106
1768216467998265900,0.078265869140625,-0.009786318056285381,-0.032884445041418076,-0.0034432008396834135
1768216468008266000,0.088265869140625,-0.009494967758655548,-0.03544587641954422,-0.005649629980325699
1768216468018267000,0.098266845703125,-0.0105354655534029,-0.03520166128873825,-0.008068579249083996
1768216468028267000,0.10826708984375,-0.011679559014737606,-0.030403712764382362,-0.007102916948497295
1768216468038268200,0.11826806640625,-0.011626295745372772,-0.025729332119226456,-0.004495149478316307
1768216468048269000,0.12826904296875,-0.01062361616641283,-0.02730991691350937,0.0034285534638911486
1768216468058269000,0.13826904296875,-0.0024791366886347532,-0.042019620537757874,0.009343167766928673
1768216468068270000,0.14827001953125,-0.003099653171375394,-0.04918166249990463,0.010100836865603924
1768216468078270000,0.15827001953125,0.0018945727497339249,-0.05618710443377495,0.004171841777861118
1768216468088270800,0.168270751953125,0.0041057956404984,-0.0521598719060421,-0.00663579860702157
1768216468098271200,0.178271240234375,0.006095442920923233,-0.056714411824941635,-0.01588628813624382
1768216468108272000,0.188272216796875,0.008243282325565815,-0.06931569427251816,-0.02515621855854988
1768216468118273000,0.19827294921875,0.008206264115869999,-0.07621567696332932,-0.03713671490550041
1768216468128273000,0.20827294921875,0.009543970227241516,-0.08076275885105133,-0.03778359666466713
1768216468138274000,0.218274169921875,0.010151171125471592,-0.07241081446409225,-0.035231757909059525
1768216468148274000,0.22827392578125,0.009340505115687847,-0.06634599715471268,-0.02846146933734417
1768216468158275000,0.238275146484375,0.004220843780785799,-0.06578194350004196,-0.02219798043370247
1768216468168275200,0.248275146484375,-0.003993410151451826,-0.06635638326406479,-0.01703677326440811
1768216468178276000,0.258276123046875,-0.007990282028913498,-0.057133592665195465,-0.02178918570280075
1768216468188277000,0.268277099609375,-0.015471900813281536,-0.04343429207801819,-0.022775353863835335
1768216468198277000,0.278277099609375,-0.017303889617323875,-0.025542378425598145,-0.012594355270266533
1768216468208278000,0.288278076171875,-0.015481221489608288,-0.0161811001598835,-0.006661897525191307
1768216468218278000,0.29827783203125,-0.012153069488704205,-0.017833592370152473,-0.003322559641674161
1768216468228279000,0.308279052734375,-0.011580489575862885,-0.02833496779203415,0.0004625910660251975
1768216468238279200,0.318279052734375,-0.008024370297789574,-0.030975492671132088,-0.00010093380114994943
1768216468248280000,0.328280029296875,-0.00615190202370286,-0.028741899877786636,-0.000651675509288907
1768216468258281000,0.338281005859375,-0.0025963156949728727,-0.02972034551203251,0.0016050871927291155
1768216468268281000,0.348281005859375,0.0035273567773401737,-0.02967160940170288,0.003154247999191284
1768216468278282000,0.358281982421875,0.006183859892189503,-0.020200610160827637,0.0014096111990511417
1768216468288281900,0.36828173828125,0.004864530172199011,-0.01931697316467762,-0.0003376888344064355
1768216468298283000,0.378282958984375,0.002073803450912237,-0.018365690484642982,-0.0022804648615419865
1768216468308283100,0.388283203125,-0.001811482128687203,-0.015309713780879974,-0.002907373011112213
1768216468318284000,0.398283935546875,-0.0036450685001909733,-0.012824718840420246,-0.005227252375334501
1768216468328285000,0.408284912109375,-0.0049675945192575455,-0.0052363071590662,-0.004063184838742018
1768216468338284800,0.418284912109375,-0.0094507597386837,0.0024770060554146767,-0.0003888215287588537
1768216468348285700,0.42828564453125,-0.010734936222434044,0.005683451890945435,0.001279116258956492
1768216468358285600,0.43828564453125,-0.008919725194573402,0.0009755159262567759,0.0031526500824838877
1768216468368287000,0.448286865234375,-0.009373261593282223,-0.0013456953456625342,0.004041879437863827
1768216468378287900,0.458287841796875,-0.013137639500200748,-0.0019558256026357412,0.009512278251349926
1768216468388287700,0.468287841796875,-0.013460681773722172,-0.005100752227008343,0.009616142138838768
1768216468398288600,0.47828857421875,-0.013154418207705021,-0.008712531067430973,0.00583844818174839
1768216468408288800,0.488288818359375,-0.014642858877778053,-0.011629758402705193,0.004756139125674963
1768216468418289700,0.49828955078125,-0.01287505216896534,-0.011228952556848526,0.009137039072811604
1768216468428289500,0.50828955078125,-0.01269848458468914,-0.012122709304094315,0.009668872691690922
1768216468438291000,0.518291015625,-0.009928264655172825,-0.006225937977433205,0.009529323317110538
1768216468448291800,0.528291748046875,-0.009428123012185097,-0.00956953689455986,0.012206865474581718
1768216468458291700,0.538291748046875,-0.007125287316739559,-0.013165337033569813,0.009091499261558056
1768216468468292600,0.548292724609375,-0.0093303844332695,-0.020384101197123528,0.006572681479156017
1768216468478292700,0.558292724609375,-0.00762969022616744,-0.024118386209011078,0.008389489725232124
1768216468488294000,0.5682939453125,-0.006581469904631376,-0.020177707076072693,0.009219064377248287
1768216468498294800,0.578294677734375,-0.007140733767300844,-0.01883147843182087,0.00905581284314394
1768216468508295000,0.588294921875,-0.004072772338986397,-0.015210910700261593,0.004930576309561729
1768216468518295800,0.5982958984375,-0.005153216887265444,-0.012164254672825336,0.0023702133912593126
1768216468528295700,0.608295654296875,-0.004235757514834404,-0.014466824010014534,-0.0012724583502858877
1768216468538296600,0.618296630859375,-0.009281382896006107,-0.025777269154787064,0.003153981640934944
1768216468548296700,0.628296630859375,-0.015046593733131886,-0.04237036034464836,0.015114503912627697
1768216468558297900,0.6382978515625,-0.01179221086204052,-0.03092862106859684,0.003234142903238535
1768216468568298800,0.648298828125,-0.011650530621409416,-0.026143720373511314,-0.0023126890882849693
1768216468578299000,0.658298828125,-0.011992746964097023,-0.03261573240160942,0.003138801548629999
1768216468588299800,0.6682998046875,-0.011242800392210484,-0.033187780529260635,0.010329336859285831
1768216468598299600,0.678299560546875,-0.006957774516195059,-0.03477449342608452,0.014689730480313301
1768216468608300800,0.68830078125,-0.006674680393189192,-0.02810034342110157,0.011199924163520336
1768216468618300700,0.69830078125,-0.007063501980155706,-0.015248994342982769,0.0095698032528162
1768216468628301800,0.7083017578125,-0.010544253513216972,-0.0011757856700569391,0.013173592276871204
1768216468638302700,0.718302734375,-0.012071576900780201,0.0029350698459893465,0.013483851216733456
1768216468648302800,0.728302734375,-0.013730992563068867,-0.0011835087789222598,0.00848696194589138
1768216468658303700,0.7383037109375,-0.01637045107781887,-0.0007526093395426869,0.0062395199202001095
1768216468668303600,0.7483037109375,-0.019270634278655052,-0.00019148127466905862,0.006958307232707739
1768216468678304800,0.7583046875,-0.01919526606798172,0.0033872744534164667,0.008115983568131924
1768216468688306000,0.768305908203125,-0.01842081919312477,0.006141782272607088,0.00917379092425108
1768216468698305800,0.778305908203125,-0.01546284556388855,0.0027569043450057507,0.005348426289856434
1768216468708306700,0.788306640625,-0.016288692131638527,0.0015773903578519821,0.008841694332659245
1768216468718306800,0.798306884765625,-0.01830257475376129,0.0012948289513587952,0.013997840695083141
1768216468728307700,0.8083076171875,-0.015894010663032532,0.00424161646515131,0.009014001116156578
1768216468738307800,0.818307861328125,-0.015280152671039104,0.00026604978484101593,0.0008444883860647678
1768216468748308700,0.828308837890625,-0.015442606061697006,-0.006637396290898323,-0.0037891454994678497
1768216468758310000,0.838309814453125,-0.013715279288589954,-0.0076299565844237804,0.00014993596414569765
1768216468768309800,0.848309814453125,-0.01468493603169918,-0.006874683778733015,0.003689276985824108
1768216468778310700,0.858310546875,-0.011966114863753319,-0.006418484263122082,0.000770452490542084
1768216468788310800,0.868310791015625,-0.009915481321513653,-0.006479470990598202,-0.009669139049947262
1768216468798311700,0.878311767578125,-0.007445399183779955,-0.011025220155715942,-0.015136875212192535
1768216468808312600,0.8883125,-0.008288822136819363,-0.0070429956540465355,-0.012627111747860909
1768216468818313000,0.89831298828125,-0.006560963578522205,-0.0015723302494734526,-0.007469367701560259
1768216468828313900,0.90831396484375,-0.00743181724101305,-0.007122091483324766,-0.0051718587055802345
1768216468838313700,0.918313720703125,-0.010091516189277172,-0.0038775624707341194,-0.004554271697998047
1768216468848315000,0.92831494140625,-0.010912834666669369,0.00011930961773032323,0.00070493872044608
1768216468858314800,0.938314697265625,-0.011461978778243065,0.003946272190660238,0.002017610939219594
1768216468868315600,0.948315673828125,-0.009380452334880829,0.006462160497903824,0.0021462414879351854
1768216468878316800,0.95831689453125,-0.006322077941149473,0.0065620290115475655,0.0032320122700184584
1768216468888317000,0.96831689453125,-0.005631786771118641,0.009140235371887684,0.004210457671433687
1768216468898317800,0.97831787109375,-0.0019952403381466866,0.006918093655258417,-0.0006101301987655461
1768216468908317700,0.988317626953125,-0.001440237509086728,0.00037230990710668266,0.00011158645065734163
1768216468918318800,0.99831884765625,-0.002025600289925933,-0.00018455706594977528,-0.003201385959982872
1768216468928319700,1.00831982421875,-0.0024136228021234274,0.0007760451408103108,-0.008883506059646606
1768216468938319600,1.018319580078125,-0.0054573495872318745,0.0004892227007076144,-0.01113254576921463
1768216468948320800,1.02832080078125,-0.004464789759367704,0.0030075078830122948,-0.010395648889243603
1768216468958321000,1.03832080078125,-0.005560413934290409,0.0064962487667799,-0.006106362212449312
1768216468968321800,1.04832177734375,-0.0057585532777011395,0.009736516512930393,-0.007562045939266682
1768216468978321700,1.05832177734375,-0.004693022463470697,0.009530387818813324,-0.014458035118877888
1768216468988322800,1.06832275390625,-0.00535561703145504,0.008739695884287357,-0.01648363471031189
1768216468998323700,1.07832373046875,-0.006731139495968819,0.009856092743575573,-0.010477142408490181
1768216469008323600,1.088323486328125,-0.008412659168243408,0.009327189065515995,-0.006938866339623928
1768216469018324700,1.09832470703125,-0.01001907791942358,0.003084739437326789,-0.008450210094451904
1768216469028324900,1.108324951171875,-0.012991165742278099,-0.005371329374611378,-0.011039068922400475
1768216469038325800,1.11832568359375,-0.013896108604967594,-0.01251286268234253,-0.010831874795258045
1768216469048326700,1.12832666015625,-0.014665761962532997,-0.014794392511248589,-0.004910602699965239
1768216469058326800,1.138326904296875,-0.021934060379862785,-0.01757127046585083,0.001100684516131878
1768216469068327700,1.14832763671875,-0.029650837182998657,-0.018267154693603516,0.015308382920920849
1768216469078327600,1.15832763671875,-0.031563520431518555,0.009349293075501919,0.017848238348960876
1768216469088329000,1.168328857421875,-0.0359761118888855,0.01477681566029787,0.026938406750559807
1768216469098328800,1.178328857421875,-0.03081383928656578,0.018252506852149963,0.011774634011089802
1768216469108329700,1.188329833984375,-0.021409152075648308,0.014141119085252285,-0.0022413162514567375
1768216469118330600,1.19833056640625,-0.018206434324383736,0.009412144310772419,-0.006749515421688557
1768216469128330800,1.208330810546875,-0.012800217606127262,0.006280532572418451,-0.010982077568769455
1768216469138331600,1.21833154296875,-0.007989749312400818,0.0021076255943626165,-0.016399214044213295
1768216469148331800,1.228331787109375,-0.005063468124717474,-0.0026439863722771406,-0.017415741458535194
1768216469158333000,1.2383330078125,-0.0008820389630272985,-0.00018429075134918094,-0.014810371212661266
1768216469168333800,1.248333740234375,-0.000010386328540334944,0.002680205274373293,-0.013038836419582367
1768216469178333700,1.258333740234375,0.0023190807551145554,0.004378236830234528,-0.016036223620176315
1768216469188334600,1.26833447265625,0.000922519015148282,0.006293049547821283,-0.01594274677336216
1768216469198334700,1.278334716796875,-0.0008476841612718999,0.01119140163064003,-0.010177004151046276
1768216469208336000,1.2883359375,-0.0021670141723006964,0.0065654912032186985,-0.009237706661224365
1768216469218335700,1.298335693359375,-0.006416620220988989,0.004540423396974802,-0.007611314300447702
1768216469228337000,1.3083369140625,-0.006337524391710758,-0.0018125474452972412,-0.011401524767279625
1768216469238337800,1.318337890625,-0.006390254944562912,-0.005533515941351652,-0.013086507096886635
1768216469248337700,1.328337646484375,-0.009718673303723335,-0.012819391675293446,-0.012071843259036541
1768216469258338800,1.3383388671875,-0.0086616650223732,-0.017719341441988945,-0.009732788428664207
1768216469268338700,1.348338623046875,-0.0054632085375487804,-0.014695589430630207,-0.002766491612419486
1768216469278339800,1.35833984375,-0.004774515051394701,-0.01565459370613098,0.00005219795639277436
1768216469288340000,1.368340087890625,-0.003002181416377425,-0.012761068530380726,0.0029814087320119143
1768216469298340900,1.3783408203125,-0.005337241105735302,-0.009038768708705902,0.003022687742486596
1768216469308341800,1.388341796875,-0.007112504448741674,-0.005205947440117598,0.0005656554130837321
1768216469318341600,1.398341552734375,-0.006862965878099203,-0.007040865253657103,-0.0054360441863536835
1768216469328342800,1.4083427734375,-0.0062941149808466434,-0.007852330803871155,-0.009799900464713573
1768216469338342700,1.4183427734375,-0.004293015692383051,-0.005862682592123747,-0.009278452955186367
1768216469348343600,1.428343505859375,-0.0017190704820677638,0.0026072347536683083,-0.010986871086061
1768216469358344400,1.438344482421875,-0.0003938815207220614,0.010735735297203064,-0.011116833426058292
1768216469368344600,1.448344482421875,0.000496945867780596,0.01173335500061512,-0.012136558070778847
1768216469378345500,1.458345458984375,0.0007182545377872884,0.009134909138083458,-0.016159795224666595
1768216469388345600,1.468345703125,-0.0025803367607295513,0.012101936154067516,-0.020501812919974327
1768216469398346800,1.4783466796875,-0.004176635295152664,0.011031345464289188,-0.016990967094898224
1768216469408347600,1.48834765625,-0.0036309538409113884,0.0004394215648062527,-0.018622687086462975
1768216469418347500,1.498347412109375,-0.005089567042887211,-0.010713363997638226,-0.017290573567152023
1768216469428348400,1.508348388671875,-0.0046701193787157536,-0.01684582605957985,-0.015325427055358887
1768216469438348500,1.5183486328125,-0.003206978552043438,-0.014254303649067879,-0.014129134826362133
1768216469448349700,1.528349609375,-0.0030807447619736195,-0.003876763628795743,-0.012075571343302727
1768216469458349800,1.538349853515625,-0.002660498023033142,0.004419249482452869,-0.013527526520192623
1768216469468350700,1.548350830078125,-0.006649114191532135,0.00875114742666483,-0.01564926654100418
1768216469478351600,1.5583515625,-0.008098939433693886,0.014536332339048386,-0.013612481765449047
1768216469488351500,1.5683515625,-0.007209975738078356,0.009495234116911888,-0.008930644020438194
1768216469498352600,1.5783525390625,-0.005841909907758236,0.0025001754984259605,-0.00122558674775064
1768216469508352500,1.5883525390625,-0.004815527703613043,-0.002261023735627532,0.002433596644550562
1768216469518353700,1.598353759765625,-0.0020546286832541227,0.0020604876335710287,0.000027963191314483993
1768216469528354600,1.6083544921875,-0.0013403689954429865,0.0023821976501494646,0.003993410151451826
1768216469538354700,1.618354736328125,0.0018106831703335047,0.0008141283178701997,0.008753543719649315
1768216469548355600,1.62835546875,0.0026551715563982725,0.0016466324450448155,0.013251889497041702
1768216469558355500,1.63835546875,0.005757754202932119,-0.0007621967233717442,0.011242534033954144
1768216469568356600,1.648356689453125,0.006167881190776825,0.0011973571963608265,0.005498628597706556
1768216469578356500,1.6583564453125,0.005151086021214724,0.008117581717669964,0.004781439434736967
1768216469588357600,1.668357666015625,0.004592621233314276,0.010129866190254688,-0.000025832661776803434
1768216469598358500,1.678358642578125,0.004429901950061321,0.020594224333763123,0.0001246359315700829
1768216469608358700,1.688358642578125,0.0031465247739106417,0.02232527919113636,-0.00013795174891129136
1768216469618359600,1.698359619140625,0.0007374293054454029,0.027477430179715157,0.00520647969096899
1768216469628359700,1.708359619140625,0.0037382792215794325,0.03446316719055176,0.0036309538409113884
1768216469638360600,1.718360595703125,0.00523577444255352,0.034753188490867615,0.0008458199445158243
1768216469648361700,1.72836181640625,0.0005547364708036184,0.02942606620490551,-0.002103364560753107
1768216469658361600,1.738361572265625,-0.0016383767360821366,0.013953899033367634,0.0027893949300050735
1768216469668362500,1.748362548828125,-0.003850131994113326,0.006150570698082447,0.006090383045375347
1768216469678362600,1.758362548828125,-0.001463406952098012,-0.0062584285624325275,0.0013646037550643086
1768216469688363500,1.768363525390625,-0.005599296186119318,0.007864846847951412,0.009723467752337456
1768216469698364400,1.778364501953125,-0.004608866758644581,0.00884808599948883,0.005376921966671944
1768216469708364500,1.788364501953125,-0.005004079546779394,0.010606039315462112,-0.0003382214636076242
1768216469718365700,1.79836572265625,-0.0014626081101596355,0.00887738075107336,-0.003216033335775137
1768216469728365600,1.808365478515625,-0.0024458470288664103,0.01182203833013773,-0.004715925548225641
1768216469738366700,1.81836669921875,-0.0011257182341068983,0.007700263988226652,-0.0025150892324745655
1768216469748366600,1.82836669921875,-0.0009129316313192248,-0.0046480149030685425,-0.004235225263983011
1768216469758367500,1.838367431640625,0.0013406352372840047,-0.013921674340963364,-0.0006183860241435468
1768216469768368600,1.84836865234375,0.0015707324491813779,-0.014466824010014534,0.0010543455136939883
1768216469778368800,1.85836865234375,0.0002865561400540173,-0.013107546605169773,0.002441585995256901
1768216469788369700,1.86836962890625,-0.00004021373388241045,-0.0070584421046078205,0.008347677998244762
1768216469798369500,1.87836962890625,-0.00016777914424892515,-0.008755940943956375,0.008807872422039509
1768216469808370700,1.88837060546875,0.00011877698125317693,-0.009908290579915047,0.007862983271479607
1768216469818371600,1.89837158203125,-0.003318032482638955,-0.011186608113348484,0.0027920580469071865
1768216469828371500,1.908371337890625,-0.002492984989657998,-0.013951501809060574,0.0042733084410429
1768216469838372600,1.91837255859375,-0.0018722022650763392,-0.010045976378023624,0.003454119898378849
1768216469848372700,1.928372802734375,0.0012831110507249832,-0.011624963954091072,0.005889314226806164
1768216469858373600,1.93837353515625,0.002950782421976328,-0.014638330787420273,0.0026636936236172915
1768216469868373800,1.948373779296875,0.003081543603911996,-0.012980246916413307,0.0017688715597614646
1768216469878374700,1.958374755859375,0.000526773277670145,-0.0068270135670900345,0.004850947763770819
1768216469888375600,1.96837548828125,0.0005776396137662232,-0.010754643008112907,0.008371646516025066
1768216469898375400,1.97837548828125,-0.0019648801535367966,-0.011137605644762516,0.008432100526988506
1768216469908376600,1.98837646484375,-0.0012905678013339639,-0.014391189441084862,0.005805158521980047
1768216469918376700,1.998376708984375,-0.002083390951156616,-0.013832991011440754,0.005093828309327364
1768216469928377600,2.008377685546875,-0.005034972447901964,-0.016175774857401848,0.0016495619202032685
1768216469938378500,2.01837841796875,-0.0057159424759447575,-0.012165852822363377,0.007605455350130796
1768216469948378600,2.028378662109375,-0.006515423767268658,-0.008627310395240784,0.006511695217341185
1768216469958379500,2.038379638671875,-0.005120726302266121,-0.009693906642496586,0.0009097357979044318
1768216469968379400,2.04837939453125,-0.006464024540036917,-0.012911804020404816,-0.0009262474486604333
1768216469978380800,2.058380859375,-0.006037386134266853,-0.013775200583040714,-0.003096190979704261
1768216469988381700,2.068381591796875,-0.004739627707749605,-0.01629561558365822,-0.001555818715132773
1768216469998381600,2.078381591796875,-0.003917776048183441,-0.014737932942807674,-0.0020642161834985018
1768216470008382500,2.088382568359375,-0.003918575122952461,-0.01366414688527584,-0.002114816103130579
1768216470018382600,2.098382568359375,-0.0012452941155061126,-0.009308014065027237,0.0023430490400642157
1768216470028383500,2.108383544921875,0.000544350128620863,-0.0068152956664562225,0.0029089709278196096
1768216470038383400,2.11838330078125,-0.00025486451340839267,-0.006043511442840099,0.002704440150409937
1768216470048384800,2.128384765625,-0.0005850964807905257,-0.007538077421486378,0.0001853560097515583
1768216470058385700,2.1383857421875,-0.0037851508241146803,-0.010940265841782093,0.0010271812789142132
1768216470068385500,2.148385498046875,-0.0046365633606910706,-0.016744891181588173,0.0024311996530741453
1768216470078386400,2.158386474609375,-0.004715392831712961,-0.016829313710331917,0.0025350630749017
1768216470088386600,2.168386474609375,-0.004512459971010685,-0.01452807616442442,0.002766491612419486
1768216470098387700,2.1783876953125,-0.005554554983973503,-0.014042582362890244,-0.004238154739141464
1768216470108388600,2.188388671875,-0.0011853729374706745,-0.012497149407863617,-0.012834838591516018
1768216470118388700,2.198388671875,-0.0010498181218281388,-0.011771970428526402,-0.010429205372929573
1768216470128389600,2.2083896484375,-0.0005480785621330142,-0.01182363647967577,-0.004733236040920019
1768216470138389500,2.218389404296875,0.00006604639202123508,-0.010174873284995556,-0.004746019374579191
1768216470148390700,2.228390625,-0.0001661812566453591,-0.009159675799310207,-0.005819805897772312
1768216470158391800,2.238391845703125,-0.00472498033195734,-0.0027353328187018633,-0.006383596919476986
1768216470168391700,2.2483916015625,-0.006326871924102306,0.002273540711030364,-0.007800132501870394
1768216470178392600,2.258392578125,-0.005957491230219603,0.002275404753163457,-0.0065260762348771095
1768216470188392700,2.268392822265625,-0.0049675945192575455,0.003156378399580717,-0.0013917679898440838
1768216470198393600,2.2783935546875,-0.002983805723488331,0.009344499558210373,0.004191549029201269
1768216470208394500,2.28839453125,0.000251402409048751,0.015871373936533928,0.006429936271160841
1768216470218394600,2.29839453125,-0.0012005530297756195,0.0202229805290699,0.0052046156488358974
1768216470228395800,2.308395751953125,-0.00034434671397320926,0.017408285290002823,0.0015044197207316756
1768216470238395600,2.318395751953125,0.0012029499048367143,0.007903995923697948,-0.003049585735425353
1768216470248396500,2.328396484375,0.0007001450285315514,0.003949468024075031,-0.005727660376578569
1768216470258396700,2.338396728515625,-0.001987250754609704,0.011048123240470886,-0.005357214715331793
1768216470268397600,2.3483974609375,-0.005561745725572109,0.01926264353096485,-0.0054943677969276905
1768216470278398500,2.3583984375,-0.007162571884691715,0.025234516710042953,-0.004189152270555496
1768216470288398600,2.368398681640625,-0.0037678403314203024,0.02538578398525715,0.0006239786162041128
1768216470298399700,2.378399658203125,-0.006539391819387674,0.026008697226643562,-0.0013696637470275164
1768216470308399600,2.388399658203125,-0.0036578518338501453,0.02750352956354618,-0.0021968416403979063
1768216470318400500,2.398400390625,-0.0006442186422646046,0.03509939834475517,0.001437041675671935
1768216470328401700,2.408401611328125,-0.0007395598222501576,0.03388366475701332,-0.002954244613647461
1768216470338402600,2.418402587890625,-0.00019494339358061552,0.015487613156437874,-0.010009490884840488
1768216470348403500,2.428403564453125,0.0016058861510828137,0.00321816373616457,-0.013437511399388313
1768216470358403300,2.4384033203125,0.0016386429779231548,-0.0009973538108170033,-0.01305295154452324
1768216470368404500,2.448404541015625,0.000844754686113447,-0.00242081331089139,-0.012042813934385777
1768216470378405400,2.4584052734375,-0.0012780509423464537,-0.0022418489679694176,-0.009970342740416527
1768216470388405200,2.4684052734375,-0.005176119972020388,-0.0020530307665467262,-0.007012103218585253
1768216470398406400,2.478406494140625,-0.0033571808598935604,0.001490304945036769,-0.008163654245436192
1768216470408406500,2.488406494140625,-0.003457582090049982,0.004539890680462122,-0.010690727271139622
1768216470418407400,2.498407470703125,-0.003734018187969923,0.012117915786802769,-0.009483249858021736
1768216470428407600,2.508407470703125,-0.001148088718764484,0.013745639473199844,-0.008677111007273197
1768216470438408400,2.518408447265625,0.00010998855577781796,0.008684834465384483,-0.007870440371334553
1768216470448409300,2.528409423828125,0.000024234765078290366,0.009771670214831829,-0.003090864745900035
1768216470458409200,2.5384091796875,-0.0008633967954665422,0.008392153307795525,-0.005831790156662464
1768216470468410400,2.548410400390625,-0.001368598430417478,0.0034416031558066607,-0.00669358903542161
1768216470478410500,2.558410400390625,-0.0006562029011547565,0.002502039773389697,-0.0033814155030995607
1768216470488411400,2.568411376953125,-0.0019571571610867977,0.0014173343079164624,-0.0021228056866675615
1768216470498412300,2.578412353515625,-0.003051982494071126,0.0075934710912406445,-0.0024410535115748644
1768216470508412400,2.588412353515625,-0.003640541108325124,0.007889348082244396,0.001336107961833477
1768216470518413300,2.598413330078125,-0.001823732745833695,0.00887844618409872,0.0005123922019265592
1768216470528413200,2.6084130859375,-0.0002210423699580133,0.010302704758942127,-0.008827047422528267
1768216470538414600,2.61841455078125,-0.0032168321777135134,0.005596366710960865,-0.012143747881054878
1768216470548415500,2.62841552734375,-0.0009773800848051906,-0.00011132013605674729,-0.011774367652833462
1768216470558415400,2.638415283203125,0.00012516857532318681,-0.003748399205505848,-0.013770140707492828
1768216470568416300,2.648416259765625,-0.0006082659820094705,-0.008017180487513542,-0.014627411961555481
1768216470578416400,2.65841650390625,-0.001073786523193121,-0.006137521006166935,-0.009256881661713123
1768216470588417300,2.668417236328125,-0.0034645062405616045,0.00003488740912871435,-0.002302569104358554
1768216470598418400,2.67841845703125,-0.0022237394005060196,0.0011659319279715419,0.004637096077203751
1768216470608418600,2.68841845703125,-0.0015672702575102448,-0.0017028251895681024,0.0001358212175546214
1768216470618419500,2.69841943359375,-0.0031638352666050196,0.003492469433695078,-0.0036674391012638807
1768216470628419300,2.70841943359375,-0.004101268015801907,0.00765871861949563,-0.005614742636680603
1768216470638420200,2.718420166015625,-0.0024197481106966734,0.005254683084785938,-0.006674680393189192
1768216470648420400,2.72842041015625,-0.0028096348978579044,0.005239769350737333,-0.00660384027287364
1768216470658421200,2.738421142578125,-0.0017294568242505193,0.011551993899047375,-0.007186539936810732
1768216470668422400,2.74842236328125,-0.0015536881983280182,0.01410649809986353,-0.005020325072109699
1768216470678422500,2.758422607421875,-0.003947869874536991,0.008862467482686043,-0.0062158177606761456
1768216470688423400,2.76842333984375,-0.006136988289654255,0.0080296965315938,-0.0020248014479875565
1768216470698423300,2.77842333984375,-0.004877579398453236,0.01104332972317934,0.00008708536915946752
1768216470708424400,2.788424560546875,-0.005486644338816404,0.01071123406291008,-0.005151352379471064
1768216470718425600,2.798425537109375,-0.001401355373673141,0.008479504846036434,-0.0049188584089279175
1768216470728425500,2.808425537109375,-0.0013377057621255517,0.010488593950867653,-0.0036506610922515392
1768216470738426400,2.81842626953125,0.0006833671359345317,0.003507116809487343,-0.0005163869354873896
1768216470748426500,2.828426513671875,-0.0017595505341887474,0.003005110891535878,0.0014026869321241975
1768216470758427400,2.838427490234375,-0.004279433749616146,0.005650429055094719,0.0001536643976578489
1768216470768428300,2.84842822265625,-0.003822967642918229,0.012279302813112736,-0.006073338910937309
1768216470778428400,2.858428466796875,-0.0070525831542909145,0.015795474871993065,-0.01221884973347187
1768216470788429600,2.8684296875,-0.006111422087997198,0.018331868574023247,-0.01589028351008892
1768216470798429400,2.878429443359375,-0.005029912106692791,0.01955239661037922,-0.01443912647664547
1768216470808430300,2.888430419921875,-0.006409962195903063,0.02425314113497734,-0.010633469559252262
1768216470818430500,2.898430419921875,-0.0051534827798604965,0.024092553183436394,-0.00953757856041193
1768216470828431400,2.908431396484375,-0.006435262504965067,0.020719924941658974,-0.006983873434364796
1768216470838432300,2.918432373046875,-0.003518834710121155,0.015544338151812553,-0.005708485841751099
1768216470848432400,2.928432373046875,-0.005400091875344515,0.009980728849768639,-0.010772752575576305
1768216470858433500,2.93843359375,-0.007174023427069187,0.00717508839443326,-0.01763012632727623
1768216470868433400,2.948433349609375,-0.01019830908626318,0.009664611890912056,-0.017115337774157524
1768216470878434300,2.958434326171875,-0.008499212563037872,0.01188142690807581,-0.014195714145898819
1768216470888435500,2.968435546875,-0.0070736221969127655,0.018071146681904793,-0.011891280300915241
1768216470898435300,2.978435302734375,-0.008785235695540905,0.0267192292958498,-0.016093749552965164
1768216470908436200,2.988436279296875,-0.005682386923581362,0.03182104602456093,-0.015915583819150925
1768216470918436400,2.998436279296875,-0.0046299053356051445,0.029518743976950645,-0.01733531430363655
1768216470928437500,3.0084375,-0.0012652678415179253,0.027425765991210938,-0.019350795075297356
1768216470938438400,3.0184384765625,-0.0012551478575915098,0.024396685883402824,-0.019449330866336823
1768216470948438500,3.0284384765625,-0.0012010856298729777,0.020907944068312645,-0.018441857770085335
1768216470958439400,3.038439453125,-0.0028008464723825455,0.02009008824825287,-0.018077537417411804
1768216470968439300,3.048439208984375,-0.004911135416477919,0.018376078456640244,-0.018762502819299698
1768216470978440200,3.058440185546875,-0.0023318638559430838,0.01483513880521059,-0.024947427213191986
1768216470988441300,3.06844140625,-0.0010508833220228553,0.009523198008537292,-0.030855383723974228
1768216470998441500,3.07844140625,0.0018540926976129413,0.008783371187746525,-0.03307246416807175
1768216471008442400,3.0884423828125,-0.00046605319948866963,0.009326922707259655,-0.03477129712700844
1768216471018442500,3.0984423828125,-0.0006865629111416638,0.007653392385691404,-0.033492978662252426
1768216471028443400,3.108443359375,-0.00014887070574332029,0.006624879315495491,-0.03272465616464615
1768216471038444300,3.1184443359375,-0.0015893745003268123,0.0101389205083251,-0.027883829548954964
1768216471048444400,3.1284443359375,-0.0008407599525526166,0.009979130700230598,-0.028172781690955162
1768216471058445600,3.138445556640625,0.0001536643976578489,0.005241633392870426,-0.031315844506025314
1768216471068445400,3.148445556640625,0.0016069513512775302,0.005646434146910906,-0.03405863419175148
1768216471078446300,3.1584462890625,0.002796585438773036,0.010342119261622429,-0.032113995403051376
1768216471088446500,3.168446533203125,0.0028503811918199062,0.016234630718827248,-0.02731497772037983
1768216471098447400,3.178447265625,0.001910285442136228,0.016944628208875656,-0.02876054123044014
1768216471108448500,3.188448486328125,0.003597398055717349,0.011385812424123287,-0.028865469619631767
1768216471118448400,3.198448486328125,0.003123621689155698,0.010904046706855297,-0.03586026281118393
1768216471128449500,3.208449462890625,-0.000021837920940015465,0.010364756919443607,-0.033195238560438156
1768216471138449400,3.218449462890625,0.0006466155173256993,0.012779710814356804,-0.031867917627096176
1768216471148450300,3.2284501953125,-0.00019121496006846428,0.02371864579617977,-0.023928502574563026
1768216471158451200,3.238451171875,-0.002776345470920205,0.02701750211417675,-0.020324978977441788
1768216471168451300,3.248451416015625,-0.005004079546779394,0.030413832515478134,-0.02346697635948658
1768216471178452500,3.258452392578125,-0.007272027432918549,0.03345729410648346,-0.02700658328831196
1768216471188452600,3.26845263671875,-0.009041432291269302,0.043352533131837845,-0.023624902591109276
1768216471198453500,3.27845361328125,-0.005063201766461134,0.05042668804526329,-0.0215324554592371
1768216471208454400,3.288454345703125,-0.002447977662086487,0.04806153476238251,-0.02070234902203083
1768216471218454300,3.298454345703125,-0.003722300287336111,0.04406173527240753,-0.02678527496755123
1768216471228455400,3.308455322265625,-0.00027324032271280885,0.04241776466369629,-0.028928587213158607
1768216471238455300,3.318455322265625,0.00008229167724493891,0.028251877054572105,-0.030533675104379654
1768216471248456400,3.32845654296875,0.00404587434604764,0.017956363037228584,-0.03682752326130867
1768216471258457300,3.338457275390625,0.007122357841581106,0.015452725812792778,-0.03629116341471672
1768216471268457500,3.34845751953125,0.007734085898846388,0.016711069270968437,-0.03623709827661514
1768216471278458400,3.358458251953125,0.006677609868347645,0.01200925838202238,-0.0319475457072258
1768216471288458200,3.368458251953125,0.0038458709605038166,0.00216514989733696,-0.029559489339590073
1768216471298459400,3.37845947265625,0.0009376989910379052,0.0038362834602594376,-0.027691015973687172
1768216471308460500,3.38846044921875,-0.0028826056513935328,0.005642705596983433,-0.02491040900349617
1768216471318460400,3.39846044921875,-0.0021781993564218283,0.0033510555513203144,-0.02611655555665493
1768216471328461300,3.40846142578125,-0.0025936525780707598,-0.0016429040115326643,-0.02787184529006481
1768216471338461000,3.4184609375,-0.0019744676537811756,-0.0000679106087773107,-0.02695252187550068
1768216471348461800,3.4284619140625,-0.0027385284192860126,0.0007099987124092877,-0.02821406163275242
1768216471358462000,3.4384619140625,-0.002728408435359597,-0.0017265273490920663,-0.029336849227547646
1768216471368462800,3.448462890625,-0.002020007697865367,-0.008055263198912144,-0.0258044321089983
1768216471378464000,3.458464111328125,-0.000586161739192903,-0.013520335778594017,-0.019892482087016106
1768216471388463900,3.4684638671875,-0.0013233247445896268,-0.01979900524020195,-0.01558029092848301
1768216471398465000,3.478465087890625,-0.004889563657343388,-0.026100575923919678,-0.015409848652780056
1768216471408465000,3.48846484375,-0.0010583401890471578,-0.03879879415035248,-0.02177560329437256
1768216471418465800,3.4984658203125,-0.005233644042164087,-0.04319913685321808,-0.02214737981557846
1768216471428466700,3.508466796875,-0.005858954507857561,-0.043120574206113815,-0.024575917050242424
1768216471438466800,3.518466796875,-0.008676312863826752,-0.03543016314506531,-0.019052520394325256
1768216471448468000,3.528468017578125,-0.006913566030561924,-0.028718996793031693,-0.01932256482541561
1768216471458467800,3.5384677734375,-0.006369748618453741,-0.029530195519328117,-0.019099391996860504
1768216471468469000,3.548468994140625,-0.00598545465618372,-0.026377012953162193,-0.014705176465213299
1768216471478470000,3.558469970703125,-0.007186806295067072,-0.03275608271360397,-0.014754711650311947
1768216471488469800,3.5684697265625,-0.008619320578873158,-0.028792500495910645,-0.016056997701525688
1768216471498470700,3.578470703125,-0.007904794998466969,-0.021868281066417694,-0.013502758927643299
1768216471508471000,3.588470947265625,-0.006314088590443134,-0.00646801944822073,-0.0132673354819417
1768216471518472000,3.598471923828125,-0.003061037277802825,0.008083226159214973,-0.014646586962044239
1768216471528472800,3.608472900390625,-0.003144660498946905,0.010271545499563217,-0.012177304364740849
1768216471538473000,3.618472900390625,-0.004582767374813557,0.009997506625950336,-0.00851625669747591
1768216471548473900,3.628473876953125,-0.002183259464800358,0.013941115699708462,-0.004462392535060644
1768216471558473700,3.6384736328125,-0.005471730604767799,0.017190171405673027,-0.0027808728627860546
1768216471568475100,3.64847509765625,-0.01188302505761385,0.01708444394171238,-0.0059508332051336765
1768216471578475000,3.65847509765625,-0.013379188254475594,0.015916649252176285,-0.005349491722881794
1768216471588476000,3.668475830078125,-0.015004515647888184,0.015368836000561714,-0.007168697193264961
1768216471598476800,3.678476806640625,-0.015566176734864712,0.01471423078328371,-0.0034376082476228476
1768216471608477000,3.688476806640625,-0.011985023505985737,0.01200899202376604,-0.0043928842060267925
1768216471618477800,3.698477783203125,-0.01139806304126978,0.005916478578001261,-0.0070547135546803474
1768216471628477700,3.708477783203125,-0.010936803184449673,0.004385693464428186,-0.009701629169285297
1768216471638479000,3.71847900390625,-0.012142948806285858,0.008442486636340618,-0.016344351693987846
1768216471648480000,3.72847998046875,-0.00905847642570734,0.01506896410137415,-0.02081819623708725
1768216471658479900,3.73847998046875,-0.011840147897601128,0.01913880743086338,-0.02774055115878582
1768216471668480800,3.748480712890625,-0.011972506530582905,0.02027065120637417,-0.030472155660390854
1768216471678481000,3.75848095703125,-0.013002350926399231,0.027274763211607933,-0.033010147511959076
1768216471688481800,3.768481689453125,-0.01588229276239872,0.03296513855457306,-0.03809891641139984
1768216471698483000,3.77848291015625,-0.01660880446434021,0.035040806978940964,-0.044321127235889435
1768216471708483000,3.788483154296875,-0.018018947914242744,0.03731541335582733,-0.04583912715315819
1768216471718484000,3.79848388671875,-0.01641838811337948,0.04073091968894005,-0.05048953741788864
1768216471728483800,3.80848388671875,-0.01661412976682186,0.04754381626844406,-0.05428880453109741
1768216471738484700,3.818484619140625,-0.017832260578870773,0.05337667092680931,-0.058820705860853195
1768216471748486000,3.82848583984375,-0.016528910025954247,0.057919491082429886,-0.06482134014368057
1768216471758485800,3.83848583984375,-0.012887036427855492,0.05703825131058693,-0.07278206199407578
1768216471768487000,3.84848681640625,-0.013914483599364758,0.060021258890628815,-0.07896964997053146
1768216471778487000,3.858487060546875,-0.012180233374238014,0.05518735572695732,-0.08417452871799469
1768216471788488000,3.868488037109375,-0.01164280716329813,0.04728921875357628,-0.08838365972042084
1768216471798488800,3.87848876953125,-0.009227586910128593,0.051781173795461655,-0.08832187205553055
1768216471808489000,3.888489013671875,-0.009691509418189526,0.0527321882545948,-0.08866915106773376
1768216471818489900,3.89848974609375,-0.004882373381406069,0.05668911337852478,-0.08786407858133316
1768216471828489700,3.90848974609375,-0.006229932885617018,0.05529255047440529,-0.08925078064203262
1768216471838491000,3.918490966796875,-0.007416104432195425,0.05553782731294632,-0.08683982491493225
1768216471848491000,3.928490966796875,-0.009681922383606434,0.060438308864831924,-0.08281685411930084
1768216471858492000,3.938491943359375,-0.008743690326809883,0.06149585172533989,-0.08654873818159103
1768216471868492800,3.948492919921875,-0.011352256871759892,0.06431720405817032,-0.09135707467794418
1768216471878493000,3.958492919921875,-0.011969044804573059,0.06914125382900238,-0.09149929136037827
1768216471888493800,3.968493896484375,-0.010809504427015781,0.07467556744813919,-0.08778791129589081
1768216471898494000,3.978493896484375,-0.008777512237429619,0.06973034888505936,-0.08653914928436279
1768216471908494800,3.988494873046875,-0.005116465035825968,0.061279602348804474,-0.08989713340997696
1768216471918496000,3.99849609375,-0.006399576086550951,0.05422089248895645,-0.09231661260128021
1768216471928495900,4.008495849609375,-0.00381444557569921,0.049902576953172684,-0.09588072448968887
1768216471938496800,4.018496826171875,-0.006249906495213509,0.051361989229917526,-0.09868316352367401
1768216471948497000,4.028496826171875,-0.004543619230389595,0.056358881294727325,-0.10533760488033295
1768216471958498000,4.038498046875,-0.00159470085054636,0.0581626370549202,-0.10988442599773407
1768216471968499000,4.0484990234375,0.0005118595436215401,0.055859003216028214,-0.11795540153980255
1768216471978498800,4.058498779296875,0.002898318227380514,0.06517127901315689,-0.12942670285701752
1768216471988500000,4.0685,0.002305498579517007,0.06584905087947845,-0.1322384625673294
1768216471998499800,4.078499755859375,0.0008351673022843897,0.06812845170497894,-0.12968289852142334
1768216472008500700,4.088500732421875,0.0049217878840863705,0.06335793435573578,-0.13672375679016113
1768216472018502000,4.098501953125,0.0009116000146605074,0.05891098827123642,-0.1415022760629654
1768216472028502000,4.108501953125,0.0005006743012927473,0.06066254898905754,-0.14301201701164246
1768216472038503000,4.1185029296875,0.00029401297797448933,0.0674368292093277,-0.14351855218410492
1768216472048503000,4.1285029296875,-0.003490072675049305,0.06115097180008888,-0.14245834946632385
1768216472058504000,4.13850390625,0.0043532028794288635,0.07002329081296921,-0.1422748565673828
1768216472068504800,4.1485048828125,0.012651879340410233,0.10639461874961853,-0.140504390001297
1768216472078504700,4.158504638671875,0.02630217745900154,0.14776389300823212,-0.13751737773418427
1768216472088505900,4.168505859375,0.027175961062312126,0.16365763545036316,-0.1268138736486435
1768216472098506000,4.178506103515625,0.0318727120757103,0.17567595839500427,-0.12358053028583527
1768216472108507000,4.1885068359375,0.036125779151916504,0.19920524954795837,-0.13365739583969116
1768216472118507800,4.1985078125,0.03388046845793724,0.21899838745594025,-0.1375994086265564
1768216472128508000,4.2085078125,0.037447240203619,0.23165160417556763,-0.1250457912683487
1768216472138508800,4.2185087890625,0.05066876858472824,0.2554035484790802,-0.10837627202272415
1768216472148508700,4.2285087890625,0.05986759439110756,0.2722488343715668,-0.1018747016787529
1768216472158510000,4.238510009765625,0.07307660579681396,0.2703990042209625,-0.099148690700531
1768216472168510000,4.248510009765625,0.08068685978651047,0.27452877163887024,-0.10223502665758133
1768216472178510800,4.2585107421875,0.07881572097539902,0.2896411418914795,-0.1047636941075325
1768216472188511700,4.26851171875,0.07445558905601501,0.2947043478488922,-0.11092518270015717
1768216472198511900,4.278511962890625,0.06853725016117096,0.30353644490242004,-0.1204097643494606
1768216472208512800,4.2885126953125,0.06875962018966675,0.3094920814037323,-0.12735874950885773
1768216472218513000,4.298512939453125,0.06950318068265915,0.3254276216030121,-0.13617515563964844
1768216472228514000,4.30851416015625,0.06682323664426804,0.3517388701438904,-0.13899676501750946
1768216472238515000,4.318514892578125,0.0669231042265892,0.3740590810775757,-0.13726331293582916
1768216472248514800,4.328514892578125,0.07347075641155243,0.3815785050392151,-0.13285845518112183
1768216472258515700,4.338515625,0.07170294970273972,0.38601428270339966,-0.12717951834201813
1768216472268515800,4.348515869140625,0.06932554394006729,0.39935803413391113,-0.11791837960481644
1768216472278517000,4.35851708984375,0.061046309769153595,0.4195703864097595,-0.11345226317644119
1768216472288518000,4.368517822265625,0.06866881251335144,0.43710994720458984,-0.1291278898715973
1768216472298518000,4.37851806640625,0.08492235094308853,0.43780797719955444,-0.13527952134609222
1768216472308519000,4.388518798828125,0.10510911047458649,0.45311394333839417,-0.1413414180278778
1768216472318518800,4.398518798828125,0.12144094705581665,0.49578657746315,-0.1532478779554367
1768216472328520000,4.40852001953125,0.1419113278388977,0.5388283133506775,-0.15794755518436432
1768216472338521000,4.41852099609375,0.1556876003742218,0.5540802478790283,-0.16070978343486786
1768216472348521000,4.42852099609375,0.16607579588890076,0.5552179217338562,-0.1608426719903946
1768216472358522000,4.438522216796875,0.1664678007364273,0.5728158354759216,-0.1736290454864502
1768216472368522200,4.448522216796875,0.1651167869567871,0.5951363444328308,-0.195962056517601
1768216472378523100,4.458523193359375,0.15963679552078247,0.6352986693382263,-0.20817025005817413
1768216472388523000,4.46852294921875,0.1556692272424698,0.6563816070556641,-0.1991807520389557
1768216472398524200,4.478524169921875,0.1552143543958664,0.6807681322097778,-0.18330751359462738
1768216472408525000,4.488525146484375,0.14733192324638367,0.6943678259849548,-0.15331898629665375
1768216472418525200,4.498525146484375,0.15715207159519196,0.7070357203483582,-0.129707932472229
1768216472428526000,4.508526123046875,0.16770245134830475,0.706682026386261,-0.11110654473304749
1768216472438526200,4.518526123046875,0.18580235540866852,0.7099164724349976,-0.10957522690296173
1768216472448527000,4.528527099609375,0.20784799754619598,0.7131929397583008,-0.1196206733584404
1768216472458528000,4.538528076171875,0.21907296776771545,0.7232620716094971,-0.13341477513313293
1768216472468528000,4.548528076171875,0.23960061371326447,0.7217816114425659,-0.16366589069366455
1768216472478529300,4.558529296875,0.2594664692878723,0.7148025631904602,-0.20257121324539185
1768216472488529200,4.568529052734375,0.2613884508609772,0.7285125255584717,-0.24461480975151062
1768216472498530000,4.578530029296875,0.26487720012664795,0.7058122754096985,-0.2664220929145813
1768216472508531200,4.58853125,0.27772057056427,0.6455678343772888,-0.2758675217628479
1768216472518531000,4.598531005859375,0.2789895534515381,0.6065109372138977,-0.23903201520442963
1768216472528532000,4.608531982421875,0.29147979617118835,0.5662495493888855,-0.21575120091438293
1768216472538532000,4.618531982421875,0.30243417620658875,0.5497989654541016,-0.21390803158283234
1768216472548533200,4.628533203125,0.2960873246192932,0.5687289834022522,-0.23003266751766205
1768216472558534100,4.6385341796875,0.28996631503105164,0.5695894360542297,-0.2527880370616913
1768216472568534000,4.648533935546875,0.2905266284942627,0.5484803915023804,-0.2712181806564331
1768216472578535200,4.65853515625,0.280190646648407,0.5321206450462341,-0.2641083598136902
1768216472588535000,4.66853515625,0.27428296208381653,0.5134372115135193,-0.25291162729263306
1768216472598536000,4.678535888671875,0.28774550557136536,0.4808156192302704,-0.23545566201210022
1768216472608537000,4.688537109375,0.29463961720466614,0.4408804476261139,-0.2028423249721527
1768216472618537200,4.698537109375,0.30139046907424927,0.4189163148403168,-0.1655852347612381
1768216472628538000,4.7085380859375,0.30611172318458557,0.3699394464492798,-0.13418389856815338
1768216472638538200,4.718538330078125,0.3178828954696655,0.29581594467163086,-0.12402394413948059
1768216472648539100,4.7285390625,0.32590994238853455,0.1779865175485611,-0.13173991441726685
1768216472658539000,4.7385390625,0.3313174843788147,0.08463738858699799,-0.1551206111907959
1768216472668540000,4.748539794921875,0.3314623534679413,0.10282304883003235,-0.15813983976840973
1768216472678541000,4.758541015625,0.3113222122192383,0.09171979874372482,-0.1714244782924652
1768216472688541200,4.768541259765625,0.30996397137641907,0.10806388407945633,-0.14322985708713531
1768216472698542000,4.7785419921875,0.3129989206790924,0.08800708502531052,-0.11807577311992645
1768216472708542200,4.788542236328125,0.30927687883377075,0.020293021574616432,-0.13214658200740814
1768216472718543000,4.798543212890625,0.3006839454174042,-0.0872853696346283,-0.1815681904554367
1768216472728544000,4.8085439453125,0.29207074642181396,-0.22037631273269653,-0.2476385533809662
1768216472738543900,4.8185439453125,0.34449639916419983,-0.34097781777381897,-0.2984873652458191
1768216472748545300,4.828545166015625,0.39212143421173096,-0.4035559892654419,-0.3054025173187256
1768216472758545200,4.838545166015625,0.4025498330593109,-0.4140043556690216,-0.2922923266887665
1768216472768546000,4.848546142578125,0.3791494369506836,-0.40127870440483093,-0.2674095928668976
1768216472778547000,4.858546875,0.34800565242767334,-0.3536374270915985,-0.2275862842798233
1768216472788547000,4.868547119140625,0.3142431378364563,-0.299279123544693,-0.2053433060646057
1768216472798548000,4.8785478515625,0.264607697725296,-0.22605231404304504,-0.19103680551052094
1768216472808548000,4.888548095703125,0.21794112026691437,-0.16221900284290314,-0.2145804762840271
1768216472818549200,4.89854931640625,0.1763949990272522,-0.11939404159784317,-0.23304016888141632
1768216472828550100,4.908550048828125,0.18216527998447418,-0.12258610129356384,-0.26114290952682495
1768216472838550000,4.918550048828125,0.17939293384552002,-0.14079760015010834,-0.28371721506118774
1768216472848551000,4.928551025390625,0.1857440322637558,-0.1777830421924591,-0.2946673333644867
1768216472858551000,4.938551025390625,0.20196828246116638,-0.19939379394054413,-0.2990732491016388
1768216472868552200,4.94855224609375,0.2131468951702118,-0.17085616290569305,-0.27543291449546814
1768216472878553000,4.958552978515625,0.21104353666305542,-0.1330360770225525,-0.22960975766181946
1768216472888553200,4.96855322265625,0.22050920128822327,-0.12215147167444229,-0.20680004358291626
1768216472898554000,4.97855419921875,0.2212972342967987,-0.1318078339099884,-0.20378482341766357
1768216472908554000,4.988553955078125,0.232015922665596,-0.132751926779747,-0.2048993557691574
1768216472918555100,4.99855517578125,0.23929700255393982,-0.11715591698884964,-0.2034447342157364
1768216472928555000,5.008554931640625,0.23823493719100952,-0.10736586898565292,-0.20470094680786133
1768216472938556200,5.01855615234375,0.23270781338214874,-0.10531444102525711,-0.19768297672271729
1768216472948557000,5.02855712890625,0.17968454957008362,-0.12074638903141022,-0.18630915880203247
1768216472958557200,5.03855712890625,0.16750536859035492,-0.13879063725471497,-0.18634776771068573
1768216472968558000,5.04855810546875,0.1555778682231903,-0.20270703732967377,-0.20329932868480682
1768216472978558000,5.058557861328125,0.1474781334400177,-0.24215485155582428,-0.2238490730524063
1768216472988559000,5.06855908203125,0.1222396269440651,-0.292076051235199,-0.23346255719661713
1768216472998560300,5.078560302734375,0.09009953588247299,-0.3428862392902374,-0.23000097274780273
1768216473008560000,5.08856005859375,0.04170669987797737,-0.4115166962146759,-0.20822083950042725
1768216473018561000,5.09856103515625,-0.01324176974594593,-0.4814843535423279,-0.17697611451148987
1768216473028561200,5.10856103515625,-0.0656658262014389,-0.5485574007034302,-0.1537781059741974
1768216473038562000,5.11856201171875,-0.11383788287639618,-0.6224622130393982,-0.14412255585193634
1768216473048563000,5.12856298828125,-0.152461975812912,-0.7017586827278137,-0.13950702548027039
1768216473058563000,5.13856298828125,-0.16325657069683075,-0.7653762698173523,-0.12733478844165802
1768216473068564200,5.148564208984375,-0.17802512645721436,-0.8041361570358276,-0.10024803876876831
1768216473078564000,5.158564208984375,-0.18828868865966797,-0.803805410861969,-0.07922664284706116
1768216473088565000,5.16856494140625,-0.18432509899139404,-0.7803741097450256,-0.06423038244247437
1768216473098566100,5.178566162109375,-0.17695294320583344,-0.7438395023345947,-0.05381343141198158
1768216473108566000,5.18856591796875,-0.17180611193180084,-0.696817934513092,-0.043946150690317154
1768216473118567000,5.19856689453125,-0.17736093699932098,-0.668201744556427,-0.047026898711919785
1768216473128567300,5.2085673828125,-0.18464787304401398,-0.6534960269927979,-0.053220342844724655
1768216473138568200,5.218568115234375,-0.19978740811347961,-0.6655897498130798,-0.06463544815778732
1768216473148568000,5.228568115234375,-0.22603818774223328,-0.6998656988143921,-0.08761986345052719
1768216473158569200,5.2385693359375,-0.26092320680618286,-0.7445210218429565,-0.12441036850214005
1768216473168570000,5.248570068359375,-0.30901697278022766,-0.7975176572799683,-0.17851488292217255
1768216473178570000,5.258570068359375,-0.37149685621261597,-0.8436374664306641,-0.24838212132453918
1768216473188571100,5.268571044921875,-0.4300459325313568,-0.8771403431892395,-0.30204614996910095
1768216473198571300,5.2785712890625,-0.46910038590431213,-0.9025165438652039,-0.33329832553863525
1768216473208572200,5.288572265625,-0.5022404789924622,-0.9253240823745728,-0.35229411721229553
1768216473218573000,5.298572998046875,-0.5286962985992432,-0.9363450407981873,-0.3720172345638275
1768216473228573200,5.3085732421875,-0.5202152132987976,-0.9686891436576843,-0.38880980014801025
1768216473238574000,5.318573974609375,-0.5427229404449463,-0.9666635394096375,-0.39087268710136414
1768216473248574000,5.328573974609375,-0.5446771383285522,-0.9390864968299866,-0.3818906247615814
1768216473258575000,5.3385751953125,-0.5179867148399353,-0.9452368021011353,-0.37193387746810913
1768216473268576300,5.348576171875,-0.5208562612533569,-0.9232977032661438,-0.35145390033721924
1768216473278576000,5.358576171875,-0.5215287208557129,-0.9417763352394104,-0.28765869140625
1768216473288577000,5.368576904296875,-0.5023638010025024,-0.967884361743927,-0.22516600787639618
1768216473298577200,5.3785771484375,-0.4843003749847412,-1.0107487440109253,-0.15623034536838531
1768216473308578000,5.388578125,-0.4613276720046997,-1.0198612213134766,-0.10853233933448792
1768216473318579200,5.3985791015625,-0.4254293143749237,-1.0162254571914673,-0.05516232177615166
1768216473328579000,5.4085791015625,-0.3949105739593506,-1.0041054487228394,-0.008038751780986786
1768216473338580200,5.418580322265625,-0.3685593903064728,-0.9907736778259277,0.02340598963201046
1768216473348580000,5.428580078125,-0.36175820231437683,-1.0076144933700562,0.05130419880151749
1768216473358581000,5.4385810546875,-0.37036049365997314,-1.0374886989593506,0.08219926804304123
1768216473368582000,5.448581787109375,-0.3863818049430847,-1.0577958822250366,0.11197846382856369
1768216473378582000,5.45858203125,-0.39447566866874695,-1.0509874820709229,0.12949860095977783
1768216473388583000,5.4685830078125,-0.3943172097206116,-1.0130584239959717,0.12685061991214752
1768216473398583000,5.4785830078125,-0.39186444878578186,-0.9428740739822388,0.11340272426605225
1768216473408584200,5.488584228515625,-0.3832603096961975,-0.8424779772758484,0.10133408010005951
1768216473418585000,5.498585205078125,-0.3677402138710022,-0.7224999070167542,0.08525045216083527
1768216473428585000,5.5085849609375,-0.34678006172180176,-0.6123132109642029,0.06862619519233704
1768216473438586000,5.518586181640625,-0.32775282859802246,-0.5197529196739197,0.03771062567830086
1768216473448586000,5.5285859375,-0.30355215072631836,-0.4461950659751892,0.0021824603900313377
1768216473458587000,5.5385869140625,-0.2683244049549103,-0.39986884593963623,-0.030279608443379402
1768216473468587000,5.5485869140625,-0.24425500631332397,-0.3785283863544464,-0.05385071411728859
1768216473478588200,5.558588134765625,-0.23288971185684204,-0.3690488636493683,-0.060692641884088516
1768216473488589000,5.568589111328125,-0.2181677520275116,-0.3686850965023041,-0.06540776789188385
1768216473498589000,5.5785888671875,-0.2033374011516571,-0.3652048707008362,-0.07654298096895218
1768216473508590000,5.588590087890625,-0.20051419734954834,-0.36117178201675415,-0.08046688139438629
1768216473518590000,5.59858984375,-0.20267029106616974,-0.3690749704837799,-0.07930067926645279
1768216473528590800,5.6085908203125,-0.20692788064479828,-0.37699973583221436,-0.0823579877614975
1768216473538592000,5.618592041015625,-0.21313677728176117,-0.40319886803627014,-0.08518653362989426
1768216473548592000,5.628592041015625,-0.2253015637397766,-0.4370891749858856,-0.08489678055047989
1768216473558593000,5.638593017578125,-0.22780174016952515,-0.4686974287033081,-0.08791547268629074
1768216473568593200,5.64859326171875,-0.22196274995803833,-0.5007137060165405,-0.09361889958381653
1768216473578594000,5.658593994140625,-0.20829647779464722,-0.5187105536460876,-0.08591464161872864
1768216473588595000,5.668594970703125,-0.20554010570049286,-0.5378381609916687,-0.07733873277902603
1768216473598594800,5.6785947265625,-0.210907444357872,-0.5544434785842896,-0.06190331652760506
1768216473608596000,5.688595947265625,-0.22130735218524933,-0.5911093950271606,-0.05185414105653763
1768216473618596000,5.69859619140625,-0.2236136496067047,-0.6219053864479065,-0.05318199470639229
1768216473628597000,5.708596923828125,-0.22815966606140137,-0.6393908858299255,-0.03942517191171646
1768216473638598000,5.718597900390625,-0.23384152352809906,-0.6543245315551758,-0.025612685829401016
1768216473648598000,5.728597900390625,-0.23361940681934357,-0.6377045512199402,-0.018066352233290672
1768216473658599000,5.738598876953125,-0.2273346185684204,-0.6131712794303894,-0.01841762289404869
1768216473668599000,5.74859912109375,-0.21858826279640198,-0.5803033113479614,-0.022875487804412842
1768216473678600200,5.75860009765625,-0.2151397317647934,-0.5344026684761047,-0.020124442875385284
1768216473688601000,5.76860107421875,-0.20958171784877777,-0.5107311606407166,-0.018849054351449013
1768216473698601000,5.77860107421875,-0.2140321284532547,-0.5108046531677246,-0.03888934105634689
1768216473708601900,5.788601806640625,-0.2138124257326126,-0.5068796873092651,-0.05549628287553787
1768216473718602000,5.79860205078125,-0.21186591684818268,-0.4918677508831024,-0.07379725575447083
1768216473728603100,5.80860302734375,-0.1946464478969574,-0.4731406569480896,-0.08017899096012115
1768216473738603000,5.81860302734375,-0.17193740606307983,-0.4296445846557617,-0.08193375170230865
1768216473748604200,5.828604248046875,-0.15583406388759613,-0.36983317136764526,-0.07099694758653641
1768216473758605000,5.83860498046875,-0.14608024060726166,-0.3186272382736206,-0.052922870963811874
1768216473768605000,5.84860498046875,-0.14299337565898895,-0.29224464297294617,-0.03414119407534599
1768216473778605800,5.858605712890625,-0.13721510767936707,-0.26722452044487,-0.029330991208553314
1768216473788606000,5.86860595703125,-0.14313878118991852,-0.2562142014503479,-0.03526025265455246
1768216473798607000,5.878607177734375,-0.15617574751377106,-0.25106337666511536,-0.051845353096723557
1768216473808608000,5.88860791015625,-0.1658739149570465,-0.23603729903697968,-0.06375953555107117
1768216473818608000,5.898608154296875,-0.17479710280895233,-0.2165248543024063,-0.07058735191822052
1768216473828609000,5.908609130859375,-0.17444157600402832,-0.1936861127614975,-0.0701814815402031
1768216473838609000,5.91860888671875,-0.1739443689584732,-0.1725936084985733,-0.0722358450293541
1768216473848610000,5.928610107421875,-0.17766879498958588,-0.16488829255104065,-0.07210881263017654
1768216473858611200,5.938611083984375,-0.18178310990333557,-0.161088228225708,-0.07041184604167938
1768216473868611000,5.948611083984375,-0.18675389885902405,-0.1588253378868103,-0.06599339842796326
1768216473878612000,5.958612060546875,-0.1830425262451172,-0.14200614392757416,-0.06831035017967224
1768216473888612000,5.968612060546875,-0.1739954948425293,-0.11803289502859116,-0.0754777118563652
1768216473898613000,5.978613037109375,-0.15595977008342743,-0.1169857382774353,-0.08493752777576447
1768216473908614000,5.98861376953125,-0.1387709379196167,-0.11925928294658661,-0.0982045978307724
1768216473918614000,5.998614013671875,-0.11457637697458267,-0.12183615565299988,-0.10062887519598007
1768216473928615200,6.008615234375,-0.09488309919834137,-0.1336299628019333,-0.10168614983558655
1768216473938615000,6.018614990234375,-0.08089058846235275,-0.14786376059055328,-0.0972791463136673
1768216473948616000,6.028615966796875,-0.06842752546072006,-0.13965722918510437,-0.08649467676877975
1768216473958617000,6.0386171875,-0.057147443294525146,-0.125374436378479,-0.0823177769780159
1768216473968617000,6.048616943359375,-0.0416952483355999,-0.1101699098944664,-0.08746220171451569
1768216473978617900,6.058617919921875,-0.018322547897696495,-0.09417709708213806,-0.09114402532577515
1768216473988618200,6.0686181640625,0.001321194227784872,-0.0671585276722908,-0.08586511015892029
1768216473998619100,6.078619140625,0.012867328710854053,-0.04092639312148094,-0.07465506345033646
1768216474008619000,6.088618896484375,0.019047195091843605,-0.029916886240243912,-0.06534118950366974
1768216474018620000,6.098619873046875,0.018624285236001015,-0.016213856637477875,-0.05818367749452591
1768216474028621000,6.10862109375,0.018154501914978027,-0.01387187372893095,-0.055629707872867584
1768216474038621000,6.118620849609375,0.021224329248070717,-0.015668442472815514,-0.06006999313831329
1768216474048622000,6.1286220703125,0.02148878015577793,-0.018989402800798416,-0.06664986908435822
1768216474058622200,6.138622314453125,0.020419254899024963,-0.017898572608828545,-0.07292027771472931
1768216474068623000,6.148623046875,0.023242205381393433,-0.015986690297722816,-0.07019346952438354
1768216474078624000,6.1586240234375,0.018881546333432198,-0.0029313412960618734,-0.0583149716258049
1768216474088624000,6.1686240234375,0.02238200418651104,0.006199306342750788,-0.038111697882413864
1768216474098625000,6.178625,0.02965802699327469,0.012473447248339653,-0.02485102042555809
1768216474108625000,6.188625,0.02881673350930214,0.00449914438650012,-0.02708461508154869
1768216474118626000,6.1986259765625,0.02485421672463417,-0.009135441854596138,-0.04870229214429855
1768216474128627000,6.208626953125,0.02526354417204857,-0.029283054172992706,-0.06795907765626907
1768216474138627000,6.218626953125,0.028491029515862465,-0.038473889231681824,-0.07491552084684372
1768216474148628000,6.2286279296875,0.03466290608048439,-0.0350852832198143,-0.06948879361152649
1768216474158628000,6.238628173828125,0.0380331352353096,-0.03453853726387024,-0.055938899517059326
1768216474168629000,6.24862890625,0.039852075278759,-0.028738969936966896,-0.0501348078250885
1768216474178630100,6.258630126953125,0.03929653763771057,-0.012509666383266449,-0.05336175858974457
1768216474188630000,6.268630126953125,0.04145956039428711,0.011012171395123005,-0.0545886754989624
1768216474198631200,6.278631103515625,0.04625644534826279,0.031380560249090195,-0.06534864753484726
1768216474208631000,6.288631103515625,0.056720536202192307,0.04717017337679863,-0.06979958713054657
1768216474218632000,6.2986318359375,0.0559423603117466,0.06072380021214485,-0.07200255244970322
1768216474228632000,6.308632080078125,0.04427452012896538,0.07213198393583298,-0.0694991797208786
1768216474238633000,6.318633056640625,0.03404238820075989,0.07667533308267593,-0.06570524722337723
1768216474248634000,6.328634033203125,0.026545856148004532,0.07217060029506683,-0.05964042618870735
1768216474258634000,6.338634033203125,0.0223830696195364,0.06367511302232742,-0.059577576816082
1768216474268635100,6.34863525390625,0.016704145818948746,0.04470408707857132,-0.06036560609936714
1768216474278635000,6.358635009765625,0.008494152687489986,0.026040920987725258,-0.058334946632385254
1768216474288636000,6.368635986328125,-0.0013582120882347226,0.012806875631213188,-0.06090223416686058
1768216474298636800,6.37863671875,-0.0065351310186088085,0.003166232258081436,-0.0639030858874321
1768216474308637000,6.388636962890625,-0.008153799921274185,-0.0049612028524279594,-0.057975150644779205
1768216474318638000,6.39863818359375,-0.007486145943403244,-0.0020663465838879347,-0.04652915149927139
1768216474328638000,6.408637939453125,-0.010430802591145039,0.005320463329553604,-0.029320605099201202
1768216474338638600,6.418638671875,-0.011964784003794193,0.00863396842032671,-0.021857628598809242
1768216474348639500,6.428639404296875,-0.013068131171166897,0.017555024474859238,-0.01672598347067833
1768216474358639400,6.438639404296875,-0.017889784649014473,0.022050706669688225,-0.016944361850619316
1768216474368640500,6.448640625,-0.017494570463895798,0.024350080639123917,-0.02003442868590355
1768216474378640400,6.458640380859375,-0.025589516386389732,0.027571706101298332,-0.021996112540364265
1768216474388641500,6.4686416015625,-0.03857562318444252,0.02568565495312214,-0.01509825885295868
1768216474398642400,6.478642333984375,-0.04770786687731743,0.026251576840877533,-0.012507270090281963
1768216474408642600,6.488642578125,-0.05498841777443886,0.02484569512307644,-0.017733190208673477
1768216474418643500,6.4986435546875,-0.06090356409549713,0.022120214998722076,-0.021801169961690903
1768216474428643600,6.5086435546875,-0.06326152384281158,0.01792014390230179,-0.020370252430438995
1768216474438644500,6.51864453125,-0.059125371277332306,0.016091618686914444,-0.017590444535017014
1768216474448645600,6.528645751953125,-0.052250154316425323,0.012121111154556274,-0.010859837755560875
1768216474458645500,6.5386455078125,-0.04410514235496521,0.009214803576469421,0.0014796522445976734
1768216474468646400,6.548646484375,-0.03573296219110489,0.013578127138316631,0.009258479811251163
1768216474478646500,6.558646484375,-0.028110196813941002,0.023271501064300537,0.016769392415881157
1768216474488647400,6.5686474609375,-0.02280065417289734,0.03239016234874725,0.027637487277388573
1768216474498647600,6.5786474609375,-0.02737383358180523,0.03629808500409126,0.03238510340452194
1768216474508648700,6.588648681640625,-0.0342828705906868,0.04019242525100708,0.035711392760276794
1768216474518649600,6.598649658203125,-0.040217459201812744,0.04139591008424759,0.03778412938117981
1768216474528649500,6.6086494140625,-0.03585493564605713,0.04163399711251259,0.032819733023643494
1768216474538650600,6.618650634765625,-0.030648989602923393,0.044795699417591095,0.031082285568118095
1768216474548650500,6.628650390625,-0.022959111258387566,0.05042029544711113,0.029515814036130905
1768216474558651400,6.6386513671875,-0.01793878711760044,0.06058132275938988,0.030364563688635826
1768216474568652500,6.648652587890625,-0.0160071961581707,0.06666584312915802,0.030125411227345467
1768216474578652700,6.658652587890625,-0.011079548858106136,0.06513985246419907,0.030346453189849854
1768216474588653600,6.668653564453125,-0.010083792731165886,0.05856717377901077,0.0341116301715374
1768216474598653400,6.6786533203125,-0.008195078931748867,0.052736714482307434,0.0381535105407238
1768216474608654600,6.688654541015625,-0.011991681531071663,0.043415650725364685,0.04441673308610916
1768216474618655500,6.698655517578125,-0.012626046314835548,0.0385199598968029,0.04242868348956108
1768216474628655400,6.7086552734375,-0.009501093067228794,0.036183036863803864,0.036250416189432144
1768216474638656500,6.718656494140625,-0.005911685060709715,0.04213600233197212,0.02502439357340336
1768216474648656600,6.72865673828125,-0.006367351859807968,0.04615604504942894,0.020257601514458656
1768216474658657500,6.738657470703125,-0.009188172407448292,0.05558815971016884,0.018390458077192307
1768216474668658400,6.748658447265625,-0.007859786972403526,0.05145946145057678,0.012169048190116882
1768216474678658600,6.758658447265625,-0.00541500560939312,0.042578086256980896,0.010673683136701584
1768216474688659500,6.768659423828125,-0.0022082931827753782,0.036671463400125504,0.008329568430781364
1768216474698659300,6.778659423828125,0.0004540689697023481,0.026927487924695015,0.009250756353139877
1768216474708660500,6.788660400390625,-0.0007142598042264581,0.017406420782208443,0.01213069912046194
1768216474718661600,6.79866162109375,-0.0002615224220789969,0.01227211207151413,0.01449718326330185
1768216474728661500,6.80866162109375,0.00006498113361885771,0.009291502647101879,0.018020546063780785
1768216474738662400,6.818662353515625,-0.0010178601369261742,0.002625077962875366,0.018736137077212334
1768216474748662500,6.82866259765625,-0.004257329273968935,-0.0027830032631754875,0.01267132069915533
1768216474758663400,6.838663330078125,-0.006322344299405813,-0.008622516877949238,0.005280249286442995
1768216474768664600,6.84866455078125,-0.012924587354063988,-0.014788533560931683,0.004703941289335489
1768216474778664700,6.858664794921875,-0.011521900072693825,-0.015360847115516663,0.005845372099429369
1768216474788665600,6.86866552734375,-0.013244166038930416,-0.016025304794311523,0.0065383268520236015
1768216474798665500,6.87866552734375,-0.014888668432831764,-0.013525396585464478,0.0006410228670574725
1768216474808666400,6.888666259765625,-0.012011655606329441,-0.012112855911254883,-0.0027031085919588804
1768216474818666500,6.89866650390625,-0.00827737059444189,-0.0012634035665541887,-0.011299792677164078
1768216474828667400,6.90866748046875,-0.005095958709716797,0.0038810246624052525,-0.01176584605127573
1768216474838668500,6.91866845703125,-0.004536162130534649,-0.003707386553287506,-0.008360461331903934
1768216474848668700,6.928668701171875,-0.0027092336677014828,-0.006697850301861763,-0.0022895196452736855
1768216474858669600,6.938669677734375,0.003622697899118066,-0.00811837986111641,-0.00033103092573583126
1768216474868669400,6.94866943359375,0.006863232236355543,-0.0005012069013901055,-0.0023166837636381388
1768216474878670300,6.95867041015625,0.006052832584828138,0.013939783908426762,-0.006162288598716259
1768216474888671700,6.968671630859375,0.007511179428547621,0.015719307586550713,-0.012676646932959557
1768216474898671600,6.978671630859375,0.005364938173443079,0.01756487973034382,-0.014125140383839607
1768216474908672500,6.988672607421875,0.012827914208173752,0.024631576612591743,-0.01817767135798931
1768216474918672600,6.998672607421875,0.024291224777698517,0.031496673822402954,-0.018096711486577988
1768216474928673500,7.008673583984375,0.03833140805363655,0.0344059094786644,-0.018185395747423172
1768216474938674400,7.01867431640625,0.04527214169502258,0.024630511179566383,-0.017474330961704254
1768216474948674600,7.028674560546875,0.049847718328237534,0.006444850005209446,-0.017176058143377304
1768216474958675700,7.03867578125,0.04605377838015556,-0.004054662771522999,-0.020501812919974327
1768216474968675600,7.048675537109375,0.04466573894023895,-0.01446815486997366,-0.025245169177651405
1768216474978676500,7.058676513671875,0.04399115964770317,-0.01866289973258972,-0.029578132554888725
1768216474988677400,7.068677490234375,0.04117513447999954,-0.016199210658669472,-0.03176405653357506
1768216474998677500,7.078677490234375,0.03955300152301788,-0.0025329324416816235,-0.0298998411744833
1768216475008678400,7.088678466796875,0.037153229117393494,0.011085674166679382,-0.03050437942147255
1768216475018678500,7.098678466796875,0.03719557076692581,0.02973099797964096,-0.02960875816643238
1768216475028679700,7.1086796875,0.03629489243030548,0.04246490076184273,-0.030966704711318016
1768216475038680600,7.1186806640625,0.03718891367316246,0.05096171796321869,-0.029931534081697464
1768216475048680400,7.128680419921875,0.036864008754491806,0.0536898598074913,-0.027459055185317993
1768216475058681600,7.138681640625,0.03721101954579353,0.05601213499903679,-0.021735655143857002
1768216475068681500,7.148681396484375,0.03744804114103317,0.048584580421447754,-0.017726799473166466
1768216475078682400,7.158682373046875,0.03865152224898338,0.04532007873058319,-0.019215505570173264
1768216475088683500,7.16868359375,0.03680648282170296,0.044137101620435715,-0.018800053745508194
1768216475098683600,7.17868359375,0.03792154788970947,0.04326970875263214,-0.020424848422408104
1768216475108684500,7.1886845703125,0.039142608642578125,0.045462023466825485,-0.019101522862911224
1768216475118684400,7.198684326171875,0.035285286605358124,0.04908125847578049,-0.019632557407021523
1768216475128685600,7.208685546875,0.034929487854242325,0.056168731302022934,-0.01540398970246315
1768216475138685400,7.218685546875,0.03634389117360115,0.06744988262653351,-0.010750115849077702
1768216475148686300,7.228686279296875,0.03580779954791069,0.07266408205032349,-0.008098673075437546
1768216475158687500,7.2386875,0.03171904757618904,0.07393360882997513,-0.008130896836519241
1768216475168687600,7.2486875,0.030760042369365692,0.07124568521976471,-0.0073258234187960625
1768216475178688500,7.2586884765625,0.03014964610338211,0.07027975469827652,-0.004681038204580545
1768216475188688600,7.268688720703125,0.03051077201962471,0.07249284535646439,-0.004999286029487848
1768216475198689500,7.278689453125,0.03129240870475769,0.08143440634012222,-0.004079164005815983
1768216475208690400,7.2886904296875,0.030461236834526062,0.08635459840297699,-0.00740198977291584
1768216475218690600,7.298690673828125,0.026320554316043854,0.08852773159742355,-0.013315272517502308
1768216475228691500,7.30869140625,0.020844828337430954,0.0917152687907219,-0.020380638539791107
1768216475238691600,7.318691650390625,0.017522800713777542,0.0930631011724472,-0.028970930725336075
1768216475248692500,7.3286923828125,0.015269233845174313,0.0971105694770813,-0.03534121438860893
1768216475258693400,7.338693359375,0.012831109575927258,0.0975787565112114,-0.04069256782531738
1768216475268693500,7.348693603515625,0.015077752992510796,0.09898170828819275,-0.043775711208581924
1768216475278694700,7.358694580078125,0.014888402074575424,0.10188455134630203,-0.044920869171619415
1768216475288694500,7.368694580078125,0.013548566028475761,0.10618901997804642,-0.04776565730571747
1768216475298695700,7.37869580078125,0.011435880325734615,0.11105115711688995,-0.05019845440983772
1768216475308696600,7.388696533203125,0.011083011515438557,0.11225143820047379,-0.04990763962268829
1768216475318696400,7.398696533203125,0.01107289083302021,0.11299286782741547,-0.04761625453829765
1768216475328697300,7.408697265625,0.011447331868112087,0.1135939359664917,-0.048821866512298584
1768216475338698800,7.41869873046875,0.010750914923846722,0.10816401988267899,-0.04256530478596687
1768216475348699600,7.42869970703125,0.012173042632639408,0.10097508132457733,-0.03289909288287163
1768216475358700800,7.43870068359375,0.0091745899990201,0.10496929287910461,-0.02749740518629551
1768216475368700700,7.44870068359375,0.006844057701528072,0.10222224146127701,-0.027160514146089554
1768216475378701600,7.45870166015625,0.006607302464544773,0.09976707398891449,-0.02177560329437256
1768216475388701700,7.46870166015625,0.006173473782837391,0.09406311810016632,-0.014310229569673538
1768216475398702600,7.47870263671875,0.004720985423773527,0.08413431793451309,-0.010958908125758171
1768216475408703500,7.488703369140625,0.00043809000635519624,0.0742928758263588,-0.008618521504104137
1768216475418703600,7.49870361328125,-0.0008980178972706199,0.0618700236082077,-0.003272492438554764
1768216475428704800,7.508704833984375,-0.007852597162127495,0.04963359981775284,-0.0026578346733003855
1768216475438704600,7.51870458984375,-0.00965502392500639,0.040882185101509094,-0.00526613462716341
1768216475448705800,7.528705810546875,-0.009791377931833267,0.03527117148041725,-0.010047041811048985
1768216475458706700,7.538706787109375,-0.006441387813538313,0.038307443261146545,-0.012200740166008472
1768216475468706600,7.54870654296875,-0.006951649207621813,0.04429076611995697,-0.01641758903861046
1768216475478707500,7.55870751953125,-0.005470665637403727,0.04651317372918129,-0.019122827798128128
1768216475488707600,7.56870751953125,-0.003810983384028077,0.04686710610985756,-0.011830826289951801
1768216475498708700,7.578708740234375,-0.000248472933890298,0.04194425418972969,-0.005515406373888254
1768216475508709600,7.588709716796875,0.002572879893705249,0.03274969011545181,-0.001148355077020824
1768216475518709800,7.598709716796875,0.001814677962101996,0.02359241060912609,-0.001341700553894043
1768216475528710700,7.608710693359375,0.00002370213405811228,0.017712684348225594,-0.003715375903993845
1768216475538710500,7.61871044921875,-0.00336170825175941,0.019719108939170837,-0.004077033139765263
1768216475548711400,7.62871142578125,-0.008020375855267048,0.021737519651651382,-0.0038373488932847977
1768216475558712800,7.638712890625,-0.011169830337166786,0.026076607406139374,-0.0006580671179108322
1768216475568712700,7.648712646484375,-0.01176131796091795,0.025248099118471146,0.0030629015527665615
1768216475578713600,7.658713623046875,-0.009970342740416527,0.020920461043715477,-0.001014398061670363
1768216475588713700,7.668713623046875,-0.0058067562058568,0.020668260753154755,-0.002829076023772359
1768216475598714600,7.678714599609375,-0.004281031433492899,0.01895318552851677,-0.0036858150269836187
1768216475608715500,7.688715576171875,-0.006500510033220053,0.01859019510447979,-0.003850131994113326
1768216475618715600,7.698715576171875,-0.007144462317228317,0.020376911386847496,-0.005861883983016014
1768216475628716800,7.708716796875,-0.0065223476849496365,0.01823865808546543,-0.005628857295960188
1768216475638716700,7.718716552734375,-0.00777669670060277,0.008075769990682602,-0.00857457984238863
1768216475648717600,7.728717529296875,-0.0035712989047169685,0.006688795518130064,-0.005033107940107584
1768216475658718500,7.738718505859375,-0.0030868700705468655,0.01010829396545887,-0.003919640555977821
1768216475668718600,7.748718505859375,-0.00011664645717246458,0.013148559257388115,-0.006335127633064985
1768216475678719700,7.7587197265625,-0.0018024274613708258,0.018991000950336456,-0.008079498074948788
1768216475688720000,7.768719970703125,-0.0013275857781991363,0.02154204435646534,-0.007647533435374498
1768216475698720800,7.778720703125,-0.004511661361902952,0.020229371264576912,-0.005649629980325699
1768216475708721700,7.7887216796875,-0.006162820849567652,0.018738534301519394,0.0005826996639370918
1768216475718721500,7.798721435546875,-0.013333115726709366,0.017432786524295807,0.002837864449247718
1768216475728722700,7.80872265625,-0.015921175479888916,0.014592524617910385,0.003659449517726898
1768216475738722600,7.81872265625,-0.015958992764353752,0.019515911117196083,0.001615207176655531
1768216475748723700,7.8287236328125,-0.011540009640157223,0.026561303064227104,0.00004873584839515388
1768216475758724600,7.838724609375,-0.0038661109283566475,0.031004255637526512,-0.004005660768598318
1768216475768724700,7.848724853515625,-0.001008539111353457,0.03723285719752312,-0.007193997036665678
1768216475778725600,7.8587255859375,0.007229949813336134,0.03828613460063934,-0.007967112585902214
1768216475788725500,7.8687255859375,0.00646775308996439,0.0305805467069149,-0.007047523278743029
1768216475798726700,7.8787265625,0.0074619110673666,0.02064802125096321,-0.008096808567643166
1768216475808727800,7.888727783203125,0.00566907087340951,0.013118731789290905,-0.006204099860042334
1768216475818727700,7.898727783203125,0.008820655755698681,0.011659585870802402,-0.005095159634947777
1768216475828728600,7.908728515625,0.007930360734462738,0.01227610744535923,-0.00974583812057972
1768216475838728700,7.918728759765625,0.007375358138233423,0.015439409762620926,-0.011542405933141708
1768216475848729600,7.9287294921875,0.006105296779423952,0.021075723692774773,-0.011716310866177082
1768216475858730500,7.93873046875,0.006429403554648161,0.02828090637922287,-0.010728011839091778
1768216475868730600,7.948730712890625,0.008532501757144928,0.03201252594590187,-0.0099008334800601
1768216475878731800,7.958731689453125,0.010686999186873436,0.03188549354672432,-0.013641243800520897
1768216475888731600,7.968731689453125,0.008944492787122726,0.030416496098041534,-0.016987506300210953
1768216475898732500,7.978732666015625,0.0051966262981295586,0.024083232507109642,-0.017892181873321533
1768216475908733700,7.988733642578125,0.004022172186523676,0.02321983501315117,-0.017835456877946854
1768216475918733600,7.998733642578125,0.004350007511675358,0.02135455794632435,-0.014992265030741692
1768216475928734500,8.008734375,0.0057249972596764565,0.02166348323225975,-0.011536546982824802
1768216475938734600,8.018734619140625,0.006637662649154663,0.019354788586497307,-0.00785392802208662
1768216475948735700,8.02873583984375,0.004203000571578741,0.017371267080307007,-0.005034173373132944
1768216475958736600,8.038736572265625,0.0035172367934137583,0.01690095290541649,-0.008173241280019283
1768216475968736800,8.04873681640625,0.0010226538870483637,0.017496434971690178,-0.009937318973243237
1768216475978737700,8.058737548828125,0.001356347929686308,0.01889113336801529,-0.012442555278539658
1768216475988737500,8.068737548828125,0.0012282498646527529,0.022292256355285645,-0.011576228775084019
1768216475998738400,8.078738525390625,0.0002873550693038851,0.02172606810927391,-0.010357832536101341
1768216476008739600,8.088739501953125,0.0035140409599989653,0.024587901309132576,-0.01044278685003519
1768216476018739700,8.09873974609375,0.0007486145477741957,0.02647794596850872,-0.00698041170835495
1768216476028740600,8.10874072265625,-0.0003283677506260574,0.027416976168751717,-0.007604656275361776
1768216476038740700,8.11874072265625,0.00041864890954457223,0.026930151507258415,-0.009549829177558422
1768216476048741600,8.12874169921875,-0.0007323693134821951,0.0258044321089983,-0.005711681675165892
1768216476058742800,8.13874267578125,-0.002662628423422575,0.028419656679034233,-0.00552392890676856
1768216476068742700,8.14874267578125,-0.0067873322404921055,0.03398939222097397,-0.004963865969330072
1768216476078743800,8.158743896484374,-0.006398510653525591,0.03346554934978485,-0.002091380301862955
1768216476088743700,8.16874365234375,-0.012646819464862347,0.04779361933469772,-0.007918376475572586
1768216476098744600,8.17874462890625,-0.00839694682508707,0.047090545296669006,0.002101234160363674
1768216476108745500,8.188745361328126,-0.0005667206714861095,0.0415080301463604,0.003078347770497203
1768216476118745600,8.19874560546875,0.0027569043450057507,0.04114530608057976,0.004888498689979315
1768216476128746800,8.208746826171875,0.005213404074311256,0.03429139405488968,0.008291485719382763
1768216476138746600,8.21874658203125,0.012150672264397144,0.027042269706726074,0.008102933876216412
1768216476148747800,8.228747802734375,0.011679292656481266,0.019809924066066742,0.005278118886053562
1768216476158748700,8.238748779296875,0.01013732235878706,0.00899855513125658,-0.00019520970818120986
1768216476168748500,8.24874853515625,0.006730074528604746,0.0005502090789377689,-0.003907656297087669
1768216476178749400,8.25874951171875,0.001882854849100113,-0.0029878003988415003,-0.008014783263206482
1768216476188749600,8.26874951171875,-0.0014974954538047314,-0.0004601942200679332,-0.005774531979113817
1768216476198750700,8.278750732421875,-0.004944957327097654,0.0003499393642414361,-0.0046783750876784325
1768216476208751600,8.288751708984375,-0.004053330980241299,0.0054909056052565575,-0.0009659285424277186
1768216476218751700,8.298751708984375,-0.0043832967057824135,0.005548163317143917,0.0015728629659861326
1768216476228752600,8.308752685546875,-0.0009614011505618691,0.004298341926187277,0.0046852994710206985
1768216476238753500,8.31875341796875,0.00030892668291926384,-0.00507039250805974,0.008710667490959167
1768216476248753700,8.328753662109374,0.0035744947381317616,-0.012192483991384506,0.008270712569355965
1768216476258754800,8.3387548828125,0.001311873085796833,-0.023021429777145386,0.008857940323650837
1768216476268754700,8.348754638671876,0.0008492820779792964,-0.0361606664955616,0.009184177033603191
1768216476278755600,8.358755615234376,-0.002156894188374281,-0.04922214150428772,0.008098140358924866
1768216476288756700,8.3687568359375,-0.005110073368996382,-0.06262396275997162,0.0049409628845751286
1768216476298756600,8.378756591796876,-0.0076030585914850235,-0.07589370012283325,0.00162399560213089
1768216476308757500,8.388757568359376,-0.009857690893113613,-0.08072440326213837,-0.0034083134960383177
1768216476318757600,8.398757568359375,-0.009865679778158665,-0.08228954672813416,-0.005848834291100502
1768216476328758800,8.4087587890625,-0.005034972447901964,-0.08589307218790054,-0.009668606333434582
1768216476338759000,8.418759033203125,0.000022636868379777297,-0.09002656489610672,-0.012080897577106953
1768216476348759000,8.428759033203125,-0.0008343683439306915,-0.09514622390270233,-0.014515026472508907
1768216476358760000,8.438760009765625,-0.0005544701125472784,-0.09068915992975235,-0.012063587084412575
1768216476368759800,8.448759765625,-0.0019955066964030266,-0.08226610720157623,-0.003970507066696882
1768216476378760700,8.4587607421875,-0.0013853764394298196,-0.06873006373643875,0.008970857597887516
1768216476388761900,8.468761962890625,-0.0010298443958163261,-0.058392737060785294,0.02167174033820629
1768216476398761700,8.47876171875,0.0009752495680004358,-0.05029726028442383,0.029709959402680397
1768216476408763000,8.488762939453125,-0.00015393071225844324,-0.048714276403188705,0.026073945686221123
1768216476418763000,8.498762939453124,0.0005083974683657289,-0.05134468153119087,0.015158180147409439
1768216476428764000,8.508763916015624,0.000499875342939049,-0.0635070726275444,0.00236222380772233
1768216476438764800,8.518764892578124,-0.00007190534961409867,-0.07493922114372253,-0.0031465247739106417
1768216476448765000,8.528764892578126,0.0016021577175706625,-0.08875942975282669,-0.006202502176165581
1768216476458765800,8.538765869140626,-0.000017843178284238093,-0.09467564523220062,-0.004664260428398848
1768216476468765700,8.548765625,0.004580370616167784,-0.09756011515855789,-0.0019257317762821913
1768216476478766800,8.558766845703126,0.007095459848642349,-0.09570176154375076,-0.00487305223941803
1768216476488767700,8.568767822265626,0.00803076196461916,-0.09159596264362335,-0.007177751511335373
1768216476498768000,8.578767822265625,0.0026399914640933275,-0.09015492349863052,-0.006956176832318306
1768216476508768800,8.588768798828125,0.0006729807937517762,-0.08904784917831421,-0.005078381858766079
1768216476518769000,8.598768798828125,-0.005739378277212381,-0.07581167668104172,-0.006275472696870565
1768216476528770000,8.60877001953125,-0.005921804811805487,-0.06884963810443878,0.0005004079430364072
1768216476538771000,8.61877099609375,-0.004505802411586046,-0.058405254036188126,0.0070738885551691055
1768216476548770800,8.628770751953125,-0.004334561061114073,-0.04784075915813446,0.009181248024106026
1768216476558772000,8.63877197265625,-0.00040719733806326985,-0.03154860436916351,0.007322361227124929
1768216476568771800,8.648771728515625,0.0020210728980600834,-0.023680295795202255,0.004247209057211876
1768216476578772700,8.658772705078125,0.004862399306148291,-0.018259165808558464,-0.0015089471125975251
1768216476588774000,8.66877392578125,0.007143929600715637,-0.017173660919070244,-0.003948402591049671
1768216476598774000,8.67877392578125,0.009922938421368599,-0.013562946580350399,-0.0033635725267231464
1768216476608775000,8.68877490234375,0.01455657184123993,-0.010792993009090424,-0.00021731393644586205
1768216476618775800,8.69877587890625,0.01667378470301628,-0.0107708889991045,0.0006029396899975836
1768216476628776000,8.70877587890625,0.017238374799489975,-0.013002617284655571,-0.0012183962389826775
1768216476638776800,8.71877685546875,0.020065853372216225,-0.016949422657489777,-0.007862983271479607
1768216476648776700,8.728776611328126,0.01452701073139906,-0.023965787142515182,-0.012464392930269241
1768216476658777900,8.73877783203125,0.007445399183779955,-0.02641882374882698,-0.010921357199549675
1768216476668779000,8.748779052734376,0.006687463726848364,-0.021330323070287704,-0.001630120910704136
1768216476678779000,8.75877880859375,0.00284958234988153,-0.016054334118962288,0.008123972453176975
1768216476688779800,8.76877978515625,-0.0003709783486556262,-0.01019484642893076,0.015388810075819492
1768216476698780000,8.77877978515625,-0.00019041601626668125,-0.0039039277471601963,0.0161771047860384
1768216476708780800,8.78878076171875,0.0020759340841323137,0.005008607171475887,0.015782425180077553
1768216476718782000,8.798781982421875,0.0018255969043821096,0.013400760479271412,0.011665976606309414
1768216476728781800,8.80878173828125,0.0015488944482058287,0.019348930567502975,0.012517656199634075
1768216476738783000,8.818782958984375,0.00008495483780279756,0.01727992109954357,0.009824933484196663
1768216476748782800,8.828782958984375,-0.003025350859388709,0.012707273475825787,0.009405752643942833
1768216476758783700,8.83878369140625,-0.00729386555030942,0.007968977093696594,0.01284788828343153
1768216476768784600,8.84878466796875,-0.009252620860934258,0.003991013392806053,0.016455672681331635
1768216476778784800,8.85878466796875,-0.010459565557539463,-0.0015515576815232635,0.021941784769296646
1768216476788786000,8.868785888671875,-0.014038586989045143,-0.003686613868921995,0.019170498475432396
1768216476798786000,8.8787861328125,-0.01666313223540783,-0.00015925703337416053,0.017253288999199867
1768216476808787000,8.888786865234374,-0.023995880037546158,0.0019118833588436246,0.022703181952238083
1768216476818787800,8.898787841796874,-0.026331473141908646,0.004782504867762327,0.026086993515491486
1768216476828787700,8.90878759765625,-0.026315759867429733,0.00714632635936141,0.023727167397737503
1768216476838788900,8.918788818359374,-0.027660390362143517,0.006111155729740858,0.02442305162549019
1768216476848788700,8.928788818359376,-0.026878219097852707,0.010776215232908726,0.020742563530802727
1768216476858790000,8.938789794921876,-0.020914070308208466,0.01817074790596962,0.023079486563801765
1768216476868790800,8.948790771484376,-0.019222697243094444,0.03021329641342163,0.02985323593020439
1768216476878791000,8.958791015625,-0.017855430021882057,0.04565057530999184,0.03833647072315216
1768216476888791800,8.968791748046876,-0.010498980060219765,0.05928276479244232,0.040584977716207504
1768216476898791700,8.978791748046875,-0.011418569833040237,0.06448551267385483,0.039859265089035034
1768216476908792800,8.988792724609375,-0.013074789196252823,0.05825052410364151,0.032345421612262726
1768216476918794000,8.9987939453125,-0.014287060126662254,0.04695179685950279,0.02605769969522953
1768216476928793900,9.0087939453125,-0.012425776571035385,0.03476117551326752,0.018922291696071625
1768216476938794800,9.018794677734375,-0.008214253932237625,0.03146577998995781,0.01438213512301445
1768216476948795000,9.028794921875,-0.006191050633788109,0.033967021852731705,0.019083678722381592
1768216476958795800,9.038795654296875,-0.006385994143784046,0.03792447969317436,0.02648167498409748
1768216476968797000,9.048796875,-0.009785518981516361,0.0440545417368412,0.031802669167518616
1768216476978797000,9.058797119140625,-0.01104412879794836,0.05212418735027313,0.035170771181583405
1768216476988798000,9.0687978515625,-0.010935472324490547,0.05653970688581467,0.039441414177417755
1768216476998797800,9.0787978515625,-0.010440656915307045,0.04821573197841644,0.03429192677140236
1768216477008798700,9.088798828125,-0.006460029631853104,0.0462748222053051,0.0309270229190588
1768216477018799900,9.0987998046875,-0.004969192203134298,0.04279966279864311,0.029642047360539436
1768216477028799700,9.1087998046875,-0.0031667647417634726,0.04145849496126175,0.03135312721133232
1768216477038801000,9.11880078125,-0.004387557972222567,0.04671850427985191,0.037580665200948715
1768216477048801000,9.128801025390626,-0.0062158177606761456,0.05790617689490318,0.04536588490009308
1768216477058802000,9.138802001953126,-0.010235860012471676,0.07060892134904861,0.056064069271087646
1768216477068802800,9.148802734375,-0.018328141421079636,0.08347119390964508,0.06422772258520126
1768216477078803000,9.158802978515626,-0.024273646995425224,0.07787482440471649,0.06561975926160812
1768216477088803800,9.168803955078126,-0.025790585204958916,0.052934855222702026,0.05690695717930794
1768216477098803700,9.1788037109375,-0.028547221794724464,0.03652365505695343,0.04790094494819641
1768216477108804900,9.188804931640625,-0.02773788757622242,0.02870328351855278,0.03544161468744278
1768216477118805800,9.1988056640625,-0.022493058815598488,0.022784674540162086,0.02034868113696575
1768216477128806000,9.208805908203125,-0.018435733392834663,0.01751108281314373,0.01740029640495777
1768216477138806800,9.218806884765625,-0.014718758873641491,0.01441276166588068,0.011698201298713684
1768216477148807700,9.2288076171875,-0.011003648862242699,0.011921906843781471,0.0095671396702528
1768216477158807800,9.238807861328125,-0.006338856182992458,0.014604242518544197,0.012703011743724346
1768216477168809000,9.24880908203125,-0.0018122810870409012,0.019687417894601822,0.013408749364316463
1768216477178808800,9.258808837890625,-0.0005587312043644488,0.01991724967956543,0.015511581674218178
1768216477188810000,9.26881005859375,-0.0023089605383574963,0.021824073046445847,0.017072193324565887
1768216477198811000,9.278810791015625,-0.0035113778430968523,0.025105353444814682,0.01245027780532837
1768216477208810800,9.288810791015624,-0.00376011710613966,0.024657143279910088,0.009118929505348206
1768216477218811600,9.298811767578124,-0.0011712582781910896,0.024381238967180252,0.0070368703454732895
1768216477228811800,9.308811767578124,0.0012522183824330568,0.02364088036119938,0.005264803301542997
1768216477238813000,9.31881298828125,0.006099970545619726,0.023755662143230438,0.005772934295237064
1768216477248813800,9.328813720703126,0.005736715160310268,0.015470302663743496,0.007325024344027042
1768216477258814000,9.33881396484375,0.0067758806981146336,0.009435580112040043,0.009158877655863762
1768216477268814800,9.34881494140625,0.007900266908109188,0.010605772957205772,0.009443036280572414
1768216477278814700,9.358814697265625,0.006685333326458931,0.008220911957323551,0.011595935560762882
1768216477288815600,9.368815673828125,0.005228850524872541,0.011689945124089718,0.009816411882638931
1768216477298817000,9.378817138671875,0.004199538845568895,0.018253305926918983,0.007909588515758514
1768216477308817000,9.38881689453125,0.0030719563364982605,0.023856597021222115,0.0074017234146595
1768216477318817800,9.39881787109375,0.004548945464193821,0.025063540786504745,0.010385795496404171
1768216477328818000,9.40881787109375,0.004804608877748251,0.023304790258407593,0.003179814200848341
1768216477338819600,9.418819580078125,0.007952997460961342,0.019992616027593613,-0.005634982604533434
1768216477348820500,9.428820556640625,0.007873103022575378,0.018157431855797768,-0.0070856064558029175
1768216477358820400,9.4388203125,0.005625128746032715,0.020194217562675476,-0.005756955128163099
1768216477368821500,9.448821533203125,0.00424188282340765,0.018308699131011963,-0.010803112760186195
1768216477378821400,9.4588212890625,0.002258626976981759,0.017539046704769135,-0.010404704138636589
1768216477388822500,9.468822509765625,0.002448510378599167,0.017891382798552513,-0.006974286399781704
1768216477398823400,9.478823486328125,0.004321777727454901,0.022548185661435127,-0.002579537918791175
1768216477408823600,9.488823486328124,0.00606348505243659,0.01715528406202793,-0.0029590383637696505
1768216477418824400,9.498824462890624,0.005363340023905039,0.013348296284675598,-0.0012929646763950586
1768216477428824300,9.50882421875,0.0035366779193282127,0.006960703991353512,-0.00046099317842163146
1768216477438825500,9.518825439453124,0.0017305220244452357,0.00628932099789381,-0.00014274542627390474
1768216477448826600,9.52882666015625,-0.00048416267964057624,0.007480819243937731,0.003094060579314828
1768216477458826500,9.538826416015626,-0.0011163970921188593,0.008915730752050877,0.003195260651409626
1768216477468827400,9.548827392578126,-0.0036908749025315046,0.009386577643454075,0.0032442628871649504
1768216477478827500,9.55882763671875,-0.004067446105182171,0.010961038060486317,0.0055228634737432
1768216477488828400,9.568828369140626,-0.004984372295439243,0.011285144835710526,0.0035577169619500637
1768216477498829300,9.578829345703125,-0.0034583809319883585,0.011966913938522339,0.006893858779221773
1768216477508829700,9.58882958984375,-0.006369215901941061,0.01188142690807581,0.013519536703824997
1768216477518830600,9.59883056640625,-0.007965780794620514,0.0073111760430037975,0.01571318320930004
1768216477528830500,9.60883056640625,-0.009555688127875328,0.0029768813401460648,0.015417305752635002
1768216477538831400,9.618831298828125,-0.008577775210142136,-0.00017017599020618945,0.012171978130936623
1768216477548832500,9.62883251953125,-0.0065529742278158665,-0.009955961257219315,0.010764763690531254
1768216477558832400,9.638832275390625,-0.009161273948848248,-0.018134795129299164,0.014927816577255726
1768216477568833500,9.64883349609375,-0.010307764634490013,-0.022111959755420685,0.019398998469114304
1768216477578833700,9.658833740234375,-0.009023056365549564,-0.028680380433797836,0.014624482952058315
1768216477588834600,9.66883447265625,-0.011267567984759808,-0.03289962559938431,0.012105132453143597
1768216477598835500,9.67883544921875,-0.011167433112859726,-0.03621073439717293,0.00926194153726101
1768216477608835600,9.688835693359374,-0.00737189594656229,-0.033916156738996506,0.012118448503315449
1768216477618836500,9.69883642578125,-0.009241435676813126,-0.03086124360561371,0.01774650625884533
1768216477628836400,9.70883642578125,-0.010776481591165066,-0.028239095583558083,0.01624554954469204
1768216477638837500,9.71883740234375,-0.011434548534452915,-0.020727382972836494,0.009490440599620342
1768216477648838400,9.72883837890625,-0.011387144215404987,-0.015738217160105705,0.003659449517726898
1768216477658838500,9.738838623046876,-0.012093148194253445,-0.016461530700325966,0.0011978897964581847
1768216477668839400,9.74883935546875,-0.014138189144432545,-0.018096445128321648,-0.0004961469094268978
1768216477678839600,9.758839599609376,-0.013076120987534523,-0.024834509938955307,-0.005224322900176048
1768216477688840400,9.76884033203125,-0.01070910319685936,-0.031157920137047768,-0.00896819494664669
1768216477698841600,9.778841552734375,-0.007951666601002216,-0.0335872545838356,-0.004821919370442629
1768216477708841500,9.788841552734375,-0.003935619257390499,-0.036860015243291855,-0.0020991035271435976
1768216477718842600,9.798842529296875,-0.0034669029992073774,-0.03851649910211563,0.0029888655990362167
1768216477728842500,9.808842529296875,-0.0008202536264434457,-0.035103924572467804,0.006807838566601276
1768216477738843400,9.818843505859375,0.004975051153451204,-0.036082904785871506,0.013045494444668293
1768216477748844300,9.82884423828125,0.00293347192928195,-0.024867000058293343,0.011347996070981026
1768216477758844400,9.838844482421875,0.0037356161046773195,-0.023133015260100365,0.012748817913234234
1768216477768845600,9.848845458984375,0.006963633466511965,-0.02353808283805847,0.012574647553265095
1768216477778845400,9.858845458984375,0.01236079540103674,-0.02251356467604637,0.012286759912967682
1768216477788846600,9.8688466796875,0.014599449001252651,-0.02010233886539936,0.011854262091219425
1768216477798847500,9.878847412109375,0.023135146126151085,-0.014930213801562786,0.013764281757175922
1768216477808847400,9.888847412109374,0.028898494318127632,-0.0008333030855283141,0.011590076610445976
1768216477818848300,9.89884814453125,0.029443109408020973,-0.0033273533917963505,0.00657561095431447
1768216477828848400,9.908848388671874,0.03454865515232086,-0.004472246393561363,0.005666407756507397
1768216477838849500,9.918849609375,0.04140230268239975,0.00256462418474257,0.0032597091048955917
1768216477848850400,9.928850341796876,0.041059818118810654,0.01960619166493416,0.011430819518864155
1768216477858850600,9.9388505859375,0.03717106953263283,0.028865469619631767,0.018251441419124603
1768216477868851500,9.9488515625,0.029405292123556137,0.02617967315018177,0.02955016866326332
1768216477878851300,9.958851318359375,0.016471384093165398,0.01780482940375805,0.041557297110557556
1768216477888852500,9.9688525390625,0.00944889523088932,0.014131531119346619,0.04945330321788788
1768216477898853600,9.978853515625,0.0037622477393597364,0.01088886708021164,0.05540653318166733
1768216477908853500,9.988853515625,0.008753543719649315,0.012075304985046387,0.05430158972740173
1768216477918854400,9.9988544921875,0.010087521746754646,0.008672317489981651,0.04989751800894737
1768216477928854500,10.0088544921875,0.010232130996882915,-0.0032900692895054817,0.038656316697597504
1768216477938855400,10.01885546875,0.010267284698784351,-0.014081464149057865,0.021628595888614655
1768216477948856600,10.028856689453125,0.007894141599535942,-0.02105255424976349,0.01461968943476677
1768216477958856700,10.038856689453125,0.003950532991439104,-0.02292156033217907,0.01326946634799242
1768216477968857600,10.048857666015625,0.00039734362508170307,-0.017102021723985672,0.029255356639623642
1768216477978857500,10.058857421875,-0.0037609159480780363,-0.0167936272919178,0.04640611261129379
1768216477988858400,10.0688583984375,-0.0016463662032037973,-0.019588083028793335,0.054121293127536774
1768216477998859500,10.078859619140625,-0.003689809702336788,-0.02340226247906685,0.05561425909399986
1768216478008859400,10.088859375,-0.002567020943388343,-0.032826121896505356,0.043244943022727966
1768216478018860500,10.098860595703124,-0.0052384380251169205,-0.03750636428594589,0.03648264333605766
1768216478028860700,10.108860595703124,-0.006476275157183409,-0.03850744664669037,0.02534210868179798
1768216478038861600,10.118861572265626,-0.00044048685231246054,-0.03825231269001961,0.01948555000126362
1768216478048862500,10.128862548828126,0.01170432660728693,-0.051119111478328705,0.023067768663167953
1768216478058862300,10.1388623046875,0.01410676445811987,-0.06205404922366142,0.018387263640761375
1768216478068863500,10.148863525390626,0.015141668729484081,-0.07687560468912125,0.015790946781635284
1768216478078863400,10.15886328125,0.014927816577255726,-0.08817779272794724,0.012342952191829681
1768216478088864500,10.168864501953125,0.01561438012868166,-0.07933983206748962,-0.0010673949727788568
1768216478098865400,10.178865478515625,0.011778894811868668,-0.07346569746732712,-0.017559818923473358
1768216478108865500,10.188865478515625,0.00893703568726778,-0.06372544914484024,-0.020251475274562836
1768216478118866400,10.198866455078125,0.005607551895081997,-0.04246223717927933,-0.011350925080478191
1768216478128866600,10.208866455078125,0.0034317492973059416,-0.021247498691082,-0.001609614584594965
1768216478138867500,10.218867431640625,-0.0018104169284924865,-0.0024258734192699194,0.0036701022181659937
1768216478148868600,10.22886865234375,-0.006885603070259094,0.012414857745170593,0.003599794814363122
1768216478158868500,10.238868408203125,-0.012119513005018234,0.019151058048009872,-0.00011957593233091757
1768216478168869400,10.248869384765625,-0.017734521999955177,0.029016470536589622,0.001427987008355558
1768216478178869500,10.258869384765624,-0.017247961834073067,0.032825589179992676,0.004533499013632536
1768216478188870400,10.268870361328124,-0.019714316353201866,0.037585191428661346,0.004832305945456028
1768216478198871300,10.278871337890624,-0.021893581375479698,0.042819101363420486,0.005017395596951246
1768216478208871400,10.288871337890624,-0.01667165383696556,0.04026353359222412,0.0046940878964960575
1768216478218872600,10.29887255859375,-0.020855214446783066,0.04018284007906914,0.006403038278222084
1768216478228872400,10.30887255859375,-0.015505989082157612,0.034933749586343765,0.0070949275977909565
1768216478238873600,10.31887353515625,-0.015594672411680222,0.027408987283706665,0.003084206720814109
1768216478248874500,10.32887451171875,-0.013875069096684456,0.01661759242415428,0.002689260058104992
1768216478258874400,10.338874267578126,-0.011378888040781021,0.00683180708438158,0.0014117417158558965
1768216478268875300,10.348875244140626,-0.008922655135393143,0.0019494339358061552,-0.00452843913808465
1768216478278875600,10.358875732421875,-0.009783388115465641,0.0006921555614098907,-0.005072789266705513
1768216478288876500,10.36887646484375,-0.00857511255890131,0.0030421288684010506,-0.00748960766941309
1768216478298877400,10.37887744140625,-0.00606508320197463,0.002974484581500292,-0.0076158419251441956
1768216478308877600,10.388877685546875,-0.005812881514430046,0.004188087303191423,-0.004693022463470697
1768216478318878500,10.39887841796875,-0.0028636970091611147,0.010437194257974625,-0.0035630431957542896
1768216478328878300,10.40887841796875,0.00022397184511646628,0.014240721240639687,-0.005285043269395828
1768216478338879200,10.418879150390625,-0.002942260354757309,0.018220549449324608,-0.007619570009410381
1768216478348880100,10.428880126953125,-0.009760751388967037,0.01708071678876877,-0.010696319863200188
1768216478358880000,10.4388798828125,-0.014549913816154003,0.01230540219694376,-0.013373595662415028
1768216478368881000,10.448880859375,-0.019407253712415695,-0.00002157160452043172,-0.022357502952218056
1768216478378881000,10.458881103515624,-0.02081846259534359,-0.0025443839840590954,-0.030290793627500534
1768216478388882000,10.4688818359375,-0.013881194405257702,-0.005149754695594311,-0.03286660462617874
1768216478398883000,10.478883056640624,-0.011503790505230427,-0.010747984983026981,-0.03610021248459816
1768216478408883200,10.48888330078125,-0.0015635418239980936,-0.01062015350908041,-0.03417794406414032
1768216478418884000,10.498884033203124,0.005331648513674736,-0.003955593332648277,-0.03127003833651543
1768216478428885000,10.508885009765624,0.007237939164042473,0.0029494508635252714,-0.030289994552731514
1768216478438884900,10.518884765625,0.010961570776998997,0.01835716888308525,-0.024453943595290184
1768216478448886000,10.528885986328126,0.014237524941563606,0.030398385599255562,-0.01461942307651043
1768216478458886000,10.538885986328125,0.012043613009154797,0.04152427241206169,-0.011483816429972649
1768216478468887000,10.548886962890625,0.0041249701753258705,0.044734712690114975,-0.0070336745120584965
1768216478478887200,10.55888720703125,-0.00017443705291952938,0.041259024292230606,-0.010729876346886158
1768216478488888000,10.56888818359375,-0.006593720521777868,0.028433771803975105,-0.014708106406033039
1768216478498889000,10.578888916015625,-0.006702910177409649,0.010844391770660877,-0.022397184744477272
1768216478508888800,10.588888916015625,-0.004098871257156134,0.005269064102321863,-0.029616747051477432
1768216478518890000,10.598889892578125,-0.003690076060593128,0.0023611586075276136,-0.03140585869550705
1768216478528890000,10.60889013671875,-0.0008293083519674838,0.0006775081856176257,-0.027341609820723534
1768216478538891000,10.61889111328125,0.003837615018710494,0.0023643544409424067,-0.027639616280794144
1768216478548892000,10.628891845703125,0.0011014834744855762,0.006741792429238558,-0.024804681539535522
1768216478558892000,10.63889208984375,-0.00333161442540586,0.01423246506601572,-0.01876729540526867
1768216478568893000,10.648892822265625,-0.001127316034398973,0.023987092077732086,-0.014624216593801975
1768216478578893000,10.65889306640625,0.0001174454009742476,0.039635561406612396,-0.012190353125333786
1768216478588894200,10.668894287109374,0.004369448404759169,0.04165583476424217,-0.006024336442351341
1768216478598895000,10.67889501953125,0.010313090868294239,0.03356142342090607,-0.004969724919646978
1768216478608895000,10.68889501953125,0.011661715805530548,0.025438513606786728,-0.012309130281209946
1768216478618896100,10.698896240234374,0.011993546038866043,0.01576617918908596,-0.018148377537727356
1768216478628896000,10.70889599609375,0.012179967015981674,0.012793825939297676,-0.02888890542089939
1768216478638897000,10.71889697265625,0.014939001761376858,-0.0021899172570556402,-0.046366699039936066
1768216478648898000,10.72889794921875,0.01047474518418312,-0.0057524279691278934,-0.05190687254071236
1768216478658898200,10.738898193359375,0.00561128044500947,0.0005848301807418466,-0.051116447895765305
1768216478668899000,10.748899169921875,-0.000472977408207953,0.016023440286517143,-0.06175524368882179
1768216478678899000,10.75889892578125,-0.003608583239838481,0.03816576302051544,-0.07906205952167511
1768216478688900000,10.768900146484375,-0.0013787185307592154,0.0587269626557827,-0.10030663013458252
1768216478698901000,10.77890087890625,-0.002907373011112213,0.07294557988643646,-0.1196473017334938
1768216478708900900,10.78890087890625,-0.0007667240570299327,0.05637113004922867,-0.1289374828338623
1768216478718902000,10.798902099609375,-0.01131071150302887,0.017962489277124405,-0.12027687579393387
1768216478728902100,10.808902099609375,-0.01691053993999958,-0.039678171277046204,-0.08995332568883896
1768216478738903000,10.818903076171875,-0.020068250596523285,-0.10630859434604645,-0.05495486035943031
1768216478748904000,10.828904052734375,-0.024720260873436928,-0.168003648519516,-0.0344887338578701
1768216478758904000,10.838904052734375,-0.014997857622802258,-0.18570329248905182,-0.025545572862029076
1768216478768905000,10.848905029296875,-0.006631803698837757,-0.16665129363536835,-0.02443050779402256
1768216478778904800,10.85890478515625,-0.0009203884401358664,-0.14006203413009644,-0.01931058056652546
1768216478788906000,10.868906005859374,0.017236243933439255,-0.10289762169122696,-0.00839854497462511
1768216478798907100,10.8789072265625,0.027411118149757385,-0.05882736295461655,-0.000580036488827318
1768216478808907000,10.888906982421876,0.02388828806579113,-0.0357619933784008,0.010313090868294239
1768216478818908000,10.898907958984376,0.01041269302368164,-0.018913770094513893,0.01124999113380909
1768216478828908800,10.90890869140625,-0.0036874127108603716,0.005227785091847181,0.006385727785527706
1768216478838909000,10.918908935546876,-0.014568289741873741,0.006229666527360678,0.000496945867780596
1768216478848910000,10.92891015625,-0.015908125787973404,0.006095975637435913,0.0016042882343754172
1768216478858910200,10.93891015625,-0.013757091015577316,-0.005428587552160025,0.010870757512748241
1768216478868911000,10.9489111328125,-0.006067479960620403,0.01085877325385809,0.02196442149579525
1768216478878911000,10.958910888671875,-0.0033276197500526905,0.028322717174887657,0.026645725592970848
1768216478888912000,10.968911865234375,-0.0009108011145144701,0.041740790009498596,0.02684546262025833
1768216478898913000,10.9789130859375,0.0038005972746759653,0.03717586398124695,0.026793530210852623
1768216478908913200,10.9889130859375,0.0012261193478479981,0.03960147127509117,0.021927403286099434
1768216478918914000,10.9989140625,-0.0049036783166229725,0.052874401211738586,0.01221671886742115
1768216478928914200,11.0089140625,-0.03316354751586914,0.10490643978118896,-0.03484213724732399
1768216478938915000,11.0189150390625,-0.018074607476592064,0.08071269094944,-0.005848567932844162
1768216478948916000,11.028916015625,-0.0184080358594656,0.0878363773226738,0.009305884130299091
1768216478958915800,11.038915771484374,-0.016016516834497452,0.09655503183603287,0.015426094643771648
1768216478968917200,11.048917236328125,-0.02209198661148548,0.10084192454814911,0.017403224483132362
1768216478978917000,11.058917236328124,-0.024325845763087273,0.09651801735162735,0.020434169098734856
1768216478988918000,11.06891796875,-0.017174193635582924,0.07213810831308365,0.021288510411977768
1768216478998919000,11.0789189453125,-0.014387994073331356,0.043830305337905884,0.019398732110857964
1768216479008919000,11.0889189453125,-0.0129938293248415,0.035896480083465576,0.006767092272639275
1768216479018920000,11.098919921875,-0.008041148073971272,0.026094717904925346,-0.008925317786633968
1768216479028919800,11.108919921875,-0.010970892384648323,0.023242205381393433,-0.018508968874812126
1768216479038921200,11.118921142578126,-0.009095493704080582,0.03248737007379532,-0.025059813633561134
1768216479048922000,11.128922119140626,-0.00968458503484726,0.03946298733353615,-0.021626465022563934
1768216479058922000,11.138921875,-0.01852521486580372,0.05403101071715355,-0.009209743700921535
1768216479068923000,11.1489228515625,-0.017596304416656494,0.05992698296904564,0.0006982808117754757
1768216479078923000,11.158923095703125,-0.011514176614582539,0.05345496907830238,-0.0017893778858706355
1768216479088924000,11.168923828125,-0.011344267055392265,0.042332809418439865,0.0006639260682277381
1768216479098925000,11.178925048828125,-0.010905911214649677,0.031090274453163147,0.006997455842792988
1768216479108925200,11.18892529296875,-0.010969027876853943,0.03259922191500664,0.01587936468422413
1768216479118926000,11.198926025390625,-0.01047234795987606,0.036317262798547745,0.02787184529006481
1768216479128926000,11.208926025390625,-0.010903247632086277,0.043236687779426575,0.03374091908335686
1768216479138927000,11.218927001953125,-0.014258564449846745,0.05217878147959709,0.04321644455194473
1768216479148928000,11.228927978515625,-0.018206700682640076,0.06791859865188599,0.04231523349881172
1768216479158928000,11.238927978515624,-0.020071713253855705,0.0852949246764183,0.03454120084643364
1768216479168929000,11.248928955078124,-0.021877069026231766,0.10905937850475311,0.025534121319651604
1768216479178929200,11.25892919921875,-0.027482224628329277,0.10946337878704071,0.021931929513812065
1768216479188930000,11.268929931640624,-0.028020715340971947,0.10091995447874069,0.010089651681482792
1768216479198931000,11.278930908203124,-0.024020114913582802,0.08988568186759949,0.009770872071385384
1768216479208931000,11.28893115234375,-0.01932309754192829,0.06944192200899124,0.016822656616568565
1768216479218932000,11.298931884765626,-0.017311878502368927,0.04423670470714569,0.023546338081359863
1768216479228931800,11.308931884765625,-0.014064153656363487,0.014849253930151463,0.016629576683044434
1768216479238933000,11.31893310546875,-0.009134909138083458,0.0001728391507640481,0.006880276836454868
1768216479248934100,11.32893408203125,-0.008820655755698681,-0.004227768164128065,-0.004462392535060644
1768216479258934000,11.33893408203125,-0.007165235001593828,0.0019201391842216253,-0.013259612955152988
1768216479268935000,11.348934814453125,-0.005219529382884502,0.014053234830498695,-0.011366371065378189
1768216479278935000,11.35893505859375,-0.0046160570345819,0.01691107265651226,-0.0051622712053358555
1768216479288936000,11.36893603515625,-0.0017598168924450874,0.024893365800380707,-0.001163002452813089
1768216479298937000,11.37893701171875,-0.0044080642983317375,0.01985066942870617,-0.002323608146980405
1768216479308937000,11.38893701171875,-0.005269863177090883,0.016680710017681122,-0.003763312939554453
1768216479318938000,11.398938232421875,-0.0076243639923632145,0.016083894297480583,-0.005598763469606638
1768216479328938000,11.40893798828125,-0.00412390474230051,0.018683671951293945,-0.007576693315058947
1768216479338939400,11.418939453125,-0.003008306724950671,0.02112419344484806,-0.0005387574783526361
1768216479348940300,11.428940185546875,-0.002389654517173767,0.023138342425227165,0.0006681871018372476
1768216479358940400,11.4389404296875,0.0018844527658075094,0.026324814185500145,-0.0007185208378359675
1768216479368941300,11.44894140625,0.004883971065282822,0.024774588644504547,-0.0007099987124092877
1768216479378941200,11.458941162109374,0.00691889226436615,0.024170316755771637,-0.003837881376966834
1768216479388942300,11.4689423828125,0.00577746145427227,0.02557007409632206,-0.0071095749735832214
1768216479398943500,11.478943603515624,0.008318383246660233,0.026687802746891975,-0.006609433330595493
1768216479408943400,11.488943359375,0.008794556371867657,0.030336866155266762,-0.004171042703092098
1768216479418944300,11.4989443359375,0.009623599238693714,0.03689117357134819,0.003725229762494564
1768216479428944400,11.5089443359375,0.010747719556093216,0.049849580973386765,0.009013468399643898
1768216479438945300,11.5189453125,0.009048622101545334,0.06649993360042572,0.010911770164966583
1768216479448946200,11.5289462890625,0.006514891050755978,0.07830598950386047,0.009166067466139793
1768216479458946600,11.538946533203125,0.0026130937039852142,0.0744854211807251,0.010072074830532074
1768216479468947500,11.548947509765625,-0.0019196064677089453,0.06097067520022392,0.01407746970653534
1768216479478947300,11.558947265625,0.0011741877533495426,0.060565341264009476,0.011440407484769821
1768216479488948200,11.5689482421875,-0.0006615291931666434,0.054967112839221954,0.006954578682780266
1768216479498949400,11.578949462890625,-0.002653573639690876,0.04885489121079445,0.000723048229701817
1768216479508949200,11.58894921875,-0.005574794951826334,0.03766268864274025,0.0012191950809210539
1768216479518950400,11.598950439453125,-0.005856025032699108,0.030551783740520477,0.002487658755853772
1768216479528950500,11.608950439453125,-0.002549976808950305,0.026859045028686523,0.000713993504177779
1768216479538951400,11.618951416015625,-0.0034328147303313017,0.019769709557294846,0.0006732470938004553
1768216479548952300,11.628952392578125,-0.003285275539383292,0.019336679950356483,0.0022210762836039066
1768216479558952400,11.638952392578124,-0.00007350324449362233,0.02586968056857586,-0.00042344260145910084
1768216479568953300,11.648953369140624,-0.001050350721925497,0.029807962477207184,-0.0015954998089000583
1768216479578953200,11.658953125,0.0012743226252496243,0.03302719071507454,-0.004560397006571293
1768216479588954400,11.668954345703124,-0.0007784419576637447,0.030482275411486626,-0.006533000618219376
1768216479598955500,11.67895556640625,-0.0005099953268654644,0.029144836589694023,-0.011825500056147575
1768216479608955400,11.688955322265626,-0.001942776027135551,0.028238030150532722,-0.013044695369899273
1768216479618956300,11.698956298828126,-0.0017797905020415783,0.028379444032907486,-0.007798534352332354
1768216479628956400,11.708956298828125,-0.0001102548703784123,0.036247752606868744,-0.006396380253136158
1768216479638957300,11.718957275390625,-0.0018407768802717328,0.04345586523413658,-0.00624165078625083
1768216479648958500,11.72895849609375,-0.0009912285022437572,0.051180362701416016,-0.009535182267427444
1768216479658958300,11.738958251953125,0.003977697342634201,0.060921140015125275,-0.014478807337582111
1768216479668959500,11.74895947265625,0.006259227637201548,0.06759102642536163,-0.014645521529018879
1768216479678959400,11.75895947265625,0.011413242667913437,0.06553427129983902,-0.015414375811815262
1768216479688960300,11.768960205078125,0.01209794171154499,0.06428951025009155,-0.012690761126577854
1768216479698961200,11.778961181640625,0.018064487725496292,0.06861554831266403,-0.010632670484483242
1768216479708961300,11.788961181640625,0.021141504868865013,0.07374373078346252,-0.00367116741836071
1768216479718962400,11.79896240234375,0.018062623217701912,0.08952082693576813,-0.002377936616539955
1768216479728962300,11.80896240234375,0.021103687584400177,0.09304685145616531,-0.00688986387103796
1768216479738963500,11.81896337890625,0.01726154424250126,0.10005363076925278,-0.014399711973965168
1768216479748964400,11.82896435546875,0.017559552565217018,0.09846319258213043,-0.018507370725274086
1768216479758964200,11.838964111328124,0.02046239748597145,0.09616754204034805,-0.018667694181203842
1768216479768965000,11.848965087890624,0.018701249733567238,0.08792585879564285,-0.013342970050871372
1768216479778965200,11.85896533203125,0.017112940549850464,0.08244560658931732,-0.009246229194104671
1768216479788966400,11.86896630859375,0.009207080118358135,0.08128420263528824,-0.010348777286708355
1768216479798967300,11.87896728515625,0.007336209993809462,0.07633178681135178,-0.013816479593515396
1768216479808967400,11.888967529296876,0.0032812808640301228,0.07322601228952408,-0.013843909837305546
1768216479818968300,11.89896826171875,0.0022562299855053425,0.0689801350235939,-0.009402289986610413
1768216479828968200,11.90896826171875,0.0003486077766865492,0.0644863173365593,-0.004372910596430302
1768216479838969300,11.91896923828125,-0.0007451524725183845,0.062000785022974014,-0.002409894485026598
1768216479848970500,11.928970458984375,-0.007128749508410692,0.04117060452699661,-0.003183542750775814
1768216479858970400,11.938970458984375,-0.009123191237449646,0.03771622106432915,-0.003681021276861429
