time,seconds_elapsed,z,y,x
1768216467974514000,0.054513916015625,-0.004314617719501257,-0.028414444997906685,0.008430033922195435
1768216467984515000,0.06451513671875,-0.003987581469118595,-0.029686903581023216,0.012586163356900215
1768216467994515000,0.074514892578125,-0.006953724659979343,-0.03410334140062332,0.00439474917948246
1768216468004516000,0.08451611328125,-0.00846906378865242,-0.03986988961696625,-0.00093077402561903
1768216468014516200,0.09451611328125,-0.00849081575870514,-0.039487045258283615,-0.001550289336591959
1768216468024517000,0.10451708984375,-0.007476417347788811,-0.03868862986564636,-0.00179769704118371
1768216468034518000,0.11451806640625,-0.01082826778292656,-0.03167794272303581,-0.0006331345066428185
1768216468044518000,0.124517822265625,-0.00823914259672165,-0.030137035995721817,0.002765591721981764
1768216468054519000,0.13451904296875,-0.005620953626930714,-0.04101523011922836,0.011572416871786118
1768216468064519000,0.144518798828125,-0.001248043030500412,-0.05043376609683037,0.013240620493888855
1768216468074520000,0.15452001953125,0.000682718469761312,-0.058199916034936905,0.01021627988666296
1768216468084521000,0.16452099609375,0.004859886597841978,-0.0602010153234005,0.001541032688692212
1768216468094521000,0.17452099609375,0.006173649337142706,-0.057052165269851685,-0.008370094932615757
1768216468104522000,0.18452197265625,0.00870524998754263,-0.06753836572170258,-0.01606476679444313
1768216468114521900,0.19452197265625,0.009896838106215,-0.07546892762184143,-0.02757558412849903
1768216468124523000,0.20452294921875,0.011367169208824635,-0.08558335155248642,-0.035898491740226746
1768216468134523000,0.21452294921875,0.012078039348125458,-0.08115260303020477,-0.033156465739011765
1768216468144524000,0.22452392578125,0.011645275168120861,-0.0700986236333847,-0.02608897164463997
1768216468154525000,0.23452490234375,0.007598209194839001,-0.07009603828191757,-0.021718906238675117
1768216468164525000,0.244525146484375,0.00002764130476862192,-0.07227903604507446,-0.013475090265274048
1768216468174526000,0.25452587890625,-0.004546754993498325,-0.06521820276975632,-0.013125693425536156
1768216468184526000,0.264526123046875,-0.011429695412516594,-0.053360745310783386,-0.017999278381466866
1768216468194527000,0.27452685546875,-0.015821805223822594,-0.03592762351036072,-0.01376574207097292
1768216468204526800,0.28452685546875,-0.016006894409656525,-0.022113541141152382,-0.005271590314805508
1768216468214528000,0.294528076171875,-0.011912253685295582,-0.01997677981853485,-0.0006195260211825371
1768216468224529200,0.304529052734375,-0.010804379358887672,-0.028906092047691345,0.005576318129897118
1768216468234529000,0.314529052734375,-0.00876123271882534,-0.03674148768186569,0.004254536237567663
1768216468244530000,0.324530029296875,-0.005310308188199997,-0.03381866589188576,0.004788233898580074
1768216468254530000,0.334530029296875,-0.00271283695474267,-0.03321034088730812,0.0039452421478927135
1768216468264531200,0.34453125,0.001580977812409401,-0.03344789519906044,0.00785103440284729
1768216468274532000,0.354531982421875,0.005667121149599552,-0.02564612776041031,0.008653858676552773
1768216468284532000,0.364531982421875,0.006955558434128761,-0.024878602474927902,0.003137120045721531
1768216468294533000,0.374533203125,0.0047631533816456795,-0.02176968939602375,0.0022842111065983772
1768216468304533000,0.384532958984375,0.0014800084754824638,-0.020119063556194305,0.0009536957368254662
1768216468314534000,0.394533935546875,-0.001037572743371129,-0.016817249357700348,-0.00033353688195347786
1768216468324534000,0.404533935546875,-0.0055937087163329124,-0.012282950803637505,0.001283800695091486
1768216468334535000,0.414534912109375,-0.0052877673879265785,-0.0047329263761639595,0.0013933752197772264
1768216468344535800,0.424535888671875,-0.009133105166256428,0.0024533476680517197,0.006170020904392004
1768216468354536000,0.434535888671875,-0.007566211745142937,-0.002697281539440155,0.007213951088488102
1768216468364536800,0.444536865234375,-0.00878780335187912,-0.005630220752209425,0.0077878618612885475
1768216468374536700,0.45453662109375,-0.00967530906200409,-0.006627759896218777,0.01264485064893961
1768216468384537600,0.46453759765625,-0.011705702170729637,-0.007489026058465242,0.016017211601138115
1768216468394537700,0.474537841796875,-0.011649128049612045,-0.0113945621997118,0.013246983289718628
1768216468404539000,0.484538818359375,-0.013197756372392178,-0.014914462342858315,0.009166487492620945
1768216468414539800,0.494539794921875,-0.012706208974123001,-0.014223948121070862,0.011738534085452557
1768216468424540000,0.504539794921875,-0.010002034716308117,-0.017292441800236702,0.012744409963488579
1768216468434540800,0.514540771484375,-0.009806206449866295,-0.011883949860930443,0.014130521565675735
1768216468444540700,0.524540771484375,-0.007843190804123878,-0.011453050188720226,0.014589117839932442
1768216468454541600,0.53454150390625,-0.00644433731213212,-0.014608524739742279,0.014377595856785774
1768216468464541700,0.544541748046875,-0.006714381743222475,-0.02333410456776619,0.012987959198653698
1768216468474542800,0.55454296875,-0.0049346573650836945,-0.026624038815498352,0.011105830781161785
1768216468484543700,0.564543701171875,-0.0046092187985777855,-0.026694614440202713,0.011457634158432484
1768216468494544000,0.5745439453125,-0.006205819081515074,-0.023736394941806793,0.01365099661052227
1768216468504544800,0.584544677734375,-0.002636916935443878,-0.018765073269605637,0.00997370295226574
1768216468514544600,0.594544677734375,-0.0018184565706178546,-0.017677661031484604,0.007553457282483578
1768216468524545800,0.6045458984375,-0.0022530844435095787,-0.01663023978471756,0.005627725273370743
1768216468534547000,0.614546875,-0.005007215775549412,-0.02324172668159008,0.003390699625015259
1768216468544546800,0.624546875,-0.014212698675692081,-0.051239803433418274,0.02288690209388733
1768216468554547700,0.634547607421875,-0.011163112707436085,-0.0371551439166069,0.008314086124300957
1768216468564547800,0.6445478515625,-0.011150178499519825,-0.03288715332746506,0.0038708760403096676
1768216468574548700,0.654548828125,-0.009225155226886272,-0.031269222497940063,0.0022273382637649775
1768216468584548600,0.664548583984375,-0.0104161212220788,-0.035367295145988464,0.010939070954918861
1768216468594549800,0.6745498046875,-0.006612533703446388,-0.038978856056928635,0.018255682662129402
1768216468604551000,0.684551025390625,-0.005181351210922003,-0.035135384649038315,0.01608147844672203
1768216468614550800,0.69455078125,-0.006313836667686701,-0.02549028769135475,0.014337876811623573
1768216468624551700,0.7045517578125,-0.007138085085898638,-0.01194704882800579,0.015360265038907528
1768216468634551800,0.7145517578125,-0.010527259670197964,-0.0012638000771403313,0.01727692410349846
1768216468644552700,0.724552734375,-0.013609335757791996,-0.004888894967734814,0.01488087885081768
1768216468654553600,0.7345537109375,-0.01320717390626669,-0.005170194897800684,0.011101413518190384
1768216468664554000,0.744553955078125,-0.017184870317578316,-0.005185108631849289,0.010562390089035034
1768216468674555000,0.754554931640625,-0.017156243324279785,-0.0013767946511507034,0.013128222897648811
1768216468684554800,0.7645546875,-0.017213501036167145,-0.0006819760892540216,0.013142869807779789
1768216468694555600,0.7745556640625,-0.016387807205319405,-0.0020710912067443132,0.009726825170218945
1768216468704555800,0.7845556640625,-0.01464902888983488,-0.002767241559922695,0.009392332285642624
1768216468714556700,0.794556640625,-0.016569027677178383,-0.002188884187489748,0.015973620116710663
1768216468724557800,0.804557861328125,-0.013627033680677414,-0.00014890264719724655,0.015564292669296265
1768216468734558000,0.814557861328125,-0.014789256267249584,-0.003444581525400281,0.007856440730392933
1768216468744558800,0.824558837890625,-0.014139178209006786,-0.007741325534880161,0.000042193569242954254
1768216468754558700,0.834558837890625,-0.012328465469181538,-0.011276829987764359,0.0036913114599883556
1768216468764560000,0.844559814453125,-0.01297028735280037,-0.011714121326804161,0.009175559505820274
1768216468774559700,0.854559814453125,-0.009757842868566513,-0.008971411734819412,0.00785178691148758
1768216468784560600,0.864560546875,-0.009954117238521576,-0.010232951492071152,-0.000681780744343996
1768216468794561800,0.874561767578125,-0.00821918249130249,-0.014900928363204002,-0.008642492815852165
1768216468804562000,0.88456201171875,-0.006193848792463541,-0.014773096889257431,-0.00872877985239029
1768216468814562800,0.894562744140625,-0.007370202802121639,-0.007712280377745628,-0.00516442209482193
1768216468824562700,0.904562744140625,-0.006888703443109989,-0.00847101490944624,-0.0033761090599000454
1768216468834563800,0.914563720703125,-0.008130128495395184,-0.01020721159875393,-0.00043882476165890694
1768216468844564700,0.924564697265625,-0.01018475741147995,-0.005617786198854446,0.003477620193734765
1768216468854564600,0.934564697265625,-0.009900938719511032,-0.0004891245625913143,0.0050299642607569695
1768216468864565800,0.944565673828125,-0.009352860040962696,0.0006837313994765282,0.00513835484161973
1768216468874566000,0.95456591796875,-0.007071421016007662,0.0027942275628447533,0.008843978866934776
1768216468884566800,0.96456689453125,-0.0023328582756221294,0.0048387362621724606,0.00841494370251894
1768216468894566700,0.974566650390625,-0.002679456491023302,0.005521934479475021,0.0059355865232646465
1768216468904567800,0.98456787109375,0.0003104743082076311,-0.0014209265355020761,0.004233027808368206
1768216468914568700,0.994568603515625,-0.00025614991318434477,-0.0028915514703840017,0.0013007482048124075
1768216468924568600,1.004568603515625,-0.0004636101657524705,-0.0032191202044487,-0.002685205079615116
1768216468934569700,1.01456982421875,-0.0024807541631162167,-0.00540543906390667,-0.006046452559530735
1768216468944569900,1.02456982421875,-0.0026629148051142693,-0.001117483712732792,-0.0061812084168195724
1768216468954570800,1.03457080078125,-0.004713010508567095,0.0018401355482637882,-0.003101300448179245
1768216468964571600,1.044571533203125,-0.0041548116132617,0.006040473468601704,-0.0029012970626354218
1768216468974571800,1.05457177734375,-0.003353392705321312,0.005644249729812145,-0.0076795280911028385
1768216468984573000,1.064572998046875,-0.0029571144841611385,0.0033936118707060814,-0.011694775894284248
1768216468994572800,1.07457275390625,-0.005227182060480118,0.006209997925907373,-0.009508929215371609
1768216469004573700,1.08457373046875,-0.005253280978649855,0.005831562448292971,-0.002273653633892536
1768216469014573800,1.09457373046875,-0.006097096484154463,0.0027874880470335484,-0.00290047749876976
1768216469024574700,1.10457470703125,-0.008122164756059647,-0.00645447988063097,-0.00646272161975503
1768216469034575600,1.11457568359375,-0.013258331455290318,-0.01278090663254261,-0.005702160764485598
1768216469044575700,1.12457568359375,-0.012736351229250431,-0.018725614994764328,-0.003571099601686001
1768216469054577000,1.134576904296875,-0.017888441681861877,-0.019984273239970207,0.0034810614306479692
1768216469064576800,1.14457666015625,-0.024919187650084496,-0.02499421127140522,0.014511874876916409
1768216469074578000,1.154577880859375,-0.0282927043735981,-0.007250428199768066,0.020316869020462036
1768216469084578800,1.164578857421875,-0.034721311181783676,0.0045987749472260475,0.03319458290934563
1768216469094578700,1.17457861328125,-0.03061986342072487,0.014278506860136986,0.021098606288433075
1768216469104579600,1.18457958984375,-0.024295922368764877,0.01244252361357212,0.005642419680953026
1768216469114579700,1.194579833984375,-0.017441509291529655,0.007416230626404285,-0.001666148193180561
1768216469124580900,1.204580810546875,-0.014087524265050888,0.0019684680737555027,-0.0042574042454361916
1768216469134580700,1.214580810546875,-0.00654807360842824,-0.0016425782814621925,-0.010452737100422382
1768216469144582000,1.224581787109375,-0.005202378146350384,-0.005702300928533077,-0.01404480915516615
1768216469154582800,1.234582763671875,-0.0006861765868961811,-0.00516077596694231,-0.011949265375733376
1768216469164582700,1.244582763671875,0.003071543760597706,-0.0027572731487452984,-0.008827241137623787
1768216469174583600,1.25458349609375,0.005040339194238186,0.0011970209889113903,-0.011225657537579536
1768216469184583700,1.264583740234375,0.003441909793764353,0.0031043766066432,-0.012827282771468163
1768216469194584800,1.274584716796875,0.005281415767967701,0.0047805216163396835,-0.007329876534640789
1768216469204585700,1.284585693359375,-0.0010252160718664527,0.0035277707502245903,-0.0047684479504823685
1768216469214585900,1.2945859375,-0.0025280131958425045,0.0014799954369664192,-0.0032559456303715706
1768216469224586800,1.304586669921875,-0.005905966740101576,-0.003476679790765047,-0.004828808829188347
1768216469234586600,1.314586669921875,-0.006556341424584389,-0.008753309957683086,-0.008521336130797863
1768216469244587800,1.324587890625,-0.008609372191131115,-0.014690028503537178,-0.007824387401342392
1768216469254587600,1.334587646484375,-0.007964414544403553,-0.020045330747961998,-0.00799041148275137
1768216469264588800,1.3445888671875,-0.00502694770693779,-0.022718612104654312,-0.00021691108122467995
1768216469274589700,1.354589599609375,-0.0028661927208304405,-0.019062364473938942,0.0025779535062611103
1768216469284589800,1.36458984375,-0.0020986697636544704,-0.018058085814118385,0.008163134567439556
1768216469294590700,1.3745908203125,-0.0033308411948382854,-0.016716063022613525,0.006998015101999044
1768216469304590600,1.384590576171875,-0.005390529986470938,-0.011308249086141586,0.0051154266111552715
1768216469314592000,1.394592041015625,-0.005094350315630436,-0.010736712254583836,-0.0013291402719914913
1768216469324593000,1.404593017578125,-0.004323098808526993,-0.011389186605811119,-0.003538232296705246
1768216469334592500,1.414592529296875,-0.0036681676283478737,-0.01094022672623396,-0.0058729154989123344
1768216469344593400,1.424593505859375,-0.00042523618321865797,-0.00563574256375432,-0.007014879025518894
1768216469354593500,1.434593505859375,0.0002510974882170558,0.006297271698713303,-0.006774958688765764
1768216469364594700,1.4445947265625,0.0023169114720076323,0.006756667047739029,-0.007660991977900267
1768216469374594800,1.4545947265625,0.0006312759360298514,0.006329328287392855,-0.009210638701915741
1768216469384595700,1.464595703125,0.0002682870253920555,0.006126128602772951,-0.012592053972184658
1768216469394596600,1.4745966796875,-0.0021871835924685,0.008355706930160522,-0.013153730891644955
1768216469404596500,1.484596435546875,-0.0034527177922427654,0.0030166013166308403,-0.014107142575085163
1768216469414597600,1.49459765625,-0.004647356923669577,-0.010645909234881401,-0.013337874785065651
1768216469424597500,1.504597412109375,-0.0027969926595687866,-0.017470791935920715,-0.009715176187455654
1768216469434598700,1.5145986328125,0.00010665762238204479,-0.02071780525147915,-0.008949555456638336
1768216469444599600,1.524599609375,-0.0030846083536744118,-0.01148862112313509,-0.009430788457393646
1768216469454599700,1.534599609375,-0.0012755641946569085,-0.0028548543341457844,-0.008009972050786018
1768216469464600600,1.5446005859375,-0.002797294408082962,0.0033148908987641335,-0.011438524350523949
1768216469474600400,1.554600341796875,-0.007072582375258207,0.007440405897796154,-0.011465148068964481
1768216469484601600,1.5646015625,-0.005896530579775572,0.009393834508955479,-0.006773723289370537
1768216469494602800,1.574602783203125,-0.004864846356213093,0.0019133510068058968,-0.0022685471922159195
1768216469504602600,1.5846025390625,-0.004493867978453636,-0.005520862992852926,0.005136372055858374
1768216469514603500,1.594603515625,-0.001978258602321148,-0.001508117187768221,0.004558563232421875
1768216469524603600,1.604603759765625,-0.00033934926614165306,-0.0026974850334227085,0.007253149524331093
1768216469534604500,1.6146044921875,0.0020813005976378918,-0.0042211804538965225,0.012499911710619926
1768216469544604400,1.6246044921875,0.0022256439551711082,-0.0007004814688116312,0.016923688352108
1768216469554605600,1.63460546875,0.008257413282990456,-0.0030043120495975018,0.017181655392050743
1768216469564606700,1.644606689453125,0.007285092957317829,-0.005294364411383867,0.013320337980985641
1768216469574606600,1.654606689453125,0.006094539072364569,0.0001779971644282341,0.007612165063619614
1768216469584607500,1.664607421875,0.0059190369211137295,0.005690740421414375,0.00476471334695816
1768216469594607600,1.674607666015625,0.005157191306352615,0.01279380451887846,0.004596338141709566
1768216469604608500,1.6846083984375,0.00414918502792716,0.017662595957517624,0.0066573587246239185
1768216469614609700,1.694609619140625,0.0027208165265619755,0.02198624797165394,0.006196107715368271
1768216469624609800,1.70460986328125,0.0034529194235801697,0.02801244705915451,0.009293098002672195
1768216469634610700,1.714610595703125,0.005768392700701952,0.031896837055683136,0.0052743409760296345
1768216469644610600,1.724610595703125,0.002944376552477479,0.029926899820566177,0.0012103572953492403
1768216469654611700,1.73461181640625,-0.0003018956631422043,0.017281845211982727,0.004460166208446026
1768216469664611600,1.744611572265625,-0.0008853942854329944,0.005074979271739721,0.009407520294189453
1768216469674612500,1.754612548828125,-0.0012992435367777944,-0.014065779745578766,0.0017761944327503443
1768216469684613600,1.764613525390625,-0.0034108636900782585,0.0011584465391933918,0.014547649770975113
1768216469694613800,1.77461376953125,-0.004231014288961887,0.0023077651858329773,0.013004947453737259
1768216469704614700,1.78461474609375,-0.002152949571609497,0.008349145762622356,0.0064615607261657715
1768216469714614500,1.794614501953125,-0.001083503128029406,0.004167482256889343,0.0000598798505961895
1768216469724615700,1.80461572265625,-0.002302964683622122,0.005944876000285149,-0.0014405450783669949
1768216469734616600,1.814616455078125,0.0005658165900968015,0.007082508876919746,0.0031151515431702137
1768216469744616400,1.824616455078125,0.0004928460111841559,-0.005419700872153044,0.0007920761127024889
1768216469754617600,1.83461767578125,0.0012025603791698813,-0.015426014550030231,0.0013336315751075745
1768216469764617700,1.84461767578125,0.002298983745276928,-0.01778317801654339,0.005627445876598358
1768216469774618600,1.85461865234375,0.002874565776437521,-0.01866915449500084,0.005443700589239597
1768216469784619500,1.86461962890625,-0.0009361513657495379,-0.013995307497680187,0.010685866698622704
1768216469794619600,1.87461962890625,0.0008244946948252618,-0.010987691581249237,0.011697124689817429
1768216469804620500,1.88462060546875,-0.0002503570867702365,-0.015022646635770798,0.012379959225654602
1768216469814620400,1.894620361328125,0.0002992341760545969,-0.015722405165433884,0.009318718686699867
1768216469824621600,1.90462158203125,-0.0029285168275237083,-0.016618825495243073,0.006980197504162788
1768216469834621700,1.91462158203125,-0.0021773106418550014,-0.016852429136633873,0.007695221807807684
1768216469844622600,1.92462255859375,0.0007646834128536284,-0.014085937291383743,0.009673683904111385
1768216469854623500,1.93462353515625,0.002519457135349512,-0.01640181615948677,0.007038106210529804
1768216469864623600,1.94462353515625,0.003081117756664753,-0.017258822917938232,0.006074042059481144
1768216469874624500,1.95462451171875,0.004138986114412546,-0.01140977069735527,0.009108822792768478
1768216469884624600,1.964624755859375,0.003551226109266281,-0.01351979374885559,0.012745901942253113
1768216469894625500,1.97462548828125,-0.0014167914632707834,-0.013813195750117302,0.01379468571394682
1768216469904626700,1.984626708984375,-0.0013203851412981749,-0.018111005425453186,0.011410890147089958
1768216469914626600,1.99462646484375,-0.0007201934931799769,-0.018972152844071388,0.010163528844714165
1768216469924627500,2.00462744140625,-0.0029412698931992054,-0.01898493617773056,0.007863888517022133
1768216469934627600,2.014627685546875,-0.004042432177811861,-0.018619246780872345,0.009707743301987648
1768216469944628700,2.024628662109375,-0.004550030454993248,-0.013637802563607693,0.011012958362698555
1768216469954628600,2.034628662109375,-0.00510724913328886,-0.010444020852446556,0.0074622295796871185
1768216469964629800,2.044629638671875,-0.0028731231577694416,-0.01536660734564066,0.003803045954555273
1768216469974630700,2.054630615234375,-0.0039057335816323757,-0.018799588084220886,0.0016466162633150816
1768216469984630500,2.064630615234375,-0.0037115891464054585,-0.018894929438829422,0.002452222630381584
1768216469994631400,2.07463134765625,-0.002722412347793579,-0.017681624740362167,0.0029363599605858326
1768216470004631600,2.084631591796875,-0.0028068344108760357,-0.018873654305934906,0.0017459269147366285
1768216470014632700,2.0946328125,0.0008114568190649152,-0.013337040320038795,0.005780037492513657
1768216470024633600,2.104633544921875,0.0011227803770452738,-0.012156195938587189,0.008138000033795834
1768216470034633700,2.1146337890625,0.000930379203055054,-0.01077551394701004,0.007412867620587349
1768216470044634600,2.124634521484375,0.0006920262821950018,-0.011144895106554031,0.00427246792241931
1768216470054634500,2.134634521484375,-0.0011878503719344735,-0.01473470963537693,0.003991690929979086
1768216470064635400,2.144635498046875,-0.001480798120610416,-0.01917819306254387,0.005903307814151049
1768216470074636800,2.15463671875,-0.004006086383014917,-0.021787527948617935,0.00596059113740921
1768216470084636700,2.16463671875,-0.001678483677096665,-0.020321989431977272,0.009409651160240173
1768216470094637600,2.174637451171875,-0.0042475746013224125,-0.018534526228904724,0.0029928740113973618
1768216470104637700,2.1846376953125,-0.0006839988054707646,-0.01760694570839405,-0.006860289257019758
1768216470114638600,2.194638671875,0.0008167469059117138,-0.015789300203323364,-0.009395736269652843
1768216470124638500,2.204638427734375,0.00038851064164191484,-0.01617545820772648,-0.002655276097357273
1768216470134639600,2.2146396484375,0.002143243094906211,-0.014234211295843124,0.00016438588500022888
1768216470144640800,2.224640869140625,0.0005778370541520417,-0.015523446723818779,-0.0018052877858281136
1768216470154640600,2.234640625,-0.0016705243615433574,-0.010444700717926025,-0.0007887128740549088
1768216470164641500,2.2446416015625,-0.004450065549463034,-0.004331946838647127,-0.0046569546684622765
1768216470174641700,2.2546416015625,-0.004554987885057926,-0.0018371858168393373,-0.004590413998812437
1768216470184642600,2.264642578125,-0.004573363810777664,-0.0027626343071460724,0.00028183916583657265
1768216470194643500,2.2746435546875,-0.0026143728755414486,0.00203600712120533,0.006885358598083258
1768216470204643600,2.2846435546875,0.00047116552013903856,0.009223345667123795,0.008889920078217983
1768216470214644700,2.294644775390625,0.00025352463126182556,0.016686636954545975,0.010171324014663696
1768216470224644600,2.30464453125,0.0007241051644086838,0.01497742161154747,0.006622927729040384
1768216470234645500,2.3146455078125,0.0021858536638319492,0.010187508538365364,0.0038296945858746767
1768216470244646700,2.324646728515625,0.0004960780497640371,0.0012933500111103058,-0.00027370406314730644
1768216470254646500,2.334646484375,-0.00022818672005087137,0.004012427758425474,-0.0014697383157908916
1768216470264647400,2.3446474609375,-0.0036697895266115665,0.013876242563128471,-0.0009810482151806355
1768216470274647800,2.354647705078125,-0.004598427563905716,0.018994484096765518,-0.0015603243373334408
1768216470284648700,2.364648681640625,-0.003014646004885435,0.0226289015263319,0.0018176292069256306
1768216470294649600,2.374649658203125,-0.0034793131053447723,0.02210056781768799,0.0037448410876095295
1768216470304649500,2.3846494140625,-0.0023717046715319157,0.02296476438641548,0.0020793001167476177
1768216470314650600,2.394650634765625,0.0003208303824067116,0.02846735715866089,0.003551470348611474
1768216470324650500,2.404650390625,0.0010012680431827903,0.03171774372458458,0.004008202347904444
1768216470334652400,2.41465234375,0.00036826496943831444,0.017333319410681725,-0.002079995349049568
1768216470344652300,2.42465234375,0.003128897864371538,0.003488610964268446,-0.008568787947297096
1768216470354653400,2.4346533203125,0.002915329998359084,-0.003922164905816317,-0.00911192037165165
1768216470364654300,2.444654296875,0.003969675395637751,-0.006952309049665928,-0.008649596013128757
1768216470374654200,2.454654296875,0.0014317616587504745,-0.004846045281738043,-0.006206968799233437
1768216470384655400,2.4646552734375,-0.0018907982157543302,-0.006301462650299072,-0.0027424627915024757
1768216470394655500,2.474655517578125,-0.0029406766407191753,-0.004535472020506859,-0.004132742993533611
1768216470404656400,2.484656494140625,-0.002001380082219839,-0.0011604479514062405,-0.006374059244990349
1768216470414657300,2.4946572265625,-0.00044952554162591696,0.0046879625879228115,-0.00591673981398344
1768216470424657400,2.504657470703125,-0.0018500818405300379,0.008994027972221375,-0.004037080332636833
1768216470434658300,2.514658203125,0.0021830694749951363,0.0056405263021588326,-0.005415689200162888
1768216470444658200,2.524658203125,0.0017742743948474526,0.004817076958715916,0.0015615266747772694
1768216470454659600,2.53465966796875,0.001195829943753779,0.005286413710564375,0.0007761986926198006
1768216470464660500,2.544660400390625,-0.0004958099452778697,0.0017984714359045029,-0.00286753848195076
1768216470474660400,2.554660400390625,0.0019179281080141664,-0.0019209100864827633,-0.0007085222750902176
1768216470484661200,2.5646611328125,-0.0007654729997739196,-0.00394464610144496,0.0033197752200067043
1768216470494661400,2.574661376953125,0.000013465294614434242,0.0006322255358099937,0.001306428574025631
1768216470504662300,2.584662353515625,0.0007857819437049329,0.0038791517727077007,0.003526972373947501
1768216470514662400,2.594662353515625,-0.0007654248038306832,0.00433336803689599,0.005662231706082821
1768216470524663600,2.60466357421875,0.00020503101404756308,0.006704113911837339,0.0006674730684608221
1768216470534664400,2.61466455078125,-0.0012441702419891953,0.0027110297232866287,-0.008317867293953896
1768216470544664300,2.624664306640625,0.00036411278415471315,-0.0032938658259809017,-0.007474977057427168
1768216470554665200,2.634665283203125,0.002391244051977992,-0.004648477770388126,-0.009175742976367474
1768216470564665300,2.644665283203125,0.002873276127502322,-0.01017160713672638,-0.009193319827318192
1768216470574666500,2.65466650390625,0.0015974101843312383,-0.010041605681180954,-0.006025607697665691
1768216470584667400,2.66466748046875,-0.0015752135077491403,-0.007953954860568047,-0.00032750843092799187
1768216470594667500,2.67466748046875,-0.0007988355355337262,-0.002788091544061899,0.006520349532365799
1768216470604668400,2.68466845703125,0.0003780154511332512,-0.005307974759489298,0.006176002789288759
1768216470614668300,2.694668212890625,-0.0015331716276705265,-0.003740854561328888,0.0022413600236177444
1768216470624669400,2.70466943359375,-0.0035563751589506865,0.0031348946504294872,-0.0006987699307501316
1768216470634670600,2.714670654296875,-0.000590019510127604,0.0018270965665578842,-0.002810741774737835
1768216470644670500,2.72467041015625,-0.0005149183562025428,0.0006332015618681908,-0.0028743911534547806
1768216470654671400,2.73467138671875,-0.0012620438355952501,0.005857712123543024,-0.0031721629202365875
1768216470664671500,2.74467138671875,0.00016807368956506252,0.008120600134134293,-0.0005678576417267323
1768216470674672400,2.75467236328125,-0.0019185858545824885,0.008258512243628502,-0.0016427421942353249
1768216470684673300,2.76467333984375,-0.0022032777778804302,0.0034935837611556053,0.0010952537413686514
1768216470694673400,2.77467333984375,-0.003323966171592474,0.006112694274634123,0.004484870005398989
1768216470704674600,2.784674560546875,-0.00250291358679533,0.005404559429734945,-0.0006995052099227905
1768216470714674400,2.79467431640625,-0.0016591938911005855,0.005118112545460463,-0.0009396676905453205
1768216470724675300,2.80467529296875,-0.0002692901762202382,0.006505086552351713,-0.001319168135523796
1768216470734676500,2.814676513671875,0.001545423991046846,0.0017425762489438057,0.0024915658868849277
1768216470744676400,2.82467626953125,0.0027134865522384644,-0.0006614592857658863,0.005910532083362341
1768216470754677200,2.83467724609375,-0.0018400405533611774,0.0021468051709234715,0.005649660248309374
1768216470764677400,2.844677490234375,-0.0016701307613402605,0.004935401026159525,0.0005196130368858576
1768216470774678500,2.854678466796875,-0.003885493613779545,0.011547131463885307,-0.006718372460454702
1768216470784678400,2.864678466796875,-0.00435181288048625,0.01318737305700779,-0.011071575805544853
1768216470794679300,2.87467919921875,-0.004624968394637108,0.015471980907022953,-0.012363271787762642
1768216470804680400,2.884680419921875,-0.00355544313788414,0.019048605114221573,-0.009998118504881859
1768216470814680300,2.894680419921875,-0.003757165279239416,0.018542170524597168,-0.007371129468083382
1768216470824681200,2.90468115234375,-0.0025933641009032726,0.01934138685464859,-0.003921537660062313
1768216470834681600,2.914681640625,-0.001190737821161747,0.013347191736102104,-0.0015026982873678207
1768216470844682500,2.9246826171875,-0.004415026865899563,0.007780386134982109,-0.004437768366187811
1768216470854683400,2.934683349609375,-0.00317691033706069,0.0014783707447350025,-0.009434201754629612
1768216470864683300,2.944683349609375,-0.006207321770489216,0.005725580267608166,-0.014053987339138985
1768216470874684400,2.954684326171875,-0.007133484352380037,0.006947852671146393,-0.012994645163416862
1768216470884684300,2.964684326171875,-0.0055220057256519794,0.01276472955942154,-0.0077791097573935986
1768216470894685400,2.974685546875,-0.006253594532608986,0.0193315502256155,-0.009534018114209175
1768216470904686300,2.984686279296875,-0.004550236742943525,0.0262371264398098,-0.012563098222017288
1768216470914686500,2.9946865234375,-0.002420010045170784,0.025981690734624863,-0.01239025592803955
1768216470924687400,3.004687255859375,0.00027271208819001913,0.023759551346302032,-0.013320231810212135
1768216470934687500,3.0146875,-0.00037150655407458544,0.022030889987945557,-0.015359681099653244
1768216470944688400,3.0246884765625,0.00040187546983361244,0.018482763320207596,-0.01455194316804409
1768216470954689500,3.034689453125,-0.0019988862331956625,0.01693011075258255,-0.013599354773759842
1768216470964689400,3.044689453125,-0.00224762549623847,0.013885051012039185,-0.012951940298080444
1768216470974690600,3.054690673828125,-0.0017621975857764482,0.012052401900291443,-0.016510261222720146
1768216470984690400,3.0646904296875,-0.0010737704578787088,0.0072738914750516415,-0.02418122999370098
1768216470994691300,3.07469140625,0.00047456694301217794,0.0050664679147303104,-0.027264732867479324
1768216471004691500,3.08469140625,0.0017669990193098783,0.006355703342705965,-0.029837612062692642
1768216471014692400,3.0946923828125,0.0008943055290728807,0.004184891004115343,-0.0299573615193367
1768216471024693500,3.104693603515625,-0.00030438322573900223,0.001852761022746563,-0.02814694494009018
1768216471034693400,3.114693359375,-0.0004578963853418827,0.004010464530438185,-0.02589230425655842
1768216471044694500,3.124694580078125,-0.0012973247794434428,0.00632981164380908,-0.022921547293663025
1768216471054694400,3.1346943359375,0.0031977160833775997,0.002903576474636793,-0.02620685286819935
1768216471064695300,3.1446953125,0.002799839712679386,0.0018236646428704262,-0.028061479330062866
1768216471074696200,3.1546962890625,0.00393435824662447,0.004041651729494333,-0.026496168226003647
1768216471084696300,3.1646962890625,0.003704527858644724,0.009441478177905083,-0.024143531918525696
1768216471094697500,3.174697509765625,0.003847962711006403,0.010999348945915699,-0.02598167583346367
1768216471104697300,3.184697265625,0.003176313592121005,0.008489053696393967,-0.024386176839470863
1768216471114698500,3.194698486328125,0.004051779396831989,0.005801538471132517,-0.02909071370959282
1768216471124699400,3.204699462890625,0.003623809665441513,0.006761341821402311,-0.030087534338235855
1768216471134699300,3.21469921875,0.0016099875792860985,0.009160269051790237,-0.02841043472290039
1768216471144700400,3.224700439453125,0.0021519409492611885,0.015103379264473915,-0.02520877867937088
1768216471154700300,3.2347001953125,-0.0004147167783230543,0.022199608385562897,-0.01683700643479824
1768216471164701400,3.244701416015625,-0.002490384504199028,0.02449898235499859,-0.01592061296105385
1768216471174702300,3.254702392578125,-0.004297296516597271,0.026690978556871414,-0.025093380361795425
1768216471184702500,3.264702392578125,-0.006425162311643362,0.034093767404556274,-0.021788397803902626
1768216471194703400,3.274703369140625,-0.005151179153472185,0.04471359774470329,-0.01829780451953411
1768216471204703200,3.284703125,-0.0009087633807212114,0.04474635422229767,-0.01593824476003647
1768216471214704400,3.294704345703125,-0.003803395666182041,0.04093889892101288,-0.022679481655359268
1768216471224704500,3.30470458984375,-0.000347943976521492,0.03903846815228462,-0.02655598148703575
1768216471234705400,3.314705322265625,0.002965077292174101,0.030104737728834152,-0.025643108412623405
1768216471244706300,3.324706298828125,0.003015410853549838,0.017487745732069016,-0.029905498027801514
1768216471254706400,3.33470654296875,0.007271535228937864,0.011685347184538841,-0.033841222524642944
1768216471264707300,3.344707275390625,0.009892884641885757,0.012731170281767845,-0.031382590532302856
1768216471274707200,3.354707275390625,0.008943038061261177,0.011756869964301586,-0.029764099046587944
1768216471284708600,3.36470849609375,0.006213564425706863,0.0009582852944731712,-0.026218634098768234
1768216471294709500,3.37470947265625,0.0037184185348451138,-0.00043012876994907856,-0.0240950845181942
1768216471304709400,3.38470947265625,0.0008576507098041475,0.0005248808301985264,-0.022930217906832695
1768216471314710300,3.394710205078125,-0.0001474739983677864,0.002052074298262596,-0.023774094879627228
1768216471324710400,3.40471044921875,-0.0018873170483857393,-0.0033131297677755356,-0.02209550328552723
1768216471334710800,3.414710693359375,-0.0011000024387612939,-0.005146834068000317,-0.022781331092119217
1768216471344711700,3.424711669921875,-0.0008696388686075807,-0.0026682300958782434,-0.02405405417084694
1768216471354712000,3.434712158203125,-0.0001886870013549924,-0.0043497513979673386,-0.02431892603635788
1768216471364713000,3.444712890625,-0.001508283312432468,-0.009792719967663288,-0.02233140915632248
1768216471374712800,3.454712890625,0.0007086588302627206,-0.016090216115117073,-0.01675962656736374
1768216471384714000,3.4647138671875,0.0008388874121010303,-0.02137898840010166,-0.013732410967350006
1768216471394715000,3.47471484375,-0.00064714381005615,-0.02855931594967842,-0.009886085987091064
1768216471404714800,3.48471484375,-0.0012189244152978063,-0.03842206671833992,-0.013543670997023582
1768216471414716000,3.4947158203125,-0.002181869000196457,-0.04656996577978134,-0.018314575776457787
1768216471424716000,3.504716064453125,-0.005795512814074755,-0.04807864874601364,-0.01900113746523857
1768216471434717000,3.514717041015625,-0.006498883478343487,-0.04256734624505043,-0.01725975051522255
1768216471444717800,3.5247177734375,-0.006421651691198349,-0.03486574813723564,-0.014392060227692127
1768216471454718000,3.534718017578125,-0.007314707152545452,-0.03202785551548004,-0.014528807252645493
1768216471464718800,3.54471875,-0.006126404739916325,-0.031455542892217636,-0.011779624968767166
1768216471474718700,3.55471875,-0.004402364604175091,-0.03623730689287186,-0.011513740755617619
1768216471484719900,3.564719970703125,-0.00515044666826725,-0.035935837775468826,-0.012538258917629719
1768216471494720000,3.574719970703125,-0.005280082114040852,-0.028462789952754974,-0.010162608698010445
1768216471504721000,3.584720947265625,-0.004243579693138599,-0.015952857211232185,-0.009182833135128021
1768216471514721800,3.5947216796875,-0.002808426506817341,0.0005476255901157856,-0.011412790045142174
1768216471524722000,3.604721923828125,-0.001987107563763857,0.005188982933759689,-0.007033754605799913
1768216471534722800,3.614722900390625,-0.0031487541273236275,0.006220088806003332,-0.004277023021131754
1768216471544722700,3.62472265625,-0.0008776105241850019,0.007598541211336851,-0.0009137173183262348
1768216471554724000,3.63472412109375,-0.0036574900150299072,0.011446483433246613,-0.0009395633824169636
1768216471564725000,3.64472509765625,-0.007363278418779373,0.013011090457439423,-0.002518019173294306
1768216471574724900,3.654724853515625,-0.01206609420478344,0.012978817336261272,-0.0038534849882125854
1768216471584725800,3.664725830078125,-0.013383826240897179,0.012890932150185108,-0.003179172519594431
1768216471594726000,3.674725830078125,-0.01427706889808178,0.010667460039258003,-0.0015321578830480576
1768216471604726800,3.684726806640625,-0.012122039683163166,0.010212858207523823,-0.0008924668654799461
1768216471614728000,3.69472802734375,-0.008466197177767754,0.0046502151526510715,-0.0017074402421712875
1768216471624728000,3.70472802734375,-0.0087471604347229,0.0020062290132045746,-0.0035218517296016216
1768216471634729000,3.71472900390625,-0.01137994322925806,0.0012808018364012241,-0.010347669012844563
1768216471644728800,3.724728759765625,-0.008862723596394062,0.008325927890837193,-0.015575987286865711
1768216471654729700,3.734729736328125,-0.008813509717583656,0.014810420572757721,-0.022272387519478798
1768216471664731000,3.74473095703125,-0.010153079405426979,0.013741960749030113,-0.022663338109850883
1768216471674730800,3.754730712890625,-0.012282300740480423,0.0200960673391819,-0.027611052617430687
1768216471684732000,3.76473193359375,-0.013180319219827652,0.026505496352910995,-0.03291846811771393
1768216471694732000,3.77473193359375,-0.015830587595701218,0.03243430331349373,-0.037647146731615067
1768216471704733000,3.78473291015625,-0.016891857609152794,0.032290492206811905,-0.04085066169500351
1768216471714733800,3.79473388671875,-0.016861075535416603,0.034674208611249924,-0.045357562601566315
1768216471724734000,3.80473388671875,-0.016099676489830017,0.04019547626376152,-0.04821380227804184
1768216471734735000,3.814735107421875,-0.01574687287211418,0.04732516035437584,-0.05349332094192505
1768216471744735000,3.82473486328125,-0.015276292338967323,0.054578810930252075,-0.05879461392760277
1768216471754735900,3.83473583984375,-0.012448537163436413,0.052820686250925064,-0.06613249331712723
1768216471764736000,3.844736083984375,-0.013690102845430374,0.055583979934453964,-0.0716782659292221
1768216471774737000,3.85473681640625,-0.012223735451698303,0.05431775376200676,-0.07668494433164597
1768216471784737800,3.86473779296875,-0.009691602550446987,0.04583185911178589,-0.08188103884458542
1768216471794738000,3.874738037109375,-0.008569769561290741,0.04560903087258339,-0.08669734001159668
1768216471804739000,3.884739013671875,-0.008794007822871208,0.05071883648633957,-0.0842437744140625
1768216471814739000,3.894739013671875,-0.0051241060718894005,0.05038128048181534,-0.08446952700614929
1768216471824739800,3.90473974609375,-0.004359512589871883,0.053843386471271515,-0.0844801813364029
1768216471834741000,3.914740966796875,-0.00573559757322073,0.0492117740213871,-0.0838027372956276
1768216471844740900,3.924740966796875,-0.008009404875338078,0.0541016049683094,-0.079244464635849
1768216471854741800,3.93474169921875,-0.008412722498178482,0.05803883075714111,-0.07903220504522324
1768216471864742000,3.944741943359375,-0.008736828342080116,0.05917626991868019,-0.08580249547958374
1768216471874743000,3.954742919921875,-0.008475953713059425,0.06075366958975792,-0.08907604217529297
1768216471884744000,3.964743896484375,-0.00920113269239664,0.06914635002613068,-0.08383067697286606
1768216471894743800,3.974743896484375,-0.007877875119447708,0.0677398070693016,-0.08271994441747665
1768216471904745000,3.984744873046875,-0.004104175139218569,0.0602123886346817,-0.08463875204324722
1768216471914744800,3.994744873046875,-0.006036111153662205,0.053864769637584686,-0.08748165518045425
1768216471924745700,4.004745849609375,-0.00259983423165977,0.04819836467504501,-0.08950592577457428
1768216471934747000,4.014746826171875,-0.0039306581020355225,0.04760827496647835,-0.09195894002914429
1768216471944747000,4.0247470703125,-0.003522395621985197,0.048798441886901855,-0.09884560853242874
1768216471954748000,4.034747802734375,-0.000667323125526309,0.052623920142650604,-0.10296134650707245
1768216471964748000,4.044748046875,0.0028722842689603567,0.05165213346481323,-0.1104472279548645
1768216471974749000,4.0547490234375,0.0018595014698803425,0.05827222019433975,-0.12035749107599258
1768216471984748800,4.064748779296875,0.004909353330731392,0.06340919435024261,-0.129339799284935
1768216471994749700,4.074749755859375,0.004030449781566858,0.06339779496192932,-0.12595930695533752
1768216472004750800,4.084750732421875,0.006597470957785845,0.060938626527786255,-0.1299830675125122
1768216472014751000,4.0947509765625,0.001364329131320119,0.054902199655771255,-0.1358005255460739
1768216472024751900,4.104751953125,0.0035654318053275347,0.05372561514377594,-0.13950498402118683
1768216472034752000,4.114751953125,0.00003526045475155115,0.06279020756483078,-0.1379060447216034
1768216472044753000,4.1247529296875,-0.0005527654429897666,0.05754724144935608,-0.1397329717874527
1768216472054753800,4.13475390625,-0.0007759140571579337,0.05733651667833328,-0.13934670388698578
1768216472064754000,4.14475390625,0.009620267897844315,0.08313535898923874,-0.13728249073028564
1768216472074755000,4.154755126953125,0.024094589054584503,0.1311805695295334,-0.1366468220949173
1768216472084755000,4.1647548828125,0.029100000858306885,0.1557125449180603,-0.12533344328403473
1768216472094755800,4.174755859375,0.02910926751792431,0.16531667113304138,-0.11802002042531967
1768216472104756700,4.1847568359375,0.03482893854379654,0.18509116768836975,-0.12337138503789902
1768216472114756900,4.1947568359375,0.03727652132511139,0.21035145223140717,-0.13341645896434784
1768216472124758000,4.204758056640625,0.03618329390883446,0.22116334736347198,-0.1271151602268219
1768216472134758000,4.2147578125,0.04600059986114502,0.24225404858589172,-0.11050672084093094
1768216472144759000,4.224759033203125,0.059455420821905136,0.26217663288116455,-0.10060162842273712
1768216472154760000,4.234760009765625,0.06536717712879181,0.2663329839706421,-0.09395866841077805
1768216472164759800,4.244759765625,0.08188597112894058,0.26761555671691895,-0.098408542573452
1768216472174760700,4.2547607421875,0.08141022175550461,0.27837660908699036,-0.09812703728675842
1768216472184760800,4.2647607421875,0.07892175763845444,0.2868662178516388,-0.10168395191431046
1768216472194762000,4.274761962890625,0.071930430829525,0.2962522506713867,-0.11328814923763275
1768216472204763000,4.284762939453125,0.06892132759094238,0.3024345338344574,-0.11913138628005981
1768216472214763000,4.294762939453125,0.07256321609020233,0.3153987228870392,-0.12844011187553406
1768216472224764000,4.304763916015625,0.06841561198234558,0.33598044514656067,-0.13663466274738312
1768216472234763800,4.314763671875,0.06726338714361191,0.36372748017311096,-0.13404615223407745
1768216472244765000,4.324764892578125,0.07431943714618683,0.37584006786346436,-0.1308857798576355
1768216472254764800,4.334764892578125,0.07377573102712631,0.3801940381526947,-0.12445957958698273
1768216472264766000,4.344765869140625,0.07312512397766113,0.3887054920196533,-0.11710978299379349
1768216472274766800,4.354766845703125,0.06355714052915573,0.409449964761734,-0.11063480377197266
1768216472284767000,4.36476708984375,0.06741952151060104,0.42532721161842346,-0.11641678959131241
1768216472294767900,4.374767822265625,0.07981418818235397,0.4354029595851898,-0.13156382739543915
1768216472304767700,4.384767822265625,0.09992983937263489,0.4411175847053528,-0.1322498470544815
1768216472314769000,4.394768798828125,0.11506084352731705,0.47279465198516846,-0.1453147530555725
1768216472324770000,4.40477001953125,0.1369866579771042,0.5218945741653442,-0.15512210130691528
1768216472334770200,4.414770263671875,0.15094782412052155,0.5484194159507751,-0.156646728515625
1768216472344771000,4.42477099609375,0.16627857089042664,0.5476909875869751,-0.15661877393722534
1768216472354771200,4.434771240234375,0.16840481758117676,0.5622122883796692,-0.16356825828552246
1768216472364772000,4.444772216796875,0.16337251663208008,0.5789467692375183,-0.18359602987766266
1768216472374773000,4.45477294921875,0.16273881494998932,0.6142621636390686,-0.20258475840091705
1768216472384773000,4.464773193359375,0.15690329670906067,0.6469582915306091,-0.1976563185453415
1768216472394774300,4.474774169921875,0.1568358838558197,0.6668750643730164,-0.18670643866062164
1768216472404774100,4.484774169921875,0.15037080645561218,0.6910973191261292,-0.16023993492126465
1768216472414775000,4.494775146484375,0.15168564021587372,0.7020037174224854,-0.13343071937561035
1768216472424776200,4.504776123046875,0.16562755405902863,0.70404452085495,-0.11329535394906998
1768216472434776000,4.514776123046875,0.18046145141124725,0.7028135657310486,-0.10507087409496307
1768216472444777000,4.52477685546875,0.19956617057323456,0.710317850112915,-0.10804988443851471
1768216472454777000,4.534777099609375,0.21832507848739624,0.7172631025314331,-0.12510381639003754
1768216472464778200,4.5447783203125,0.23111039400100708,0.7200559377670288,-0.14776918292045593
1768216472474779100,4.554779052734375,0.25398755073547363,0.7113380432128906,-0.1798480600118637
1768216472484779000,4.564779052734375,0.26238662004470825,0.7203496098518372,-0.22388476133346558
1768216472494780200,4.5747802734375,0.26572132110595703,0.7197656035423279,-0.25647664070129395
1768216472504780000,4.584780029296875,0.2753920555114746,0.6610455513000488,-0.2728974223136902
1768216472514781000,4.594781005859375,0.27874040603637695,0.620486319065094,-0.2534830570220947
1768216472524781000,4.604781005859375,0.2879190146923065,0.5711097121238708,-0.21736204624176025
1768216472534782200,4.6147822265625,0.304424524307251,0.5465680360794067,-0.20712678134441376
1768216472544783000,4.624783203125,0.3008446991443634,0.555356502532959,-0.21884948015213013
1768216472554783200,4.634783203125,0.288321316242218,0.5681232213973999,-0.24196383357048035
1768216472564784000,4.6447841796875,0.2968740463256836,0.5524608492851257,-0.26375383138656616
1768216472574784000,4.654783935546875,0.28749385476112366,0.5379483699798584,-0.26112884283065796
1768216472584785000,4.664784912109375,0.2777051329612732,0.5184742212295532,-0.2534272372722626
1768216472594786000,4.6747861328125,0.28289496898651123,0.4919697344303131,-0.23610666394233704
1768216472604786200,4.6847861328125,0.29540252685546875,0.4500691592693329,-0.21350468695163727
1768216472614787000,4.694787109375,0.3002645969390869,0.4227980971336365,-0.1747724711894989
1768216472624787200,4.704787109375,0.3081004023551941,0.3887708783149719,-0.13971301913261414
1768216472634788000,4.7147880859375,0.3148971199989319,0.32223379611968994,-0.12301934510469437
1768216472644789200,4.724789306640625,0.3234668970108032,0.2209702879190445,-0.1200089082121849
1768216472654789000,4.7347890625,0.32940903306007385,0.10580940544605255,-0.14262430369853973
1768216472664790300,4.744790283203125,0.3390326499938965,0.09759461879730225,-0.14892934262752533
1768216472674790100,4.7547900390625,0.3151088356971741,0.08028073608875275,-0.16886889934539795
1768216472684791000,4.764791015625,0.3100786507129669,0.10204142332077026,-0.15311843156814575
1768216472694792000,4.7747919921875,0.31243234872817993,0.09864941984415054,-0.11824735999107361
1768216472704792000,4.7847919921875,0.31042298674583435,0.049759116023778915,-0.11848411709070206
1768216472714793200,4.794793212890625,0.30325227975845337,-0.04698929563164711,-0.15411388874053955
1768216472724793000,4.80479296875,0.2937666177749634,-0.16927258670330048,-0.21775652468204498
1768216472734794200,4.814794189453125,0.32397159934043884,-0.3095433712005615,-0.27777281403541565
1768216472744794000,4.824794189453125,0.38026922941207886,-0.3935011029243469,-0.30653098225593567
1768216472754795000,4.834794921875,0.3987257480621338,-0.41694703698158264,-0.29079100489616394
1768216472764796000,4.8447958984375,0.39201536774635315,-0.4161568582057953,-0.2782938480377197
1768216472774796000,4.854796142578125,0.3578157126903534,-0.37499216198921204,-0.235432967543602
1768216472784797200,4.864797119140625,0.32854941487312317,-0.3294060230255127,-0.21054492890834808
1768216472794797000,4.874797119140625,0.28543373942375183,-0.25571373105049133,-0.18744215369224548
1768216472804798200,4.884798095703125,0.23745743930339813,-0.1908140778541565,-0.1985030472278595
1768216472814799000,4.894799072265625,0.19053566455841064,-0.13187339901924133,-0.22073732316493988
1768216472824799000,4.904799072265625,0.18356537818908691,-0.12343410402536392,-0.2456141710281372
1768216472834800000,4.914800048828125,0.18112662434577942,-0.1308046281337738,-0.2704205811023712
1768216472844800000,4.924800048828125,0.18560285866260529,-0.17087748646736145,-0.2872951626777649
1768216472854801200,4.93480126953125,0.19701799750328064,-0.19905896484851837,-0.29563841223716736
1768216472864802000,4.944802001953125,0.21106110513210297,-0.19201703369617462,-0.2840632498264313
1768216472874802200,4.95480224609375,0.21631105244159698,-0.14592185616493225,-0.24121104180812836
1768216472884803000,4.964802978515625,0.21531715989112854,-0.12777774035930634,-0.20615585148334503
1768216472894803000,4.974802978515625,0.2241201400756836,-0.13326586782932281,-0.1991664618253708
1768216472904804000,4.98480419921875,0.22906562685966492,-0.13613355159759521,-0.19817283749580383
1768216472914805200,4.99480517578125,0.23798558115959167,-0.1270696222782135,-0.20119251310825348
1768216472924805000,5.00480517578125,0.2443569153547287,-0.1130099892616272,-0.19969768822193146
1768216472934806000,5.014805908203125,0.24052676558494568,-0.11105966567993164,-0.19518359005451202
1768216472944806100,5.02480615234375,0.20024831593036652,-0.11796470731496811,-0.18494266271591187
1768216472954807000,5.03480712890625,0.16887563467025757,-0.13390301167964935,-0.17928987741470337
1768216472964808000,5.044807861328125,0.16258710622787476,-0.18168091773986816,-0.19403287768363953
1768216472974808300,5.054808349609375,0.1544223129749298,-0.23421892523765564,-0.2118142545223236
1768216472984809200,5.064809326171875,0.1370803415775299,-0.2767868936061859,-0.22602912783622742
1768216472994809000,5.07480908203125,0.10508871078491211,-0.33104151487350464,-0.22960452735424042
1768216473004810000,5.08481005859375,0.06411091983318329,-0.384176105260849,-0.21066173911094666
1768216473014810000,5.09481005859375,0.01216781698167324,-0.4606612026691437,-0.18767115473747253
1768216473024811000,5.10481103515625,-0.04522623121738434,-0.5274666547775269,-0.15603040158748627
1768216473034812200,5.114812255859375,-0.09693367779254913,-0.6000587344169617,-0.14185142517089844
1768216473044812300,5.124812255859375,-0.14008860290050507,-0.6751422882080078,-0.13615679740905762
1768216473054813200,5.134813232421875,-0.15827925503253937,-0.7492883801460266,-0.1268405020236969
1768216473064813000,5.14481298828125,-0.1697673350572586,-0.7965149879455566,-0.10788412392139435
1768216473074814200,5.154814208984375,-0.18334327638149261,-0.8104673624038696,-0.08205907791852951
1768216473084815000,5.164815185546875,-0.18335285782814026,-0.7992543578147888,-0.06524042040109634
1768216473094815000,5.17481494140625,-0.18045003712177277,-0.7613134980201721,-0.0516199991106987
1768216473104816000,5.184816162109375,-0.17306376993656158,-0.7186076045036316,-0.04095324128866196
1768216473114816300,5.194816162109375,-0.17144551873207092,-0.6821028590202332,-0.040212489664554596
1768216473124817200,5.204817138671875,-0.18088430166244507,-0.6627336740493774,-0.04620726406574249
1768216473134818000,5.214818115234375,-0.18930110335350037,-0.6608970165252686,-0.054696135222911835
1768216473144818200,5.224818115234375,-0.2144826203584671,-0.6875126361846924,-0.07257047295570374
1768216473154819000,5.234819091796875,-0.2458324432373047,-0.7318210005760193,-0.10405144095420837
1768216473164819000,5.24481884765625,-0.2877548635005951,-0.7831632494926453,-0.15218915045261383
1768216473174820000,5.254820068359375,-0.34828346967697144,-0.8313271999359131,-0.2186911255121231
1768216473184821200,5.2648212890625,-0.4081510901451111,-0.8708229660987854,-0.2810535728931427
1768216473194821000,5.274821044921875,-0.45662158727645874,-0.8974027633666992,-0.3195420205593109
1768216473204822000,5.284822021484375,-0.48807936906814575,-0.9206084609031677,-0.3432428240776062
1768216473214822100,5.294822265625,-0.5220047235488892,-0.9380964636802673,-0.3618195056915283
1768216473224823000,5.304822998046875,-0.5263805389404297,-0.9573844075202942,-0.3770144283771515
1768216473234824200,5.31482421875,-0.5261408090591431,-0.9840639233589172,-0.3896857500076294
1768216473244824000,5.324823974609375,-0.5500736236572266,-0.9480798244476318,-0.37838730216026306
1768216473254825200,5.3348251953125,-0.5226907134056091,-0.945534884929657,-0.3725850582122803
1768216473264825000,5.3448251953125,-0.5144168138504028,-0.9331203103065491,-0.3621068596839905
1768216473274826000,5.354825927734375,-0.5212616920471191,-0.9354067444801331,-0.30730968713760376
1768216473284827000,5.364826904296875,-0.5098156929016113,-0.9584904909133911,-0.24191763997077942
1768216473294827000,5.374826904296875,-0.4856005609035492,-0.9996846914291382,-0.17843672633171082
1768216473304828200,5.384828125,-0.4720757007598877,-1.0250600576400757,-0.11709480732679367
1768216473314828000,5.394828125,-0.4365478456020355,-1.019623875617981,-0.07369884103536606
1768216473324829200,5.4048291015625,-0.40574437379837036,-1.016311764717102,-0.01961723156273365
1768216473334829000,5.4148291015625,-0.37477990984916687,-0.9970292448997498,0.017453690990805626
1768216473344830000,5.424829833984375,-0.36075302958488464,-1.0027296543121338,0.04444216564297676
1768216473354831000,5.4348310546875,-0.36540719866752625,-1.031453013420105,0.07623546570539474
1768216473364831000,5.4448310546875,-0.38146471977233887,-1.0580977201461792,0.10552597045898438
1768216473374831900,5.454831787109375,-0.391521692276001,-1.0602365732192993,0.13058064877986908
1768216473384832000,5.46483203125,-0.39331504702568054,-1.033572793006897,0.13444755971431732
1768216473394833200,5.474833251953125,-0.3931330144405365,-0.9764597415924072,0.12308306246995926
1768216473404834000,5.484833984375,-0.3865422308444977,-0.8889613151550293,0.1102687269449234
1768216473414834000,5.494833984375,-0.37238991260528564,-0.7711995244026184,0.09560562670230865
1768216473424835000,5.5048349609375,-0.35288307070732117,-0.6574268937110901,0.08139953017234802
1768216473434835000,5.5148349609375,-0.3333166837692261,-0.5560575723648071,0.05473468080163002
1768216473444835800,5.5248359375,-0.31184014678001404,-0.47611263394355774,0.018452569842338562
1768216473454837000,5.5348369140625,-0.28081637620925903,-0.4188116788864136,-0.014071211218833923
1768216473464837000,5.544837158203125,-0.25101107358932495,-0.3869677186012268,-0.04346611723303795
1768216473474838000,5.554838134765625,-0.2339654415845871,-0.3779186010360718,-0.05344860255718231
1768216473484838000,5.564837890625,-0.22585558891296387,-0.37099650502204895,-0.061055924743413925
1768216473494839000,5.574839111328125,-0.20723900198936462,-0.37342044711112976,-0.06907331198453903
1768216473504840200,5.584840087890625,-0.19895337522029877,-0.36502933502197266,-0.07592349499464035
1768216473514840000,5.594840087890625,-0.19953639805316925,-0.3702523708343506,-0.07390869408845901
1768216473524841000,5.604841064453125,-0.20325763523578644,-0.3780759274959564,-0.07800330221652985
1768216473534841000,5.614841064453125,-0.20901688933372498,-0.39605239033699036,-0.07828966528177261
1768216473544842000,5.624842041015625,-0.21876539289951324,-0.42631015181541443,-0.08077066391706467
1768216473554842000,5.634842041015625,-0.2282988578081131,-0.4629693925380707,-0.08148838579654694
1768216473564843000,5.644843017578125,-0.2262439727783203,-0.49373847246170044,-0.08821659535169601
1768216473574844200,5.65484423828125,-0.20975390076637268,-0.5183113813400269,-0.08623106777667999
1768216473584844000,5.664843994140625,-0.20296257734298706,-0.5359417796134949,-0.07702212035655975
1768216473594845200,5.67484521484375,-0.20679675042629242,-0.5517799854278564,-0.062360141426324844
1768216473604845000,5.684844970703125,-0.21548184752464294,-0.583493709564209,-0.0507117435336113
1768216473614846000,5.694845947265625,-0.21988847851753235,-0.6163656115531921,-0.04783056676387787
1768216473624846800,5.704846923828125,-0.22634930908679962,-0.6362826228141785,-0.039765723049640656
1768216473634847000,5.714846923828125,-0.23170840740203857,-0.655997633934021,-0.025983024388551712
1768216473644848000,5.72484814453125,-0.23282426595687866,-0.6521182060241699,-0.017820969223976135
1768216473654848000,5.734847900390625,-0.22935383021831512,-0.6258350610733032,-0.012993384152650833
1768216473664849200,5.74484912109375,-0.22036060690879822,-0.5965203046798706,-0.017348984256386757
1768216473674850000,5.75485009765625,-0.21371228992938995,-0.5568365454673767,-0.01917511411011219
1768216473684850000,5.764849853515625,-0.20907063782215118,-0.5193772912025452,-0.013015738688409328
1768216473694850800,5.774850830078125,-0.20869837701320648,-0.5158501267433167,-0.026895713061094284
1768216473704851000,5.784850830078125,-0.21458609402179718,-0.5128868222236633,-0.0459010936319828
1768216473714852000,5.79485205078125,-0.2109752595424652,-0.5005959272384644,-0.062498364597558975
1768216473724853000,5.80485302734375,-0.20162223279476166,-0.4875456392765045,-0.07328788936138153
1768216473734853000,5.81485302734375,-0.17708373069763184,-0.4525216221809387,-0.0775674507021904
1768216473744854000,5.82485400390625,-0.1607883721590042,-0.3984450697898865,-0.07212261110544205
1768216473754854000,5.83485400390625,-0.1479034125804901,-0.33964818716049194,-0.05596636235713959
1768216473764854800,5.844854736328125,-0.1411704123020172,-0.30612003803253174,-0.03684726357460022
1768216473774856200,5.854856201171875,-0.1361026167869568,-0.27762773633003235,-0.025388771668076515
1768216473784856000,5.86485595703125,-0.13690954446792603,-0.26345011591911316,-0.028592554852366447
1768216473794857000,5.87485693359375,-0.14947396516799927,-0.258116215467453,-0.04142384231090546
1768216473804857000,5.884857177734375,-0.1596914529800415,-0.24547897279262543,-0.05481687933206558
1768216473814858000,5.89485791015625,-0.16997398436069489,-0.23076681792736053,-0.0668555423617363
1768216473824857900,5.90485791015625,-0.1728813499212265,-0.20670276880264282,-0.06499745696783066
1768216473834859000,5.91485888671875,-0.17247062921524048,-0.1848354935646057,-0.06814263761043549
1768216473844860200,5.924860107421875,-0.17351005971431732,-0.17179319262504578,-0.06905929744243622
1768216473854860000,5.934860107421875,-0.17936620116233826,-0.16309477388858795,-0.06704632937908173
1768216473864861000,5.94486083984375,-0.18368718028068542,-0.1636817455291748,-0.06322576105594635
1768216473874861000,5.954861083984375,-0.18434274196624756,-0.15154847502708435,-0.061880119144916534
1768216473884862000,5.964862060546875,-0.17615164816379547,-0.13144108653068542,-0.06767009198665619
1768216473894863000,5.974863037109375,-0.1606261134147644,-0.12081348150968552,-0.07873021066188812
1768216473904863200,5.98486328125,-0.14453820884227753,-0.12125343084335327,-0.08951547741889954
1768216473914864000,5.994864013671875,-0.12104251235723495,-0.12616334855556488,-0.09875297546386719
1768216473924864000,6.004864013671875,-0.09950020164251328,-0.13390596210956573,-0.09722086042165756
1768216473934865000,6.014864990234375,-0.08371031284332275,-0.14591209590435028,-0.09492552280426025
1768216473944866000,6.024865966796875,-0.07298017293214798,-0.14975318312644958,-0.08517302572727203
1768216473954866000,6.034865966796875,-0.058811187744140625,-0.13505437970161438,-0.07814612984657288
1768216473964867000,6.0448671875,-0.045931342989206314,-0.11853159219026566,-0.08162954449653625
1768216473974867200,6.0548671875,-0.026801813393831253,-0.10331914573907852,-0.08700675517320633
1768216473984868000,6.0648681640625,-0.004991055931895971,-0.08126045018434525,-0.08571325987577438
1768216473994869000,6.074868896484375,0.009824332781136036,-0.0530063733458519,-0.074036605656147
1768216474004868900,6.084868896484375,0.02028070017695427,-0.03916885331273079,-0.06404416263103485
1768216474014870000,6.0948701171875,0.021291112527251244,-0.025115443393588066,-0.05572262033820152
1768216474024870000,6.104869873046875,0.019353395327925682,-0.0182157251983881,-0.053327638655900955
1768216474034871000,6.11487109375,0.021837912499904633,-0.018931277096271515,-0.055005814880132675
1768216474044872000,6.124871826171875,0.023191330954432487,-0.02359900064766407,-0.06027274951338768
1768216474054872000,6.1348720703125,0.02233796939253807,-0.021884603425860405,-0.06757054477930069
1768216474064873000,6.144873046875,0.022313468158245087,-0.022542936727404594,-0.06975087523460388
1768216474074873000,6.154873046875,0.02124556340277195,-0.014100786298513412,-0.060199350118637085
1768216474084874000,6.1648740234375,0.02280244790017605,-0.0013330592773854733,-0.04325232654809952
1768216474094875100,6.174875244140625,0.028002887964248657,0.008466189727187157,-0.023778028786182404
1768216474104875000,6.184875,0.03194782882928848,0.004796885419636965,-0.018296975642442703
1768216474114876000,6.1948759765625,0.027779387310147285,-0.0069358875043690205,-0.03570696711540222
1768216474124876000,6.2048759765625,0.02751680091023445,-0.027643829584121704,-0.059489525854587555
1768216474134877000,6.214876953125,0.028369169682264328,-0.041981831192970276,-0.06839676946401596
1768216474144877000,6.224876953125,0.03347764536738396,-0.040903784334659576,-0.06919731199741364
1768216474154878000,6.2348779296875,0.036717403680086136,-0.039273202419281006,-0.057604748755693436
1768216474164879000,6.244879150390625,0.04053318127989769,-0.035363681614398956,-0.046893514692783356
1768216474174879000,6.25487890625,0.04105368256568909,-0.024220848456025124,-0.04581551253795624
1768216474184880000,6.264880126953125,0.03939959406852722,-0.0020428409334272146,-0.04940119385719299
1768216474194880000,6.2748798828125,0.04599544405937195,0.0195535309612751,-0.05913611128926277
1768216474204881000,6.284880859375,0.05453380569815636,0.04097440093755722,-0.06425097584724426
1768216474214882000,6.294882080078125,0.05942445248365402,0.052646785974502563,-0.06689856201410294
1768216474224882200,6.304882080078125,0.05099901184439659,0.06382833421230316,-0.0649227648973465
1768216474234883000,6.314883056640625,0.038394730538129807,0.07134585082530975,-0.06311449408531189
1768216474244883000,6.324883056640625,0.029494713991880417,0.06892610341310501,-0.057612400501966476
1768216474254884000,6.334884033203125,0.02582845278084278,0.06335848569869995,-0.05506589636206627
1768216474264885000,6.344885009765625,0.02160547859966755,0.047134507447481155,-0.05517907813191414
1768216474274884900,6.354884765625,0.013636532239615917,0.028940701857209206,-0.054187528789043427
1768216474284886000,6.364885986328125,0.0028600511141121387,0.013087967410683632,-0.055751070380210876
1768216474294886100,6.37488623046875,-0.002273579128086567,0.0040351832285523415,-0.05861685425043106
1768216474304887000,6.384886962890625,-0.0066574085503816605,-0.0064361002296209335,-0.056592583656311035
1768216474314888000,6.394887939453125,-0.007742731366306543,-0.00692014442756772,-0.04838332161307335
1768216474324888000,6.40488818359375,-0.008986162021756172,-0.002304619876667857,-0.03129834681749344
1768216474334888400,6.414888427734375,-0.01014687493443489,0.0030162972398102283,-0.019561294466257095
1768216474344888600,6.424888671875,-0.010945024900138378,0.009085907600820065,-0.014616336673498154
1768216474354889700,6.4348896484375,-0.014785327017307281,0.016356956213712692,-0.010157519020140171
1768216474364890600,6.444890625,-0.014506760984659195,0.018134349957108498,-0.015009799040853977
1768216474374890500,6.454890380859375,-0.020707737654447556,0.022145546972751617,-0.018025042489171028
1768216474384891400,6.464891357421875,-0.03167010843753815,0.02324383333325386,-0.013980766758322716
1768216474394891500,6.4748916015625,-0.042821332812309265,0.021495981141924858,-0.009376443922519684
1768216474404892400,6.484892333984375,-0.05055941268801689,0.02179824933409691,-0.011514697223901749
1768216474414892500,6.494892578125,-0.058304328471422195,0.02098790928721428,-0.016666948795318604
1768216474424893700,6.504893798828125,-0.062098532915115356,0.016745226457715034,-0.0168235432356596
1768216474434894600,6.51489453125,-0.06079097464680672,0.013164035975933075,-0.015019932761788368
1768216474444894500,6.52489453125,-0.05328911915421486,0.007991645485162735,-0.009717045351862907
1768216474454895600,6.5348955078125,-0.045010972768068314,0.005194328725337982,0.001225789776071906
1768216474464895500,6.5448955078125,-0.036051034927368164,0.007680656388401985,0.010566294193267822
1768216474474896400,6.554896484375,-0.030856167897582054,0.014343785122036934,0.016707878559827805
1768216474484897500,6.5648974609375,-0.02307600900530815,0.02690431848168373,0.028153080493211746
1768216474494897700,6.574897705078125,-0.02397574484348297,0.031449366360902786,0.03462034463882446
1768216474504898600,6.584898681640625,-0.030204344540834427,0.03585103899240494,0.03955917805433273
1768216474514898400,6.5948984375,-0.03765091300010681,0.03732173889875412,0.041304811835289
1768216474524899600,6.604899658203125,-0.03481224924325943,0.03889433294534683,0.03852420672774315
1768216474534900500,6.614900390625,-0.03273514285683632,0.03867177292704582,0.03573537617921829
1768216474544900400,6.624900390625,-0.02329530194401741,0.04319089278578758,0.033465027809143066
1768216474554901500,6.634901611328125,-0.01892274059355259,0.052695028483867645,0.035128504037857056
1768216474564901600,6.644901611328125,-0.014635319821536541,0.06101527810096741,0.03437110036611557
1768216474574902500,6.654902587890625,-0.012319009751081467,0.06402084231376648,0.03394469618797302
1768216474584903400,6.6649033203125,-0.008596443571150303,0.05774883180856705,0.03826514631509781
1768216474594903600,6.674903564453125,-0.005721955094486475,0.050741180777549744,0.040437571704387665
1768216474604904400,6.684904541015625,-0.008567276410758495,0.044372763484716415,0.04624832049012184
1768216474614904300,6.694904296875,-0.01210431195795536,0.037123311311006546,0.04703059419989586
1768216474624905500,6.704905517578125,-0.010151416063308716,0.032484617084264755,0.04475332424044609
1768216474634905600,6.714905517578125,-0.007663696072995663,0.033334650099277496,0.03438521549105644
1768216474644906500,6.724906494140625,-0.005636764690279961,0.04113052040338516,0.02499118074774742
1768216474654907400,6.734907470703125,-0.005472955293953419,0.048728182911872864,0.023816820234060287
1768216474664907500,6.744907470703125,-0.007936912588775158,0.04972899705171585,0.01659965328872204
1768216474674908400,6.754908447265625,-0.005087468773126602,0.04049962759017944,0.01639183983206749
1768216474684908500,6.764908447265625,-0.0024267048574984074,0.03596239909529686,0.013422416523098946
1768216474694909700,6.77490966796875,-0.000930952257476747,0.024440668523311615,0.012393591925501823
1768216474704910600,6.78491064453125,0.0006435086252167821,0.015299366787075996,0.012738203629851341
1768216474714910500,6.794910400390625,0.000689217762555927,0.009890517219901085,0.017870523035526276
1768216474724911400,6.804911376953125,0.0006436777184717357,0.0065216184593737125,0.020586147904396057
1768216474734911500,6.814911376953125,0.0019310194766148925,0.00009157415479421616,0.023002643138170242
1768216474744912600,6.82491259765625,-0.00042694329749792814,-0.006185496225953102,0.019837209954857826
1768216474754913500,6.83491357421875,-0.00253119133412838,-0.009331103414297104,0.013069916516542435
1768216474764913700,6.84491357421875,-0.009712139144539833,-0.014963689260184765,0.008330821059644222
1768216474774914600,6.85491455078125,-0.012270649895071983,-0.02031407132744789,0.00985795445740223
1768216474784914400,6.86491455078125,-0.010825884528458118,-0.021049635484814644,0.010832671076059341
1768216474794915300,6.874915283203125,-0.012782497331500053,-0.018834860995411873,0.00804053619503975
1768216474804916700,6.884916748046875,-0.012695678509771824,-0.017877187579870224,0.0029403166845440865
1768216474814916600,6.89491650390625,-0.00711975758895278,-0.009711451828479767,-0.005240804050117731
1768216474824917500,6.90491748046875,-0.0029295398853719234,0.00016754353418946266,-0.0075665428303182125
1768216474834917600,6.914917724609375,-0.004187828861176968,-0.003973898943513632,-0.00590218510478735
1768216474844918500,6.92491845703125,-0.001333719352260232,-0.008820319548249245,0.0006606427486985922
1768216474854919400,6.93491943359375,0.0012072025565430522,-0.014657169580459595,0.0029645434115082026
1768216474864919600,6.94491943359375,0.005765202455222607,-0.009988915175199509,0.001326166559010744
1768216474874920700,6.954920654296875,0.00919175986200571,0.005617731250822544,-0.0012154127471148968
1768216474884920600,6.964920654296875,0.008873778395354748,0.010681998915970325,-0.004715871065855026
1768216474894921500,6.97492138671875,0.007820431143045425,0.013890979811549187,-0.008607352152466774
1768216474904922400,6.98492236328125,0.010727804154157639,0.015680624172091484,-0.012121394276618958
1768216474914922500,6.994922607421875,0.02098688669502735,0.026607878506183624,-0.014165487140417099
1768216474924923400,7.00492333984375,0.0344153456389904,0.0294199138879776,-0.012864533811807632
1768216474934923500,7.014923583984375,0.046031102538108826,0.025690143927931786,-0.014507180079817772
1768216474944924700,7.024924560546875,0.050842102617025375,0.008179860189557076,-0.011934567242860794
1768216474954924500,7.034924560546875,0.049925412982702255,-0.004132308065891266,-0.013566339388489723
1768216474964925400,7.044925537109375,0.04778636246919632,-0.016757555305957794,-0.020439958199858665
1768216474974926600,7.054926513671875,0.04502413421869278,-0.021128689870238304,-0.02374737709760666
1768216474984926500,7.064926513671875,0.04333063215017319,-0.022158268839120865,-0.02724863588809967
1768216474994927400,7.07492724609375,0.04121595248579979,-0.012448640540242195,-0.025952350348234177
1768216475004927700,7.084927734375,0.03954588249325752,0.002317521721124649,-0.024930763989686966
1768216475014928600,7.0949287109375,0.03733355179429054,0.018199333921074867,-0.022988211363554
1768216475024929500,7.104929443359375,0.04001029580831528,0.035033706575632095,-0.028025582432746887
1768216475034929400,7.114929443359375,0.03906304016709328,0.04331944137811661,-0.02855975553393364
1768216475044930600,7.1249306640625,0.03675008565187454,0.050767235457897186,-0.026293406262993813
1768216475054930400,7.134930419921875,0.03906068950891495,0.04929543659090996,-0.020892061293125153
1768216475064931600,7.144931640625,0.039358966052532196,0.04671350121498108,-0.01386264804750681
1768216475074932500,7.154932373046875,0.04045526683330536,0.041276223957538605,-0.013204800896346569
1768216475084932600,7.1649326171875,0.03919798508286476,0.041771307587623596,-0.016096726059913635
1768216475094933500,7.17493359375,0.03791000321507454,0.039921507239341736,-0.014878572896122932
1768216475104933400,7.184933349609375,0.03844663128256798,0.04060780256986618,-0.01504448801279068
1768216475114934500,7.1949345703125,0.04074310511350632,0.04345855861902237,-0.015943516045808792
1768216475124935700,7.204935791015625,0.03563409671187401,0.04958196356892586,-0.01141827367246151
1768216475134935600,7.214935546875,0.036750372499227524,0.05977530777454376,-0.006458887364715338
1768216475144936400,7.2249365234375,0.03674238547682762,0.06654027104377747,-0.005274313967674971
1768216475154936600,7.2349365234375,0.03322692960500717,0.06920675188302994,-0.0026262691244482994
1768216475164937500,7.2449375,0.03050863742828369,0.06786877661943436,-0.004191409330815077
1768216475174938400,7.2549384765625,0.03188430517911911,0.06514286249876022,-0.0018363292329013348
1768216475184938500,7.2649384765625,0.031142350286245346,0.07041485607624054,0.00013520894572138786
1768216475194939600,7.274939697265625,0.0320444293320179,0.07443023473024368,-0.0023814067244529724
1768216475204939500,7.284939453125,0.03416191041469574,0.07886839658021927,-0.0021164221689105034
1768216475214940700,7.294940673828125,0.0322120264172554,0.08208190649747849,-0.005610287189483643
1768216475224941600,7.304941650390625,0.02354263886809349,0.08673764765262604,-0.011233817785978317
1768216475234941400,7.31494140625,0.02165282890200615,0.09070511907339096,-0.02096346579492092
1768216475244942300,7.3249423828125,0.01594247855246067,0.09170886129140854,-0.030245913192629814
1768216475254942500,7.3349423828125,0.014035267755389214,0.09244132786989212,-0.033797990530729294
1768216475264943600,7.344943603515625,0.015379365533590317,0.0938570648431778,-0.0392574705183506
1768216475274944500,7.354944580078125,0.015112661756575108,0.09734909981489182,-0.040847063064575195
1768216475284944600,7.364944580078125,0.015574720688164234,0.10050255060195923,-0.0432652123272419
1768216475294945500,7.374945556640625,0.015556581318378448,0.10477495193481445,-0.044537726789712906
1768216475304945400,7.3849453125,0.014879073016345501,0.10731854289770126,-0.046105798333883286
1768216475314946300,7.3949462890625,0.012795887887477875,0.10935910046100616,-0.04471973329782486
1768216475324946400,7.404946533203125,0.012934371829032898,0.10832951962947845,-0.04406299442052841
1768216475334947600,7.414947509765625,0.012213309295475483,0.10864554345607758,-0.03985791280865669
1768216475344949800,7.42494970703125,0.011988005600869656,0.09848185628652573,-0.03357231989502907
1768216475354949600,7.43494970703125,0.01356333214789629,0.09967028349637985,-0.025361988693475723
1768216475364950800,7.44495068359375,0.009660203941166401,0.1008380800485611,-0.020865773782134056
1768216475374950700,7.45495068359375,0.008364575915038586,0.09553146362304688,-0.02112383395433426
1768216475384951600,7.46495166015625,0.006867346353828907,0.09174471348524094,-0.012620627880096436
1768216475394952400,7.474952392578125,0.007051323540508747,0.08214415609836578,-0.00883486494421959
1768216475404952600,7.48495263671875,0.003560984507203102,0.07498931139707565,-0.00662976736202836
1768216475414953700,7.49495361328125,0.0010213202331215143,0.06100713834166527,-0.0005543297156691551
1768216475424953600,7.50495361328125,-0.0049809119664132595,0.05152256041765213,0.0004635301884263754
1768216475434954800,7.514954833984375,-0.008202683180570602,0.03876166045665741,-0.0012654410675168037
1768216475444955600,7.52495556640625,-0.008746233768761158,0.032062746584415436,-0.0026444257237017155
1768216475454955500,7.53495556640625,-0.004615054465830326,0.032828282564878464,-0.007400094997137785
1768216475464956700,7.544956787109375,-0.005492566153407097,0.039576202630996704,-0.008090652525424957
1768216475474956800,7.554956787109375,-0.00391420116648078,0.040157247334718704,-0.014124741777777672
1768216475484957700,7.564957763671875,-0.004410347901284695,0.04140333831310272,-0.009831459261476994
1768216475494958600,7.57495849609375,-0.0013155192136764526,0.04143811762332916,-0.0010838299058377743
1768216475504958700,7.584958740234375,0.0023660347796976566,0.03208962082862854,0.002835544291883707
1768216475514959600,7.594959716796875,0.004109764471650124,0.023150108754634857,0.0015649201814085245
1768216475524959500,7.60495947265625,0.0031869790982455015,0.014481787569820881,0.002103943843394518
1768216475534960600,7.614960693359375,-0.0010671478230506182,0.015161868184804916,0.0008937644306570292
1768216475544961800,7.6249619140625,-0.0035598664544522762,0.016164282336831093,0.0004708545748144388
1768216475554961700,7.634961669921875,-0.010248372331261635,0.019697431474924088,0.0034158716443926096
1768216475564962600,7.644962646484375,-0.009993507526814938,0.020810097455978394,0.00765269435942173
1768216475574962700,7.654962646484375,-0.009297091513872147,0.018550407141447067,0.0040635522454977036
1768216475584963600,7.664963623046875,-0.005091426894068718,0.016467813402414322,0.0012435310054570436
1768216475594964700,7.67496484375,-0.002811891958117485,0.015907205641269684,0.0012332864571362734
1768216475604964600,7.684964599609375,-0.003403912764042616,0.01465046126395464,-0.00008737528696656227
1768216475614965800,7.6949658203125,-0.006301620975136757,0.014997176826000214,-0.0009582526981830597
1768216475624965600,7.704965576171875,-0.0033439146354794502,0.015626216307282448,-0.0014528017491102219
1768216475634966500,7.714966552734375,-0.007468587718904018,0.007461871486157179,-0.003491130191832781
1768216475644967700,7.7249677734375,-0.0038144649006426334,0.002881500869989395,-0.0035984558053314686
1768216475654967600,7.734967529296875,-0.004061177372932434,0.004448890686035156,-0.0005319127812981606
1768216475664968700,7.74496875,-0.0010185159044340253,0.006996470503509045,-0.002071219962090254
1768216475674968800,7.75496875,0.001084679737687111,0.012586415745317936,-0.0036229174584150314
1768216475684969700,7.7649697265625,0.00024764821864664555,0.017085827887058258,-0.0049283988773822784
1768216475694970600,7.774970703125,-0.00040469819214195013,0.016276037320494652,-0.0015060571022331715
1768216475704970500,7.784970458984375,-0.0036817179061472416,0.015805190429091454,0.004759562201797962
1768216475714971600,7.7949716796875,-0.010589789599180222,0.013617699034512043,0.00500497967004776
1768216475724971500,7.804971435546875,-0.014612494967877865,0.011178510263562202,0.008639395236968994
1768216475734972700,7.81497265625,-0.014379733242094517,0.011094354093074799,0.0068137990310788155
1768216475744973600,7.8249736328125,-0.011775163002312183,0.020035918802022934,0.005472630728036165
1768216475754973700,7.8349736328125,-0.0033206609077751637,0.02552480250597,0.0006952416151762009
1768216475764974600,7.844974609375,0.0015782241243869066,0.030668431892991066,-0.004115225747227669
1768216475774974500,7.854974365234375,0.006953844800591469,0.03713788837194443,-0.004689349327236414
1768216475784975600,7.8649755859375,0.009872402995824814,0.02926878072321415,-0.0043258280493319035
1768216475794976800,7.874976806640625,0.008845730684697628,0.02114248089492321,-0.005228999070823193
1768216475804976600,7.8849765625,0.006867534946650267,0.012392930686473846,-0.0026100464165210724
1768216475814977500,7.8949775390625,0.009717406705021858,0.009308922104537487,-0.002841914538294077
1768216475824977700,7.904977783203125,0.008350140415132046,0.008279344066977501,-0.004086675588041544
1768216475834978600,7.914978515625,0.009371446445584297,0.009071346372365952,-0.005923591088503599
1768216475844979500,7.9249794921875,0.008039865642786026,0.014099927619099617,-0.008462915197014809
1768216475854979800,7.934979736328125,0.007417936343699694,0.0219496451318264,-0.006884452886879444
1768216475864980700,7.944980712890625,0.009718907997012138,0.026479149237275124,-0.006084972061216831
1768216475874980600,7.954980712890625,0.009743476286530495,0.029588254168629646,-0.007944319397211075
1768216475884981800,7.964981689453125,0.009811919182538986,0.028635108843445778,-0.011153960600495338
1768216475894982700,7.974982666015625,0.010029220022261143,0.021835170686244965,-0.013936887495219707
1768216475904982500,7.984982421875,0.006215573754161596,0.01974938064813614,-0.014572584070265293
1768216475914983700,7.994983642578125,0.006888307631015778,0.017563724890351295,-0.012540441006422043
1768216475924983800,8.00498388671875,0.007618546020239592,0.017513656988739967,-0.007228500209748745
1768216475934984700,8.014984619140625,0.00781733263283968,0.01708993688225746,-0.004410351626574993
1768216475944985600,8.024985595703125,0.005890002939850092,0.013713582418859005,-0.0019088448025286198
1768216475954985700,8.03498583984375,0.004844149574637413,0.014100431464612484,-0.0025195623748004436
1768216475964986600,8.044986572265625,0.004323235247284174,0.012808266095817089,-0.003991757519543171
1768216475974986500,8.054986572265625,0.002224016934633255,0.016464263200759888,-0.007120431400835514
1768216475984987600,8.064987548828125,0.002696994226425886,0.01737213507294655,-0.008320718072354794
1768216475994988800,8.07498876953125,0.004883988760411739,0.017903078347444534,-0.007217142730951309
1768216476004988700,8.08498876953125,0.002907657064497471,0.020017363131046295,-0.005462119355797768
1768216476014989600,8.094989501953124,0.0019992091692984104,0.022290173918008804,-0.004286310635507107
1768216476024990500,8.104990478515624,0.0005629665101878345,0.022793781012296677,-0.003266320563852787
1768216476034990600,8.114990478515624,0.0011354854796081781,0.02226598933339119,-0.005481647327542305
1768216476044991700,8.12499169921875,0.0011280286125838757,0.023571206256747246,-0.001008069608360529
1768216476054991600,8.13499169921875,0.000799842644482851,0.026248332113027573,-0.0007329024374485016
1768216476064992800,8.14499267578125,-0.0025096675381064415,0.02827606163918972,-0.002479935996234417
1768216476074993700,8.15499365234375,-0.004016018472611904,0.02935904450714588,0.002095303498208523
1768216476084993500,8.16499365234375,-0.008017151616513729,0.03306110203266144,-0.0011012889444828033
1768216476094994400,8.174994384765625,-0.009137985296547413,0.04189566895365715,0.004465947858989239
1768216476104994600,8.18499462890625,-0.0017833997262641788,0.03922904655337334,0.0069434866309165955
1768216476114995700,8.19499560546875,0.002250648569315672,0.03595380857586861,0.007989013567566872
1768216476124996600,8.20499658203125,0.005856302101165056,0.03140326589345932,0.0125257084146142
1768216476134996700,8.214996826171875,0.01105576753616333,0.027304336428642273,0.011967344209551811
1768216476144997600,8.22499755859375,0.013376445509493351,0.01860858127474785,0.010974784381687641
1768216476154997500,8.23499755859375,0.011782240122556686,0.008746610954403877,0.006054045632481575
1768216476164998700,8.24499853515625,0.01002535317093134,-0.002059697872027755,0.0006363773718476295
1768216476174999800,8.254999755859375,0.005804728250950575,-0.00515921413898468,-0.0033207349479198456
1768216476184999700,8.264999755859375,0.0012310153106227517,-0.007390676997601986,-0.0038368557579815388
1768216476195000600,8.27500048828125,-0.002176512498408556,-0.0036279840860515833,-0.0027217119932174683
1768216476205000700,8.285000732421874,-0.0015248371055349708,-0.0013102348893880844,0.0006256152410060167
1768216476215001600,8.295001708984374,-0.0015344111016020179,0.0024124188348650932,0.002941155806183815
1768216476225002500,8.30500244140625,0.00155885040294379,-0.0014185381587594748,0.008005422540009022
1768216476235003000,8.3150029296875,0.003377553541213274,-0.0043649510480463505,0.013803180307149887
1768216476245003800,8.325003662109374,0.004016179591417313,-0.013042062520980835,0.010020958259701729
1768216476255003600,8.335003662109376,0.004611891694366932,-0.022595640271902084,0.01330195739865303
1768216476265004500,8.345004638671876,0.00302810943685472,-0.033557742834091187,0.012106463313102722
1768216476275005700,8.355005615234376,0.0006074107950553298,-0.04762989655137062,0.0131216524168849
1768216476285005600,8.365005615234375,-0.0029436482582241297,-0.06180590018630028,0.00918230414390564
1768216476295006700,8.3750068359375,-0.005472191609442234,-0.07430483400821686,0.006314793135970831
1768216476305006800,8.3850068359375,-0.00963231548666954,-0.0831260234117508,0.0009301479440182447
1768216476315007700,8.3950078125,-0.008124160580337048,-0.08474371582269669,-0.0008203862234950066
1768216476325008600,8.405008544921875,-0.005462597124278545,-0.08787798881530762,-0.005360543727874756
1768216476335008000,8.415008056640625,0.00009878410492092371,-0.09307245910167694,-0.005783046595752239
1768216476345009000,8.4250087890625,0.0010681747226044536,-0.09748584777116776,-0.009068855084478855
1768216476355008800,8.4350087890625,0.0031304657459259033,-0.09803121536970139,-0.007947773672640324
1768216476365009700,8.445009765625,-0.0011196727864444256,-0.09020525217056274,-0.004089119844138622
1768216476375011000,8.455010986328125,-0.0011840370716527104,-0.07830130308866501,0.006757872179150581
1768216476385011000,8.465010986328124,-0.00038855080492794514,-0.06365924328565598,0.02053041011095047
1768216476395011800,8.47501171875,0.0016868270467966795,-0.0579909048974514,0.031176036223769188
1768216476405012000,8.485011962890624,0.003500972408801317,-0.052423566579818726,0.03286368399858475
1768216476415012900,8.495012939453124,0.0016996543854475021,-0.05219380557537079,0.024044333025813103
1768216476425013800,8.505013671875,0.0007880544289946556,-0.06136466935276985,0.01097513735294342
1768216476435014000,8.515013916015626,0.002451359760016203,-0.07379511743783951,0.0013783499598503113
1768216476445015000,8.52501513671875,0.0027530959341675043,-0.08986862748861313,-0.0014645745977759361
1768216476455015000,8.535014892578126,0.0017722472548484802,-0.0976945012807846,-0.0009611980058252811
1768216476465015800,8.545015869140625,0.00456856656819582,-0.09951690584421158,0.0022561668884009123
1768216476475017000,8.555016845703125,0.008414177224040031,-0.09909701347351074,-0.0007034428417682648
1768216476485016800,8.565016845703125,0.011788935400545597,-0.09813587367534637,-0.0032864431850612164
1768216476495017700,8.575017822265625,0.007701248861849308,-0.09458188712596893,-0.0027050748467445374
1768216476505019000,8.585018798828125,0.005014386028051376,-0.09373527020215988,-0.007184778340160847
1768216476515019000,8.59501904296875,-0.0016043746145442128,-0.08343993127346039,-0.00004507042467594147
1768216476525020000,8.60502001953125,-0.004958093166351318,-0.07638921588659286,0.003013569861650467
1768216476535019800,8.615019775390625,-0.004016338847577572,-0.06785250455141068,0.00889740139245987
1768216476545021000,8.62502099609375,-0.0031436211429536343,-0.05812104418873787,0.013190683908760548
1768216476555021800,8.635021728515625,0.0009300712263211608,-0.04232406988739967,0.010919759050011635
1768216476565021700,8.645021728515625,0.003919203300029039,-0.031613633036613464,0.008587628602981567
1768216476575022800,8.65502294921875,0.006452742964029312,-0.023427043110132217,0.0053705619648098946
1768216476585023000,8.66502294921875,0.008057030849158764,-0.0215817391872406,-0.00029717758297920227
1768216476595024000,8.67502392578125,0.010050240904092789,-0.018045686185359955,-0.00012480095028877258
1768216476605024800,8.685024658203124,0.015283086337149143,-0.01578919216990471,0.0025130598805844784
1768216476615025000,8.69502490234375,0.017095472663640976,-0.014907272532582283,0.0038284820038825274
1768216476625025800,8.70502587890625,0.017979376018047333,-0.015346162021160126,0.004110510926693678
1768216476635025700,8.715025634765626,0.020358188077807426,-0.01940031908452511,-0.0006176894530653954
1768216476645026800,8.72502685546875,0.018015937879681587,-0.02403981238603592,-0.007343502715229988
1768216476655028000,8.735028076171876,0.01177369523793459,-0.029381796717643738,-0.007075165398418903
1768216476665027800,8.74502783203125,0.008354461751878262,-0.026284009218215942,-0.001138180959969759
1768216476675028700,8.75502880859375,0.005548181012272835,-0.02261798270046711,0.00950910709798336
1768216476685028900,8.76502880859375,0.0015292050084099174,-0.017471689730882645,0.017124947160482407
1768216476695029800,8.77502978515625,0.003140693996101618,-0.011759364977478981,0.0190279483795166
1768216476705031000,8.785031005859375,0.0033393660560250282,-0.003125928808003664,0.020307861268520355
1768216476715030800,8.79503076171875,0.0018622147617861629,0.0058168466202914715,0.01609829254448414
1768216476725032000,8.805031982421875,0.002763960976153612,0.014035360887646675,0.01621893234550953
1768216476735031800,8.81503173828125,0.0015273947501555085,0.014048993587493896,0.01529151014983654
1768216476745032700,8.82503271484375,-0.0016625395510345697,0.01141725666821003,0.014242490753531456
1768216476755033900,8.835033935546875,-0.0035158225800842047,0.00564443226903677,0.01638810522854328
1768216476765034000,8.845033935546875,-0.006643439643085003,0.000871781725436449,0.018558314070105553
1768216476775035000,8.855034912109375,-0.008379136212170124,-0.004286218900233507,0.02343323826789856
1768216476785035000,8.865034912109374,-0.01214324776083231,-0.006462820339947939,0.024912625551223755
1768216476795036000,8.875035888671874,-0.014298621565103531,-0.007976265624165535,0.022756554186344147
1768216476805036800,8.885036865234374,-0.019273407757282257,-0.0018917419947683811,0.025217048823833466
1768216476815036700,8.89503662109375,-0.02439626306295395,-0.0005867930594831705,0.02879979833960533
1768216476825038000,8.9050380859375,-0.02440398745238781,0.0030324426479637623,0.030560679733753204
1768216476835038000,8.915037841796876,-0.025060582906007767,0.0023018596693873405,0.028957810252904892
1768216476845038800,8.925038818359376,-0.02646540105342865,0.003927452955394983,0.02623046562075615
1768216476855039700,8.935039794921876,-0.02198674902319908,0.010958019644021988,0.02537844516336918
1768216476865040000,8.945039794921875,-0.019312668591737747,0.02167458087205887,0.030294373631477356
1768216476875040800,8.955040771484375,-0.016737332567572594,0.03551630675792694,0.03860141709446907
1768216476885040600,8.96504052734375,-0.012792658992111683,0.0484323725104332,0.04589581489562988
1768216476895042000,8.9750419921875,-0.010935025289654732,0.061110325157642365,0.04329201579093933
1768216476905043000,8.98504296875,-0.012873806990683079,0.057798683643341064,0.04023657366633415
1768216476915042800,8.995042724609375,-0.01257999986410141,0.047741737216711044,0.03177022933959961
1768216476925043700,9.005043701171875,-0.01297041866928339,0.03423578292131424,0.02443082071840763
1768216476935044900,9.015044921875,-0.009768759831786156,0.028328537940979004,0.02095375955104828
1768216476945044700,9.025044677734375,-0.006253920495510101,0.028461162000894547,0.01993723027408123
1768216476955046000,9.0350458984375,-0.005153036676347256,0.0333402119576931,0.02655910886824131
1768216476965046000,9.0450458984375,-0.007535500451922417,0.037345875054597855,0.03359145298600197
1768216476975047000,9.055046875,-0.00895589217543602,0.04489931836724281,0.0397101491689682
1768216476985047800,9.0650478515625,-0.010199321433901787,0.05324912443757057,0.04355628788471222
1768216476995047700,9.075047607421874,-0.007982965558767319,0.04725279286503792,0.04037091135978699
1768216477005048800,9.085048828125,-0.0054487017914652824,0.0427057109773159,0.03681718930602074
1768216477015048700,9.095048583984376,-0.005041123367846012,0.039556246250867844,0.035958580672740936
1768216477025049900,9.1050498046875,-0.001883413176983595,0.03699055686593056,0.033552415668964386
1768216477035050800,9.11505078125,-0.0023328466340899467,0.03972543776035309,0.03841564059257507
1768216477045051000,9.12505078125,-0.00147983618080616,0.050242260098457336,0.046306055039167404
1768216477055051800,9.1350517578125,-0.00778427068144083,0.060848694294691086,0.05733294412493706
1768216477065052000,9.145052001953125,-0.013642692007124424,0.07510432600975037,0.06483826786279678
1768216477075052800,9.155052734375,-0.02089427411556244,0.08247840404510498,0.06983105093240738
1768216477085054000,9.165053955078125,-0.02540859766304493,0.0579427033662796,0.06633645296096802
1768216477095053800,9.1750537109375,-0.024605855345726013,0.03761838376522064,0.056807201355695724
1768216477105055000,9.185054931640625,-0.02808420918881893,0.02712419629096985,0.044104721397161484
1768216477115054800,9.195054931640625,-0.02541329525411129,0.021246176213026047,0.028841132298111916
1768216477125055700,9.2050556640625,-0.019739696756005287,0.015653803944587708,0.022109460085630417
1768216477135056600,9.215056640625,-0.015153891406953335,0.010368308052420616,0.01794031262397766
1768216477145057000,9.22505712890625,-0.011361283250153065,0.007258268538862467,0.01483187172561884
1768216477155058000,9.235057861328125,-0.007508427836000919,0.008336799219250679,0.014984315261244774
1768216477165057800,9.245057861328124,-0.0013394810957834125,0.014192556962370872,0.01754041574895382
1768216477175059000,9.255058837890624,-0.0006251776358112693,0.016129404306411743,0.019266121089458466
1768216477185059800,9.265059814453124,-0.00015885813627392054,0.016939803957939148,0.019990768283605576
1768216477195059700,9.275059814453124,-0.0025007163640111685,0.020716533064842224,0.019444717094302177
1768216477205060900,9.285060791015624,-0.0007369050290435553,0.022297918796539307,0.013596680946648121
1768216477215061000,9.29506103515625,-0.0006016574334353209,0.01912933774292469,0.011742895469069481
1768216477225062000,9.305061767578126,0.0011104887817054987,0.02038448490202427,0.009799852967262268
1768216477235062800,9.315062744140626,0.005528713576495647,0.02122839167714119,0.0089286919683218
1768216477245063000,9.32506298828125,0.008480029180645943,0.015410451218485832,0.011253099888563156
1768216477255063800,9.335063720703126,0.008942936547100544,0.010315932333469391,0.011261293664574623
1768216477265063700,9.345063720703125,0.008972497656941414,0.005411986727267504,0.01445868518203497
1768216477275064800,9.35506494140625,0.010085394605994225,0.005254042334854603,0.013840282335877419
1768216477285066000,9.36506591796875,0.006717562209814787,0.0064015984535217285,0.015225393697619438
1768216477295065900,9.37506591796875,0.005011662375181913,0.011264698579907417,0.01126096397638321
1768216477305066800,9.385066650390625,0.006503298878669739,0.018422741442918777,0.010573336854577065
1768216477315067000,9.39506689453125,0.0057608638890087605,0.022533638402819633,0.013021196238696575
1768216477325067800,9.40506787109375,0.0049390122294425964,0.01956048421561718,0.010926354676485062
1768216477335069400,9.4150693359375,0.009169062599539757,0.017143409699201584,0.0015128864906728268
1768216477345069300,9.4250693359375,0.007232944015413523,0.015533529222011566,-0.0042717657051980495
1768216477355070500,9.435070556640625,0.007685614749789238,0.014779992401599884,-0.0028704809956252575
1768216477365070600,9.445070556640625,0.005653089843690395,0.013877714052796364,-0.00490087503567338
1768216477375071500,9.455071533203125,0.0053442781791090965,0.014069984667003155,-0.007597600109875202
1768216477385072400,9.465072265625,0.0034893862903118134,0.013809260912239552,-0.004293682053685188
1768216477395072500,9.475072509765624,0.006442251615226269,0.016127146780490875,0.0002742502838373184
1768216477405073400,9.485073486328124,0.0065003084018826485,0.014427252113819122,0.0014865212142467499
1768216477415073300,9.4950732421875,0.007414777763187885,0.010525236837565899,0.0006128945387899876
1768216477425074700,9.50507470703125,0.0036836890503764153,0.004502498544752598,0.004395914729684591
1768216477435075600,9.51507568359375,0.0032342923805117607,0.0014165262691676617,0.0038609327748417854
1768216477445075500,9.525075439453126,0.002909919247031212,0.002666614018380642,0.006559513974934816
1768216477455076400,9.535076416015626,0.0012718457728624344,0.003975309897214174,0.008457298390567303
1768216477465076500,9.545076416015625,-0.001686127157881856,0.00452312221750617,0.009487409144639969
1768216477475077400,9.555077392578125,-0.0027896566316485405,0.006802404299378395,0.008838066831231117
1768216477485078500,9.56507861328125,-0.004184886813163757,0.00773397833108902,0.009199725463986397
1768216477495078700,9.57507861328125,-0.003280810546129942,0.010352270677685738,0.009837214834988117
1768216477505079600,9.58507958984375,-0.0042502013966441154,0.007439570967108011,0.013606386259198189
1768216477515080400,9.59508056640625,-0.003264868166297674,0.005810761358588934,0.018913516774773598
1768216477525080300,9.605080322265625,-0.007845505140721798,0.0010596821084618568,0.019672252237796783
1768216477535081500,9.61508154296875,-0.0059026493690907955,-0.0029012872837483883,0.0168122760951519
1768216477545081300,9.625081298828125,-0.005469352938234806,-0.008660638704895973,0.014166959561407566
1768216477555082500,9.63508251953125,-0.006635146681219339,-0.02032269909977913,0.016673345118761063
1768216477565082600,9.64508251953125,-0.009775811806321144,-0.02369239553809166,0.0224998090416193
1768216477575083500,9.65508349609375,-0.008328620344400406,-0.030003447085618973,0.02082154154777527
1768216477585084400,9.66508447265625,-0.009993095882236958,-0.03607412427663803,0.016157280653715134
1768216477595084500,9.67508447265625,-0.009781229309737682,-0.039172347635030746,0.014776211231946945
1768216477605085400,9.68508544921875,-0.0066970232874155045,-0.03865036740899086,0.01595013216137886
1768216477615085300,9.695085205078126,-0.00664039421826601,-0.03730570524930954,0.020480843260884285
1768216477625086500,9.70508642578125,-0.00983352493494749,-0.03602339327335358,0.02086593583226204
1768216477635087600,9.715087646484376,-0.010512162931263447,-0.028562434017658234,0.016420267522335052
1768216477645087500,9.72508740234375,-0.011537746526300907,-0.021965250372886658,0.010682221502065659
1768216477655088400,9.73508837890625,-0.011295816861093044,-0.019380129873752594,0.006109032779932022
1768216477665089300,9.74508935546875,-0.010751200839877129,-0.021127695217728615,0.005933530628681183
1768216477675089400,9.75508935546875,-0.01239014696329832,-0.025493966415524483,0.0010559351649135351
1768216477685090600,9.765090576171875,-0.00961380172520876,-0.03221578523516655,-0.00414335448294878
1768216477695090400,9.77509033203125,-0.007328620180487633,-0.03676177188754082,-0.003112154547125101
1768216477705091600,9.785091552734375,-0.003804991953074932,-0.03923771157860756,0.0009574219584465027
1768216477715092500,9.795092529296875,-0.0025530699640512466,-0.04035262018442154,0.004859430715441704
1768216477725092400,9.80509228515625,-0.0013200266985222697,-0.04055022448301315,0.00947016105055809
1768216477735093500,9.815093505859375,0.0025728540495038033,-0.03736436739563942,0.012002380564808846
1768216477745093600,9.82509375,0.004676219075918198,-0.03247666731476784,0.018940981477499008
1768216477755094500,9.835094482421875,0.005192878656089306,-0.027972286567091942,0.015196803957223892
1768216477765095400,9.845095458984375,0.006698097102344036,-0.027283858507871628,0.01757900044322014
1768216477775095600,9.855095458984374,0.010032779537141323,-0.02821391075849533,0.015142028219997883
1768216477785096400,9.865096435546874,0.01654181070625782,-0.025174181908369064,0.015009668655693531
1768216477795096300,9.875096435546874,0.02234313264489174,-0.020681507885456085,0.016390753909945488
1768216477805097500,9.885097412109374,0.02920236997306347,-0.008024567738175392,0.01665573939681053
1768216477815098600,9.8950986328125,0.03072253428399563,-0.005932812578976154,0.011869027279317379
1768216477825098500,9.905098388671876,0.0322439968585968,-0.01126579288393259,0.009631706401705742
1768216477835099400,9.915099365234376,0.04007453843951225,-0.003831982146948576,0.007645707577466965
1768216477845099500,9.925099609375,0.041532352566719055,0.008068619295954704,0.013321969658136368
1768216477855100400,9.935100341796876,0.040899068117141724,0.02281462959945202,0.019990980625152588
1768216477865101600,9.9451015625,0.0334952138364315,0.02517472207546234,0.03071419708430767
1768216477875101400,9.955101318359375,0.024396449327468872,0.01736629754304886,0.041620608419179916
1768216477885102600,9.9651025390625,0.01333953533321619,0.010862857103347778,0.0518663190305233
1768216477895102500,9.9751025390625,0.004981174133718014,0.006749497260898352,0.05854760855436325
1768216477905103400,9.985103271484375,0.008903478272259235,0.00909520871937275,0.05939715728163719
1768216477915104500,9.9951044921875,0.013632817193865776,0.008253885433077812,0.05570879951119423
1768216477925104400,10.0051044921875,0.01377236656844616,-0.0024261886719614267,0.049189649522304535
1768216477935105500,10.01510546875,0.013562624342739582,-0.013853022828698158,0.03324183449149132
1768216477945105700,10.025105712890625,0.011875244788825512,-0.02278313599526882,0.02121686190366745
1768216477955106600,10.0351064453125,0.00911683402955532,-0.029467877000570297,0.015553017146885395
1768216477965107500,10.045107421875,0.003715144470334053,-0.02226296067237854,0.02643922157585621
1768216477975107300,10.055107421875,-0.00038647407200187445,-0.021360032260417938,0.04387499764561653
1768216477985108500,10.0651083984375,0.00006945908535271883,-0.02318376488983631,0.05385040119290352
1768216477995108400,10.0751083984375,-0.0017900816164910793,-0.023639332503080368,0.0617925263941288
1768216478005109500,10.085109619140624,-0.0001780701568350196,-0.03316732123494148,0.052677057683467865
1768216478015110400,10.0951103515625,-0.002012704499065876,-0.040603913366794586,0.04450208693742752
1768216478025110500,10.105110595703126,-0.005810904316604137,-0.04224974662065506,0.03298790752887726
1768216478035111400,10.115111328125,-0.001565340906381607,-0.042022705078125,0.023588361218571663
1768216478045111300,10.125111328125,0.01062954030930996,-0.05081966519355774,0.02566749043762684
1768216478055112400,10.135112548828126,0.015245712362229824,-0.06174395978450775,0.024117257446050644
1768216478065113600,10.145113525390625,0.01639939285814762,-0.07658841460943222,0.021944383159279823
1768216478075113500,10.155113525390625,0.014692513272166252,-0.08912652730941772,0.018914129585027695
1768216478085114400,10.1651142578125,0.016625434160232544,-0.08471900224685669,0.010075364261865616
1768216478095114500,10.175114501953125,0.015471844002604485,-0.07802215218544006,-0.009851307608187199
1768216478105115400,10.185115478515625,0.01334451138973236,-0.07280422002077103,-0.017257560044527054
1768216478115116500,10.195116455078125,0.00862104445695877,-0.05539395660161972,-0.010738876648247242
1768216478125116700,10.20511669921875,0.004547473043203354,-0.032748032361269,-0.0004705265164375305
1768216478135117600,10.21511767578125,0.0015391475753858685,-0.013676870614290237,0.006829048041254282
1768216478145117400,10.225117431640625,-0.005082802381366491,0.003792134579271078,0.007790449075400829
1768216478155118600,10.23511865234375,-0.008870057761669159,0.012117085978388786,0.0044954316690564156
1768216478165119500,10.245119384765625,-0.01317532453685999,0.02104160562157631,0.0034360261633992195
1768216478175119400,10.255119384765624,-0.017133403569459915,0.027718359604477882,0.008799468167126179
1768216478185120500,10.26512060546875,-0.018453799188137054,0.03208860382437706,0.007357100024819374
1768216478195120600,10.27512060546875,-0.01911783032119274,0.036815036088228226,0.00792879331856966
1768216478205121500,10.28512158203125,-0.018477872014045715,0.03707469627261162,0.00784383900463581
1768216478215122400,10.295122314453126,-0.018320444971323013,0.03733357414603233,0.01010940596461296
1768216478225122600,10.30512255859375,-0.015850096940994263,0.03443259000778198,0.010540305636823177
1768216478235123500,10.31512353515625,-0.014443770982325077,0.025351686403155327,0.008116664364933968
1768216478245123300,10.325123291015625,-0.014048291370272636,0.0176136065274477,0.007822917774319649
1768216478255124500,10.33512451171875,-0.012194754555821419,0.005757281556725502,0.004368969704955816
1768216478265125600,10.345125732421875,-0.009692714549601078,-0.00166441616602242,0.0009145836811512709
1768216478275125500,10.35512548828125,-0.009155181236565113,-0.004233488347381353,-0.0019805082120001316
1768216478285126400,10.36512646484375,-0.006960203871130943,-0.0013466216623783112,-0.0012683789245784283
1768216478295126500,10.37512646484375,-0.005554321222007275,-0.0028358614072203636,-0.0028233984485268593
1768216478305127400,10.38512744140625,-0.005427021998912096,0.0006981533952057362,-0.0010033943690359592
1768216478315128600,10.395128662109375,-0.002227446064352989,0.004841272719204426,-0.0005558342672884464
1768216478325128400,10.40512841796875,-0.00031023623887449503,0.007753439247608185,0.0005850638262927532
1768216478335129000,10.415129150390625,0.00011230551172047853,0.01374431885778904,-0.0018262318335473537
1768216478345129000,10.42512890625,-0.0023993216454982758,0.013758964836597443,-0.004263023845851421
1768216478355129900,10.4351298828125,-0.011218736879527569,0.010178552940487862,-0.006348710041493177
1768216478365131000,10.445131103515624,-0.017121899873018265,0.001228467095643282,-0.015321698039770126
1768216478375131100,10.455131103515624,-0.017932148650288582,-0.005057915113866329,-0.02230503223836422
1768216478385132000,10.465132080078124,-0.01647646352648735,-0.007851570844650269,-0.02903643622994423
1768216478395132200,10.475132080078126,-0.01297076977789402,-0.012179533019661903,-0.03208751976490021
1768216478405133000,10.485133056640626,-0.0033455733209848404,-0.01672554947435856,-0.031359411776065826
1768216478415134000,10.495134033203126,0.004105944652110338,-0.010982885956764221,-0.02700616791844368
1768216478425133800,10.5051337890625,0.008957691490650177,-0.004401149228215218,-0.026670876890420914
1768216478435135200,10.51513525390625,0.010473756119608879,0.0077028777450323105,-0.023030102252960205
1768216478445135000,10.525135009765625,0.013541718013584614,0.022472236305475235,-0.013170814141631126
1768216478455136000,10.535135986328125,0.014020766131579876,0.03035302460193634,-0.010168514214456081
1768216478465137000,10.545136962890625,0.008767414838075638,0.0407089926302433,-0.003890644758939743
1768216478475137000,10.555136962890625,0.0043375855311751366,0.03900540992617607,-0.0045327008701860905
1768216478485138000,10.565137939453125,-0.0010880723129957914,0.03202206641435623,-0.009765811264514923
1768216478495138000,10.575137939453125,-0.005293161608278751,0.012945260852575302,-0.015886329114437103
1768216478505139200,10.58513916015625,-0.003271023742854595,0.0038449736312031746,-0.023947451263666153
1768216478515140000,10.59514013671875,-0.0035508116707205772,-0.0010429334361106157,-0.028635896742343903
1768216478525140000,10.605139892578125,-0.0012975111603736877,-0.003310881555080414,-0.025699762627482414
1768216478535140900,10.615140869140625,0.003638263326138258,-0.003337058238685131,-0.02262878604233265
1768216478545141000,10.62514111328125,0.0043613119050860405,0.0018047066405415535,-0.023524407297372818
1768216478555142000,10.635141845703124,-0.0002575966063886881,0.006002351175993681,-0.017560549080371857
1768216478565143000,10.64514306640625,0.000011915341019630432,0.018969282507896423,-0.0146302729845047
1768216478575143200,10.65514306640625,-0.0000083183404058218,0.029528360813856125,-0.009422766044735909
1768216478585144000,10.66514404296875,0.0041030696593225,0.03870081901550293,-0.005383549723774195
1768216478595144000,10.67514404296875,0.009524497203528881,0.034974366426467896,-0.0006531886756420135
1768216478605145000,10.68514501953125,0.013383683748543262,0.023297738283872604,-0.004948867484927177
1768216478615146000,10.69514599609375,0.014121325686573982,0.015441372990608215,-0.012204265221953392
1768216478625145900,10.705145751953125,0.01350773312151432,0.009916646406054497,-0.01839158684015274
1768216478635147000,10.71514697265625,0.015471747145056725,-0.0006218764465302229,-0.03638077899813652
1768216478645147100,10.725147216796875,0.012923101894557476,-0.010053461417555809,-0.046572696417570114
1768216478655148000,10.73514794921875,0.009464079514145851,-0.004618561826646328,-0.04679403454065323
1768216478665149000,10.74514892578125,0.0020074951462447643,0.005203442648053169,-0.051221542060375214
1768216478675149000,10.755149169921875,-0.0010645217262208462,0.025322875007987022,-0.06802619993686676
1768216478685150000,10.76514990234375,0.0006755877402611077,0.04710114002227783,-0.08629895001649857
1768216478695150000,10.775150146484375,-0.0007568116998299956,0.06533925980329514,-0.10649529844522476
1768216478705151000,10.78515087890625,0.0004306917544454336,0.05947178602218628,-0.12314192205667496
1768216478715152100,10.795152099609375,-0.005083008203655481,0.03535613790154457,-0.12040150165557861
1768216478725152000,10.805152099609375,-0.014032561331987381,-0.02259957417845726,-0.10144299268722534
1768216478735153000,10.81515283203125,-0.017164358869194984,-0.08519749343395233,-0.062462568283081055
1768216478745153000,10.825153076171874,-0.022468309849500656,-0.15325669944286346,-0.03717878460884094
1768216478755154200,10.835154296875,-0.016893111169338226,-0.18611086905002594,-0.024660512804985046
1768216478765155000,10.845155029296874,-0.0052950442768633366,-0.1797879934310913,-0.02130173332989216
1768216478775155000,10.855155029296874,-0.0017625967739149928,-0.15386733412742615,-0.019265692681074142
1768216478785156000,10.865156005859374,0.013654176145792007,-0.12152031809091568,-0.009458600543439388
1768216478795156000,10.875156005859376,0.02691645361483097,-0.08015237003564835,0.0007964333053678274
1768216478805156900,10.885156982421876,0.029736649245023727,-0.04438617825508118,0.012792211025953293
1768216478815158000,10.895157958984376,0.01648079603910446,-0.032177336513996124,0.015787523239850998
1768216478825158100,10.905158203125,0.004152756184339523,-0.0036322451196610928,0.011748041026294231
1768216478835159000,10.915158935546875,-0.010443315841257572,0.004133916459977627,0.006623116321861744
1768216478845159200,10.9251591796875,-0.015679355710744858,0.0022926069796085358,0.0043434505350887775
1768216478855160000,10.93516015625,-0.014906696043908596,-0.006297714076936245,0.012294560670852661
1768216478865161000,10.945160888671875,-0.008706856518983841,-0.0013178694061934948,0.022671034559607506
1768216478875160800,10.955160888671875,-0.00234488514252007,0.021269958466291428,0.02726057916879654
1768216478885162200,10.965162353515625,0.0007473112782463431,0.03445606678724289,0.030117351561784744
1768216478895162000,10.975162109375,0.003374283667653799,0.03611212968826294,0.031408507376909256
1768216478905163000,10.9851630859375,0.003886143211275339,0.03291899710893631,0.02770724520087242
1768216478915164000,10.995163818359375,-0.00046563090290874243,0.040406182408332825,0.02138395980000496
1768216478925164000,11.0051640625,-0.02537071518599987,0.0863955095410347,-0.0143745681270957
1768216478935165000,11.0151650390625,-0.019588230177760124,0.08333338797092438,-0.010464532300829887
1768216478945164800,11.025164794921874,-0.016897905617952347,0.07949630916118622,0.008962961845099926
1768216478955166200,11.035166259765624,-0.012777666561305523,0.09028977900743484,0.019123030826449394
1768216478965167000,11.0451669921875,-0.01819746568799019,0.09541130810976028,0.022151311859488487
1768216478975167000,11.0551669921875,-0.02305394411087036,0.0940980538725853,0.022352756932377815
1768216478985168000,11.06516796875,-0.01878170296549797,0.07965919375419617,0.023990601301193237
1768216478995168000,11.07516796875,-0.013390878215432167,0.04969813674688339,0.025062404572963715
1768216479005169000,11.0851689453125,-0.012446255423128605,0.03335697948932648,0.016781039535999298
1768216479015170000,11.095170166015626,-0.008792930282652378,0.025633281096816063,0.0007285692263394594
1768216479025170200,11.105170166015625,-0.0066717229783535,0.018542082980275154,-0.012335834093391895
1768216479035171000,11.115171142578125,-0.008632868528366089,0.024036360904574394,-0.019619617611169815
1768216479045171000,11.1251708984375,-0.009118895046412945,0.03268710523843765,-0.018667537719011307
1768216479055171800,11.135171875,-0.014346649870276451,0.04306608438491821,-0.01018504798412323
1768216479065173000,11.145173095703125,-0.01577836647629738,0.05870816856622696,0.000787707744166255
1768216479075172900,11.1551728515625,-0.01374740805476904,0.04986950755119324,0.0035430691204965115
1768216479085174000,11.165174072265625,-0.007969946600496769,0.044740524142980576,0.0031686287838965654
1768216479095174100,11.175174072265625,-0.010059881024062634,0.027765527367591858,0.010132786817848682
1768216479105175000,11.185175048828125,-0.010098762810230255,0.02836793288588524,0.016749411821365356
1768216479115176000,11.195176025390625,-0.00833350419998169,0.03016023151576519,0.02733094058930874
1768216479125176000,11.205176025390625,-0.008506876416504383,0.03604608029127121,0.03592602536082268
1768216479135177200,11.21517724609375,-0.01108780037611723,0.04395003989338875,0.04383520036935806
1768216479145177000,11.225177001953124,-0.015622098930180073,0.056371286511421204,0.04616732895374298
1768216479155178000,11.235177978515624,-0.017088554799556732,0.07615600526332855,0.04109112545847893
1768216479165179100,11.24517919921875,-0.021914202719926834,0.09860139340162277,0.03248458728194237
1768216479175179000,11.255178955078126,-0.025364946573972702,0.10968106985092163,0.029373811557888985
1768216479185180000,11.265179931640626,-0.026425417512655258,0.09820391237735748,0.0189382154494524
1768216479195180000,11.275179931640626,-0.024206120520830154,0.08944278210401535,0.011638429015874863
1768216479205181200,11.28518115234375,-0.019742129370570183,0.07242251932621002,0.01793387532234192
1768216479215182000,11.29518212890625,-0.016131531447172165,0.05221473425626755,0.02656305767595768
1768216479225182000,11.305181884765625,-0.013488076627254486,0.01998063363134861,0.024300169199705124
1768216479235183000,11.31518310546875,-0.010610652156174183,-0.0002944462466984987,0.01638556830585003
1768216479245183000,11.325182861328125,-0.008151755668222904,-0.007278585806488991,0.005786986090242863
1768216479255184000,11.335183837890625,-0.004883821588009596,-0.005557759664952755,-0.005384230986237526
1768216479265185000,11.34518505859375,-0.004119228105992079,0.005656545516103506,-0.009947024285793304
1768216479275185200,11.35518505859375,-0.004846834111958742,0.012035506777465343,-0.0035107522271573544
1768216479285186000,11.36518603515625,-0.001216679229401052,0.018325891345739365,0.0019410050008445978
1768216479295186000,11.37518603515625,-0.0012757709482684731,0.018360888585448265,0.0017826019320636988
1768216479305187000,11.38518701171875,-0.004704590886831284,0.01189313642680645,-0.0001074434258043766
1768216479315187000,11.39518701171875,-0.006395177915692329,0.010734837502241135,-0.0024094032123684883
1768216479325187800,11.405187744140624,-0.0042175110429525375,0.01305258646607399,-0.0034504327923059464
1768216479335189200,11.415189208984375,-0.0013033594004809856,0.017093302682042122,0.0018300367519259453
1768216479345189400,11.425189453125,-0.0009659368079155684,0.01834205910563469,0.004681217018514872
1768216479355190300,11.435190185546874,0.00344015471637249,0.022348439320921898,0.002622030209749937
1768216479365191400,11.44519140625,0.004990380723029375,0.02440786175429821,0.003582366043701768
1768216479375191600,11.455191650390624,0.006273279897868633,0.019537245854735374,0.0014272183179855347
1768216479385192400,11.4651923828125,0.006668759044259787,0.021949803456664085,-0.0036197383888065815
1768216479395192300,11.4751923828125,0.009882806800305843,0.02066599205136299,-0.0029134214855730534
1768216479405193200,11.485193115234376,0.010856191627681255,0.024586431682109833,-0.0004172404296696186
1768216479415194400,11.4951943359375,0.010808104649186134,0.03154686093330383,0.005302689038217068
1768216479425194200,11.5051943359375,0.012414257042109966,0.04193345457315445,0.012906013987958431
1768216479435195400,11.5151953125,0.010540765710175037,0.05652564391493797,0.015209625475108624
1768216479445195500,11.525195556640625,0.011349568143486977,0.07139327377080917,0.012665774673223495
1768216479455196400,11.535196533203125,0.005309802480041981,0.07365591824054718,0.013277634978294373
1768216479465196300,11.5451962890625,0.0016077420441433787,0.06135663762688637,0.015868891030550003
1768216479475197400,11.555197509765625,0.0014868710422888398,0.055055882781744,0.018038051202893257
1768216479485198300,11.5651982421875,0.00135690881870687,0.05401884764432907,0.010384391993284225
1768216479495198200,11.5751982421875,0.0002503532450646162,0.049314018338918686,0.006472818553447723
1768216479505199400,11.585199462890625,-0.002781921997666359,0.03851836547255516,0.004263992886990309
1768216479515199500,11.595199462890625,-0.0032807562965899706,0.028081238269805908,0.006727590225636959
1768216479525200400,11.605200439453125,-0.0017640863079577684,0.025222335010766983,0.0063393013551831245
1768216479535201300,11.615201171875,-0.0016552107408642769,0.01911611109972,0.00471618352457881
1768216479545201400,11.625201416015624,-0.0029721439350396395,0.01399245485663414,0.0072240824811160564
1768216479555202300,11.635202392578124,-0.0003624341916292906,0.019858039915561676,0.003927330952137709
1768216479565202200,11.6452021484375,0.0012375930091366172,0.02517956867814064,0.0031917658634483814
1768216479575203300,11.655203369140626,0.0011950492626056075,0.027334725484251976,0.002016318030655384
1768216479585204500,11.66520458984375,0.0011796029284596443,0.027272140607237816,0.00007647136226296425
1768216479595204400,11.675204345703126,0.0017602023435756564,0.025053303688764572,-0.004386133514344692
1768216479605205200,11.685205322265626,-0.0000046745408326387405,0.024833325296640396,-0.009452796541154385
1768216479615205400,11.695205322265625,0.00019811349920928478,0.023615896701812744,-0.006392871029675007
1768216479625206500,11.70520654296875,0.0008580447756685317,0.028933696448802948,-0.0025488645769655704
1768216479635207400,11.71520751953125,0.00009617488831281662,0.035786762833595276,-0.0018805679865181446
1768216479645207300,11.725207275390625,0.001004845486022532,0.043854810297489166,-0.004689403809607029
1768216479655208400,11.73520849609375,0.0020853618625551462,0.05280468240380287,-0.008296907879412174
1768216479665208300,11.745208251953125,0.00857042521238327,0.06147700175642967,-0.01058696024119854
1768216479675209200,11.755209228515625,0.011201375164091587,0.06180359423160553,-0.01348322443664074
1768216479685210400,11.76521044921875,0.013968666084110737,0.0603572353720665,-0.01078251376748085
1768216479695210500,11.77521044921875,0.01827002689242363,0.05912531539797783,-0.005125261843204498
1768216479705211400,11.78521142578125,0.02007192187011242,0.06694116443395615,-0.0026399996131658554
1768216479715211300,11.795211181640624,0.020069578662514687,0.08197900652885437,0.0007484883535653353
1768216479725212400,11.80521240234375,0.021273594349622726,0.08890615403652191,-0.0009130579419434071
1768216479735213300,11.81521337890625,0.020945614203810692,0.09522759914398193,-0.007340909913182259
1768216479745213200,11.825213134765624,0.01948247291147709,0.09310745447874069,-0.012868832796812057
1768216479755214300,11.83521435546875,0.020505715161561966,0.0940672978758812,-0.013021551072597504
1768216479765214500,11.84521435546875,0.021825309842824936,0.08603121340274811,-0.010323768481612206
1768216479775215400,11.85521533203125,0.018107889220118523,0.0803748071193695,-0.006246531382203102
1768216479785216300,11.86521630859375,0.013476385734975338,0.07704878598451614,-0.004892048425972462
1768216479795216400,11.87521630859375,0.00786275789141655,0.07611917704343796,-0.006768306717276573
1768216479805217300,11.88521728515625,0.004609174560755491,0.07112042605876923,-0.010425092652440071
1768216479815217200,11.895217041015625,0.003354364074766636,0.06708499789237976,-0.007569370791316032
1768216479825218600,11.905218505859375,0.0011221026070415974,0.06229078024625778,-0.0014070821925997734
1768216479835219500,11.915219482421875,0.001457886304706335,0.059105951339006424,0.0013306871987879276
1768216479845219300,11.92521923828125,-0.0025879882741719484,0.0428372286260128,0.003471602452918887
1768216479855220200,11.93522021484375,-0.007915813475847244,0.03476864472031593,0.0009899104479700327
