time,seconds_elapsed,z,y,x
1768416580584848600,0.0458486328125,0.08905029296875,-0.9775390625,-0.1263427734375
1768416580594849500,0.055849609375,0.091583251953125,-0.9769134521484375,-0.12640380859375
1768416580604850400,0.065850341796875,0.092315673828125,-0.983062744140625,-0.1259613037109375
1768416580614852400,0.075852294921875,0.09063720703125,-0.9875335693359375,-0.1262969970703125
1768416580624853500,0.085853515625,0.0913848876953125,-0.9915618896484375,-0.127655029296875
1768416580634854700,0.095854736328125,0.0933074951171875,-0.993896484375,-0.1280364990234375
1768416580644856600,0.105856689453125,0.0901031494140625,-0.9921875,-0.1251678466796875
1768416580654857700,0.115857666015625,0.0866546630859375,-0.990692138671875,-0.121124267578125
1768416580664858600,0.125858642578125,0.0870819091796875,-0.991790771484375,-0.121734619140625
1768416580674859500,0.135859619140625,0.089019775390625,-0.993316650390625,-0.1248321533203125
1768416580684861400,0.145861328125,0.089630126953125,-0.992218017578125,-0.1290435791015625
1768416580694862600,0.155862548828125,0.0839080810546875,-0.99078369140625,-0.1314239501953125
1768416580704863500,0.165863525390625,0.078704833984375,-0.9890899658203125,-0.1302337646484375
1768416580714865400,0.175865478515625,0.078643798828125,-0.9874420166015625,-0.131744384765625
1768416580724866600,0.185866455078125,0.0785980224609375,-0.9919281005859375,-0.1356353759765625
1768416580734867500,0.195867431640625,0.077362060546875,-0.9962005615234375,-0.13751220703125
1768416580744869400,0.205869384765625,0.077667236328125,-0.997650146484375,-0.1409759521484375
1768416580754870500,0.21587060546875,0.0753326416015625,-0.9952545166015625,-0.1446990966796875
1768416580764871700,0.22587158203125,0.0750579833984375,-0.9926605224609375,-0.1490478515625
1768416580774872600,0.23587255859375,0.0728759765625,-0.98785400390625,-0.15533447265625
1768416580784874500,0.24587451171875,0.0691680908203125,-0.9827117919921875,-0.1602935791015625
1768416580794875600,0.255875732421875,0.0605621337890625,-0.97760009765625,-0.16455078125
1768416580804876500,0.26587646484375,0.0545654296875,-0.9776458740234375,-0.1666259765625
1768416580814878500,0.27587841796875,0.0502166748046875,-0.9774017333984375,-0.1711883544921875
1768416580824879400,0.28587939453125,0.0484466552734375,-0.982818603515625,-0.17529296875
1768416580834880500,0.295880615234375,0.0431365966796875,-0.98687744140625,-0.1786956787109375
1768416580844882400,0.30588232421875,0.0336151123046875,-0.9902191162109375,-0.1806640625
1768416580854883300,0.31588330078125,0.0240478515625,-0.9955596923828125,-0.1827850341796875
1768416580864884700,0.325884765625,0.016693115234375,-1.002044677734375,-0.188262939453125
1768416580874885600,0.3358857421875,0.0066680908203125,-1.012664794921875,-0.1940765380859375
1768416580884887600,0.345887451171875,0.00091552734375,-1.018585205078125,-0.19354248046875
1768416580894888700,0.355888671875,-0.0027313232421875,-1.0232391357421875,-0.1890106201171875
1768416580904889600,0.3658896484375,-0.0011138916015625,-1.0250244140625,-0.181365966796875
1768416580914891500,0.3758916015625,0.0042572021484375,-1.0220489501953125,-0.1713409423828125
1768416580924892400,0.385892333984375,0.01519775390625,-1.0128326416015625,-0.1613006591796875
1768416580934893600,0.3958935546875,0.022430419921875,-1.0010986328125,-0.152252197265625
1768416580944895500,0.4058955078125,0.0228271484375,-0.9903411865234375,-0.142333984375
1768416580954896400,0.415896484375,0.02484130859375,-0.9812164306640625,-0.1339569091796875
1768416580964897500,0.4258974609375,0.0317535400390625,-0.9753570556640625,-0.12939453125
1768416580974899500,0.4358994140625,0.037200927734375,-0.9736328125,-0.1275482177734375
1768416580984900400,0.445900390625,0.0441741943359375,-0.9744873046875,-0.1282806396484375
1768416580994901500,0.455901611328125,0.053009033203125,-0.9753875732421875,-0.1305999755859375
1768416581004902700,0.465902587890625,0.0561065673828125,-0.979705810546875,-0.13818359375
1768416581014904600,0.475904541015625,0.0585479736328125,-0.9810791015625,-0.1354827880859375
1768416581024905500,0.485905517578125,0.0603790283203125,-0.9853515625,-0.12786865234375
1768416581034906600,0.49590673828125,0.058624267578125,-0.9920196533203125,-0.1147003173828125
1768416581044908500,0.505908447265625,0.0588836669921875,-0.9928131103515625,-0.0933990478515625
1768416581054909400,0.515909423828125,0.05218505859375,-0.9898529052734375,-0.0797882080078125
1768416581064910300,0.525910400390625,0.0388031005859375,-0.983245849609375,-0.0695037841796875
1768416581074912500,0.53591259765625,0.0224151611328125,-0.9727935791015625,-0.0491790771484375
1768416581084913400,0.545913330078125,0.016326904296875,-0.969757080078125,-0.0191802978515625
1768416581094914600,0.55591455078125,0.0365447998046875,-0.974456787109375,0.005889892578125
1768416581104915700,0.565915771484375,0.0523529052734375,-0.98748779296875,0.029083251953125
1768416581114917600,0.575917724609375,0.06982421875,-1.0023651123046875,0.0430450439453125
1768416581124918500,0.58591845703125,0.090179443359375,-1.0228729248046875,0.0473175048828125
1768416581134919700,0.595919677734375,0.1003875732421875,-1.044769287109375,0.0424346923828125
1768416581144921600,0.605921630859375,0.0955810546875,-1.0556640625,0.031097412109375
1768416581154922500,0.615922607421875,0.0806121826171875,-1.0563507080078125,0.0103302001953125
1768416581164923400,0.62592333984375,0.05206298828125,-1.0505218505859375,-0.01568603515625
1768416581174925600,0.635925537109375,0.022216796875,-1.036956787109375,-0.0417633056640625
1768416581184926500,0.645926513671875,-0.0013885498046875,-1.01824951171875,-0.0588531494140625
1768416581194927400,0.65592724609375,-0.0050811767578125,-0.9977874755859375,-0.0753326416015625
1768416581204928500,0.665928466796875,0.005279541015625,-0.9844970703125,-0.086761474609375
1768416581214930400,0.675930419921875,0.015594482421875,-0.974945068359375,-0.090545654296875
1768416581224931600,0.685931640625,0.026031494140625,-0.9644927978515625,-0.086944580078125
1768416581234932500,0.695932373046875,0.0362396240234375,-0.956024169921875,-0.077239990234375
1768416581244934700,0.7059345703125,0.0474853515625,-0.9456329345703125,-0.0594635009765625
1768416581254935600,0.715935546875,0.0541534423828125,-0.9337310791015625,-0.0361480712890625
1768416581264936400,0.7259365234375,0.052978515625,-0.927337646484375,-0.0123443603515625
1768416581274938600,0.735938720703125,0.0391693115234375,-0.928466796875,0.0047760009765625
1768416581284939500,0.745939453125,0.0171356201171875,-0.9405364990234375,0.017852783203125
1768416581294940400,0.7559404296875,-0.001739501953125,-0.956451416015625,0.028961181640625
1768416581304943600,0.765943603515625,-0.00885009765625,-0.9731597900390625,0.0325164794921875
1768416581314944500,0.775944580078125,-0.005157470703125,-0.9942626953125,0.0280914306640625
1768416581324945400,0.7859453125,0.0043792724609375,-1.016204833984375,0.0161590576171875
1768416581334946600,0.795946533203125,0.019256591796875,-1.0302581787109375,0.00689697265625
1768416581344948500,0.805948486328125,0.0275115966796875,-1.03826904296875,0.0000762939453125
1768416581354949400,0.815949462890625,0.0265960693359375,-1.039703369140625,-0.0080413818359375
1768416581364950800,0.82595068359375,0.022369384765625,-1.035308837890625,-0.015655517578125
1768416581374952400,0.835952392578125,0.01226806640625,-1.02783203125,-0.022918701171875
1768416581384953600,0.84595361328125,0.0013427734375,-1.01678466796875,-0.0323486328125
1768416581394954800,0.855954833984375,-0.007598876953125,-1.007293701171875,-0.039276123046875
1768416581404956700,0.865956787109375,-0.01287841796875,-0.9980621337890625,-0.043487548828125
1768416581414957600,0.87595751953125,-0.014801025390625,-0.99066162109375,-0.048492431640625
1768416581424958500,0.88595849609375,-0.012420654296875,-0.991119384765625,-0.0566253662109375
1768416581434960600,0.895960693359375,-0.0091400146484375,-0.99652099609375,-0.07086181640625
1768416581444961500,0.90596142578125,-0.0066680908203125,-1.0064239501953125,-0.0809783935546875
1768416581454962400,0.91596240234375,-0.004638671875,-1.012969970703125,-0.0892791748046875
1768416581464963600,0.925963623046875,-0.0033416748046875,-1.0110015869140625,-0.0894927978515625
1768416581474965500,0.935965576171875,-0.0012054443359375,-1.00103759765625,-0.0821075439453125
1768416581484966400,0.94596630859375,-0.001678466796875,-0.9993438720703125,-0.0808258056640625
1768416581494967600,0.955967529296875,-0.000885009765625,-1.0131988525390625,-0.092041015625
1768416581504969500,0.965969482421875,0.019256591796875,-1.0171356201171875,-0.088836669921875
1768416581514970600,0.975970703125,0.057525634765625,-1.009490966796875,-0.078887939453125
1768416581524971500,0.985971435546875,0.099273681640625,-1.0089569091796875,-0.0881500244140625
1768416581534973700,0.9959736328125,0.12744140625,-1.0255126953125,-0.1092987060546875
1768416581544974600,1.005974609375,0.1392059326171875,-1.0477752685546875,-0.114898681640625
1768416581554975500,1.0159755859375,0.1430206298828125,-1.0590972900390625,-0.0919036865234375
1768416581564976400,1.025976318359375,0.1432952880859375,-1.0565338134765625,-0.0459136962890625
1768416581574978600,1.035978515625,0.1321563720703125,-1.0451812744140625,-0.0011444091796875
1768416581584979500,1.0459794921875,0.117095947265625,-1.02679443359375,0.0245208740234375
1768416581594980400,1.05598046875,0.106658935546875,-1.004241943359375,0.0250091552734375
1768416581604982500,1.065982421875,0.0938720703125,-0.9827880859375,0.0149993896484375
1768416581614983700,1.075983642578125,0.088592529296875,-0.974151611328125,-0.01666259765625
1768416581624984600,1.085984619140625,0.0956573486328125,-0.979766845703125,-0.0694580078125
1768416581634986800,1.09598681640625,0.1085205078125,-0.9937286376953125,-0.1277008056640625
1768416581644987600,1.105987548828125,0.1143035888671875,-1.011566162109375,-0.181671142578125
1768416581654988500,1.115988525390625,0.108184814453125,-1.027008056640625,-0.226409912109375
1768416581664990700,1.12599072265625,0.0867462158203125,-1.0330047607421875,-0.2483062744140625
1768416581674991600,1.13599169921875,0.071624755859375,-1.0284881591796875,-0.249114990234375
1768416581684992500,1.145992431640625,0.0615234375,-1.0142059326171875,-0.2294769287109375
1768416581694993400,1.155993408203125,0.0565338134765625,-0.992950439453125,-0.195526123046875
1768416581704995600,1.16599560546875,0.06671142578125,-0.9632720947265625,-0.1511993408203125
1768416581714996500,1.17599658203125,0.084686279296875,-0.9351043701171875,-0.1151275634765625
1768416581724997600,1.18599755859375,0.1027984619140625,-0.908233642578125,-0.087371826171875
1768416581734999600,1.19599951171875,0.114532470703125,-0.88909912109375,-0.0684967041015625
1768416581745000700,1.206000732421875,0.1110687255859375,-0.8835296630859375,-0.066436767578125
1768416581755001600,1.216001708984375,0.1023101806640625,-0.88665771484375,-0.0927276611328125
1768416581765003800,1.226003662109375,0.0938720703125,-0.8992919921875,-0.1277313232421875
1768416581775004700,1.236004638671875,0.07806396484375,-0.92242431640625,-0.159210205078125
1768416581785005600,1.246005615234375,0.0617828369140625,-0.94610595703125,-0.1884918212890625
1768416581795007500,1.256007568359375,0.054595947265625,-0.9692535400390625,-0.2105255126953125
1768416581805008600,1.266008544921875,0.0544281005859375,-1.0006103515625,-0.226654052734375
1768416581815009500,1.276009521484375,0.04290771484375,-1.0293121337890625,-0.2240753173828125
1768416581825010400,1.286010498046875,0.0233917236328125,-1.045013427734375,-0.2058563232421875
1768416581835012600,1.2960126953125,0.0171356201171875,-1.0473480224609375,-0.1912078857421875
1768416581845013500,1.306013427734375,0.0281982421875,-1.0430450439453125,-0.1813507080078125
1768416581855014700,1.3160146484375,0.0433502197265625,-1.037139892578125,-0.178253173828125
1768416581865016600,1.3260166015625,0.0498504638671875,-1.025909423828125,-0.1824493408203125
1768416581875017700,1.336017822265625,0.0429534912109375,-1.0099334716796875,-0.192291259765625
1768416581885018600,1.3460185546875,0.0447998046875,-0.9982452392578125,-0.2153472900390625
1768416581895020500,1.3560205078125,0.05633544921875,-0.9876708984375,-0.2565460205078125
1768416581905021700,1.366021728515625,0.0635986328125,-0.968994140625,-0.3007965087890625
1768416581915022600,1.376022705078125,0.0484161376953125,-0.9454498291015625,-0.33587646484375
1768416581925024500,1.3860244140625,0.0340423583984375,-0.9156646728515625,-0.3516998291015625
1768416581935025400,1.396025390625,0.0260162353515625,-0.8973236083984375,-0.341583251953125
1768416581945026600,1.406026611328125,0.017486572265625,-0.8899688720703125,-0.311859130859375
1768416581955027500,1.41602734375,0.0095062255859375,-0.8850555419921875,-0.282562255859375
1768416581965029400,1.426029296875,0.0012359619140625,-0.891937255859375,-0.250244140625
1768416581975030800,1.43603076171875,0.0081634521484375,-0.910797119140625,-0.219970703125
1768416581985031700,1.44603173828125,0.0288238525390625,-0.925537109375,-0.2017669677734375
1768416581995033600,1.45603369140625,0.0545654296875,-0.9275665283203125,-0.2103271484375
1768416582005034500,1.466034423828125,0.07318115234375,-0.931640625,-0.20574951171875
1768416582015035600,1.47603564453125,0.089935302734375,-0.932708740234375,-0.20965576171875
1768416582025037600,1.48603759765625,0.1043853759765625,-0.927032470703125,-0.2159271240234375
1768416582035038500,1.49603857421875,0.1113128662109375,-0.97119140625,-0.173309326171875
1768416582045039600,1.50603955078125,0.1298980712890625,-1.03521728515625,-0.14239501953125
1768416582055041500,1.51604150390625,0.1234283447265625,-1.1139984130859375,-0.109375
1768416582065042400,1.52604248046875,0.1394805908203125,-1.20220947265625,-0.042755126953125
1768416582075043600,1.536043701171875,0.2180938720703125,-1.2494354248046875,-0.021026611328125
1768416582085044700,1.546044677734375,0.2931365966796875,-1.230255126953125,-0.0613250732421875
1768416582095046400,1.55604638671875,0.2771759033203125,-1.1336212158203125,-0.121978759765625
1768416582105047600,1.566047607421875,0.1638946533203125,-0.99285888671875,-0.1625213623046875
1768416582115048700,1.576048583984375,0.0607452392578125,-0.8672637939453125,-0.1700897216796875
1768416582125050600,1.586050537109375,0.0193939208984375,-0.7924041748046875,-0.1610870361328125
1768416582135051500,1.596051513671875,0.01300048828125,-0.783905029296875,-0.1354522705078125
1768416582145052700,1.606052734375,0.00836181640625,-0.8307342529296875,-0.1246337890625
1768416582155054600,1.6160546875,0.019317626953125,-0.8964996337890625,-0.1368865966796875
1768416582165055500,1.626055419921875,0.0367431640625,-0.9657440185546875,-0.1539764404296875
1768416582175056400,1.636056396484375,0.05499267578125,-1.02850341796875,-0.1726226806640625
1768416582185057500,1.6460576171875,0.077239990234375,-1.0727996826171875,-0.1967010498046875
1768416582195059500,1.6560595703125,0.1077423095703125,-1.103424072265625,-0.2152862548828125
1768416582205060600,1.666060546875,0.1408233642578125,-1.11077880859375,-0.2234954833984375
1768416582215061800,1.676061767578125,0.1664581298828125,-1.095123291015625,-0.210418701171875
1768416582225063700,1.686063720703125,0.173248291015625,-1.0614166259765625,-0.1940155029296875
1768416582235064600,1.696064697265625,0.1623992919921875,-1.0150146484375,-0.168060302734375
1768416582245065500,1.7060654296875,0.1459503173828125,-0.970977783203125,-0.1430511474609375
1768416582255067600,1.716067626953125,0.1337890625,-0.93951416015625,-0.12432861328125
1768416582265068500,1.726068603515625,0.12225341796875,-0.93011474609375,-0.1099853515625
1768416582275069400,1.7360693359375,0.114105224609375,-0.939422607421875,-0.1001129150390625
1768416582285071600,1.746071533203125,0.1094512939453125,-0.945220947265625,-0.1038970947265625
1768416582295072500,1.756072509765625,0.101287841796875,-0.9593353271484375,-0.1144866943359375
1768416582305073000,1.766072998046875,0.1132354736328125,-0.9835662841796875,-0.120086669921875
1768416582315074000,1.776073974609375,0.137908935546875,-1.0055999755859375,-0.117279052734375
1768416582325076000,1.786075927734375,0.1602783203125,-1.0103912353515625,-0.1255950927734375
1768416582335076900,1.796076904296875,0.170562744140625,-1.00543212890625,-0.1387481689453125
1768416582345078000,1.806078125,0.167327880859375,-0.9957122802734375,-0.1309967041015625
1768416582355080000,1.816079833984375,0.15380859375,-0.9918670654296875,-0.1227264404296875
1768416582365080800,1.826080810546875,0.14044189453125,-0.986328125,-0.1150665283203125
1768416582375082000,1.83608203125,0.134002685546875,-0.9852294921875,-0.1089324951171875
1768416582385084000,1.846083984375,0.131866455078125,-0.9918975830078125,-0.1000213623046875
1768416582395084800,1.856084716796875,0.1318359375,-0.9975128173828125,-0.0897979736328125
1768416582405085700,1.866085693359375,0.129241943359375,-1.001373291015625,-0.0875396728515625
1768416582415087900,1.876087890625,0.1249847412109375,-1.0017547607421875,-0.089202880859375
1768416582425088800,1.8860888671875,0.1221923828125,-0.999420166015625,-0.090850830078125
1768416582435090000,1.89608984375,0.1266326904296875,-0.9937744140625,-0.0894927978515625
1768416582445091000,1.906091064453125,0.12841796875,-0.991973876953125,-0.0849609375
1768416582455093000,1.916093017578125,0.129058837890625,-0.993865966796875,-0.08477783203125
1768416582465094000,1.926093994140625,0.1257781982421875,-0.9907684326171875,-0.09185791015625
1768416582475094800,1.9360947265625,0.119384765625,-0.9829864501953125,-0.1025238037109375
1768416582485097000,1.946096923828125,0.1206817626953125,-0.97760009765625,-0.1147918701171875
1768416582495097900,1.956097900390625,0.1226043701171875,-0.973663330078125,-0.1197509765625
1768416582505098800,1.9660986328125,0.130126953125,-0.976776123046875,-0.122283935546875
1768416582515101000,1.976100830078125,0.139404296875,-0.9765777587890625,-0.12884521484375
1768416582525101800,1.986101806640625,0.13775634765625,-0.969146728515625,-0.134246826171875
1768416582535102700,1.996102783203125,0.128509521484375,-0.964813232421875,-0.1314849853515625
1768416582545105000,2.00610498046875,0.1233673095703125,-0.9687652587890625,-0.12847900390625
1768416582555106000,2.01610595703125,0.12451171875,-0.9735565185546875,-0.12554931640625
1768416582565107000,2.02610693359375,0.1282806396484375,-0.978485107421875,-0.120391845703125
1768416582575107800,2.03610791015625,0.12957763671875,-0.9840545654296875,-0.1193695068359375
1768416582585110000,2.046110107421875,0.1294708251953125,-0.986572265625,-0.1212310791015625
1768416582595111000,2.05611083984375,0.127471923828125,-0.9879608154296875,-0.122100830078125
1768416582605111800,2.06611181640625,0.1184234619140625,-0.9844818115234375,-0.121368408203125
1768416582615114000,2.076114013671875,0.1125030517578125,-0.9846649169921875,-0.1212158203125
1768416582625115000,2.086114990234375,0.11077880859375,-0.9852294921875,-0.123321533203125
1768416582635115800,2.09611572265625,0.1109161376953125,-0.9842071533203125,-0.1252288818359375
1768416582645118000,2.106117919921875,0.11260986328125,-0.98419189453125,-0.1231231689453125
1768416582655118800,2.116118896484375,0.1157379150390625,-0.9849090576171875,-0.1230926513671875
1768416582665120000,2.1261201171875,0.1139068603515625,-0.985687255859375,-0.122833251953125
1768416582675121000,2.136120849609375,0.1109619140625,-0.9884796142578125,-0.1204986572265625
1768416582685123000,2.146123046875,0.108184814453125,-0.990875244140625,-0.11871337890625
1768416582695124000,2.1561240234375,0.1047515869140625,-0.99053955078125,-0.1163177490234375
1768416582705124900,2.166124755859375,0.1029815673828125,-0.99359130859375,-0.1132659912109375
1768416582715127000,2.176126953125,0.107330322265625,-0.993133544921875,-0.112060546875
1768416582725128000,2.1861279296875,0.113006591796875,-0.9942169189453125,-0.1141357421875
1768416582735128800,2.19612890625,0.110595703125,-0.994049072265625,-0.1176910400390625
1768416582745131000,2.206131103515625,0.107452392578125,-0.9921112060546875,-0.1216888427734375
1768416582755132000,2.2161318359375,0.1053466796875,-0.9906005859375,-0.121673583984375
1768416582765132800,2.2261328125,0.102203369140625,-0.9910888671875,-0.119964599609375
1768416582775134700,2.236134765625,0.100555419921875,-0.98956298828125,-0.1198577880859375
1768416582785135900,2.246135986328125,0.1019287109375,-0.987030029296875,-0.12139892578125
1768416582795137000,2.256136962890625,0.105926513671875,-0.987335205078125,-0.1247406005859375
1768416582805138000,2.266137939453125,0.105133056640625,-0.9861907958984375,-0.1316986083984375
1768416582815140000,2.27614013671875,0.106719970703125,-0.9860687255859375,-0.1312255859375
1768416582825141000,2.28614111328125,0.1038055419921875,-0.9893646240234375,-0.130645751953125
1768416582835142000,2.296141845703125,0.0991058349609375,-0.9909210205078125,-0.1256103515625
1768416582845143800,2.306143798828125,0.097503662109375,-0.988555908203125,-0.12646484375
1768416582855145000,2.31614501953125,0.0979766845703125,-0.9868011474609375,-0.1265106201171875
1768416582865145900,2.326145751953125,0.0996856689453125,-0.9855804443359375,-0.125213623046875
1768416582875147800,2.336147705078125,0.0986480712890625,-0.9869842529296875,-0.123931884765625
1768416582885149000,2.34614892578125,0.09857177734375,-0.9892578125,-0.1225738525390625
1768416582895149800,2.35614990234375,0.1007843017578125,-0.99151611328125,-0.1253662109375
1768416582905151000,2.36615087890625,0.1013946533203125,-0.9930267333984375,-0.126953125
1768416582915153000,2.37615283203125,0.0988311767578125,-0.9951934814453125,-0.13006591796875
1768416582925154000,2.386154052734375,0.101806640625,-0.9974822998046875,-0.135772705078125
1768416582935155000,2.396155029296875,0.1052703857421875,-0.99810791015625,-0.144134521484375
1768416582945156900,2.406156982421875,0.10693359375,-0.9950103759765625,-0.1512451171875
1768416582955158000,2.416157958984375,0.106842041015625,-0.9912109375,-0.1579132080078125
1768416582965159000,2.426158935546875,0.10693359375,-0.989837646484375,-0.158203125
1768416582975160800,2.436160888671875,0.111663818359375,-0.990264892578125,-0.1573333740234375
1768416582985161700,2.44616162109375,0.111663818359375,-0.991851806640625,-0.15380859375
1768416582995163000,2.456162841796875,0.1124114990234375,-0.9921417236328125,-0.1551971435546875
1768416583005164000,2.4661640625,0.1045989990234375,-0.9922637939453125,-0.1572265625
1768416583015165700,2.476165771484375,0.099212646484375,-0.9950408935546875,-0.1496429443359375
1768416583025167000,2.4861669921875,0.09759521484375,-0.99700927734375,-0.1469879150390625
1768416583035168000,2.49616796875,0.0977020263671875,-0.9948883056640625,-0.140380859375
1768416583045170000,2.506169921875,0.1003265380859375,-0.9889068603515625,-0.1389617919921875
1768416583055171000,2.516171142578125,0.1007232666015625,-0.98040771484375,-0.1399383544921875
1768416583065172000,2.526171875,0.1030120849609375,-0.9722137451171875,-0.138519287109375
1768416583075174000,2.536173828125,0.1018524169921875,-0.96820068359375,-0.1386566162109375
1768416583085174800,2.5461748046875,0.0997314453125,-0.969940185546875,-0.1364593505859375
1768416583095176000,2.556176025390625,0.104034423828125,-0.973663330078125,-0.139251708984375
1768416583105177900,2.566177734375,0.1090850830078125,-0.978729248046875,-0.1442108154296875
1768416583115178800,2.5761787109375,0.112335205078125,-0.98162841796875,-0.1435546875
1768416583125180000,2.586179931640625,0.1084747314453125,-0.980804443359375,-0.13861083984375
1768416583135181000,2.59618115234375,0.1059722900390625,-0.9800567626953125,-0.13653564453125
1768416583145182700,2.6061826171875,0.1066131591796875,-0.98077392578125,-0.13360595703125
1768416583155183900,2.616183837890625,0.1116790771484375,-0.9788055419921875,-0.1345062255859375
1768416583165185000,2.62618505859375,0.11846923828125,-0.9771270751953125,-0.1357421875
1768416583175187000,2.63618701171875,0.11962890625,-0.97186279296875,-0.1381378173828125
1768416583185187800,2.646187744140625,0.116546630859375,-0.9680328369140625,-0.13873291015625
1768416583195189000,2.65618896484375,0.1128997802734375,-0.96795654296875,-0.134033203125
1768416583205191000,2.66619091796875,0.109405517578125,-0.9698638916015625,-0.1307220458984375
1768416583215191800,2.67619189453125,0.10888671875,-0.9752197265625,-0.13006591796875
1768416583225192700,2.686192626953125,0.108154296875,-0.9850311279296875,-0.127960205078125
1768416583235193900,2.69619384765625,0.11328125,-0.9892120361328125,-0.1280670166015625
1768416583245195800,2.70619580078125,0.117279052734375,-0.9940643310546875,-0.125579833984375
1768416583255197000,2.716197021484375,0.1148529052734375,-0.9965972900390625,-0.12261962890625
1768416583265198000,2.726197998046875,0.11102294921875,-0.9954833984375,-0.11700439453125
1768416583275200000,2.736199951171875,0.111297607421875,-0.993438720703125,-0.1108245849609375
1768416583285201000,2.746200927734375,0.11810302734375,-0.99322509765625,-0.1063995361328125
1768416583295202000,2.7562021484375,0.1227874755859375,-0.98895263671875,-0.1021728515625
1768416583305204000,2.766203857421875,0.126312255859375,-0.98614501953125,-0.0995635986328125
1768416583315204900,2.776204833984375,0.131011962890625,-0.982757568359375,-0.0966949462890625
1768416583325205800,2.786205810546875,0.1350860595703125,-0.9774169921875,-0.0970458984375
1768416583335207000,2.79620703125,0.1333465576171875,-0.9757232666015625,-0.0955352783203125
1768416583345208800,2.806208740234375,0.128021240234375,-0.9771881103515625,-0.0911712646484375
1768416583355209700,2.816209716796875,0.1337738037109375,-0.97967529296875,-0.0853729248046875
1768416583365211100,2.826211181640625,0.15753173828125,-0.9878082275390625,-0.0788421630859375
1768416583375212800,2.836212890625,0.1811981201171875,-0.9925994873046875,-0.073394775390625
1768416583385214000,2.8462138671875,0.1849822998046875,-0.9912109375,-0.071929931640625
1768416583395214800,2.85621484375,0.16790771484375,-0.9833831787109375,-0.0713958740234375
1768416583405217000,2.866217041015625,0.1489410400390625,-0.971832275390625,-0.0728759765625
1768416583415218000,2.876218017578125,0.12969970703125,-0.9631195068359375,-0.0787506103515625
1768416583425218800,2.88621875,0.1111602783203125,-0.9588470458984375,-0.08709716796875
1768416583435221000,2.896220947265625,0.0999908447265625,-0.957061767578125,-0.0903778076171875
1768416583445222000,2.906221923828125,0.0998687744140625,-0.9578704833984375,-0.0858306884765625
1768416583455222800,2.916222900390625,0.109130859375,-0.971221923828125,-0.0787506103515625
1768416583465223700,2.9262236328125,0.1243896484375,-0.9843597412109375,-0.0705413818359375
1768416583475225900,2.936225830078125,0.12652587890625,-0.9975738525390625,-0.0670928955078125
1768416583485226800,2.946226806640625,0.118621826171875,-1.0032958984375,-0.0636138916015625
1768416583495228000,2.956227783203125,0.109161376953125,-1.0114288330078125,-0.0622406005859375
1768416583505229800,2.966229736328125,0.1002655029296875,-1.0174560546875,-0.06439208984375
1768416583515231000,2.97623095703125,0.0991363525390625,-1.0222320556640625,-0.0653076171875
1768416583525231900,2.98623193359375,0.1047210693359375,-1.028472900390625,-0.067291259765625
1768416583535234000,2.996234130859375,0.1105499267578125,-1.0284271240234375,-0.0742950439453125
1768416583545235000,3.00623486328125,0.1175384521484375,-1.0270233154296875,-0.078857421875
1768416583555235800,3.01623583984375,0.1202239990234375,-1.0232696533203125,-0.0775146484375
1768416583565236700,3.02623681640625,0.122039794921875,-1.01715087890625,-0.073974609375
1768416583575239000,3.036239013671875,0.12255859375,-1.0072784423828125,-0.067413330078125
1768416583585239800,3.04623974609375,0.1226806640625,-0.9989776611328125,-0.06024169921875
1768416583595240700,3.05624072265625,0.127685546875,-0.9954071044921875,-0.0526885986328125
1768416583605243000,3.066242919921875,0.1289215087890625,-0.998260498046875,-0.045989990234375
1768416583615244000,3.076244140625,0.129119873046875,-1.003875732421875,-0.0413055419921875
1768416583625245000,3.086244873046875,0.130462646484375,-1.005645751953125,-0.0394287109375
1768416583635247000,3.0962470703125,0.131683349609375,-1.0044097900390625,-0.0402679443359375
1768416583645248000,3.106248046875,0.1323394775390625,-0.9945831298828125,-0.0352630615234375
1768416583655249000,3.116248779296875,0.1287078857421875,-0.983642578125,-0.0261688232421875
1768416583665249800,3.126249755859375,0.1279296875,-0.9743804931640625,-0.01416015625
1768416583675252000,3.136251953125,0.1302032470703125,-0.96881103515625,-0.00335693359375
1768416583685252900,3.1462529296875,0.13482666015625,-0.9670867919921875,0.005950927734375
1768416583695253800,3.156253662109375,0.1382904052734375,-0.9682769775390625,0.011688232421875
1768416583705256000,3.166255859375,0.142181396484375,-0.9738922119140625,0.016021728515625
1768416583715256800,3.1762568359375,0.14569091796875,-0.9836273193359375,0.0190277099609375
1768416583725258000,3.186258056640625,0.1435546875,-0.997833251953125,0.02142333984375
1768416583735260000,3.196260009765625,0.142974853515625,-1.0045623779296875,0.017852783203125
1768416583745261000,3.206260986328125,0.14508056640625,-1.0087127685546875,0.01531982421875
1768416583755262000,3.216261962890625,0.1487274169921875,-1.0101470947265625,0.0143890380859375
1768416583765262800,3.226262939453125,0.146942138671875,-1.006561279296875,0.011688232421875
1768416583775265000,3.23626513671875,0.142425537109375,-1.006317138671875,0.011871337890625
1768416583785266000,3.246265869140625,0.13671875,-1.0037689208984375,0.0104522705078125
1768416583795266800,3.256266845703125,0.12811279296875,-0.9994354248046875,0.008209228515625
1768416583805269000,3.26626904296875,0.1182403564453125,-0.9983062744140625,0.0063323974609375
1768416583815270000,3.276269775390625,0.1166534423828125,-0.9944915771484375,0.00604248046875
1768416583825270800,3.286270751953125,0.12042236328125,-0.9954833984375,0.0030059814453125
1768416583835272700,3.296272705078125,0.1291351318359375,-0.9992828369140625,-0.0026702880859375
1768416583845273900,3.30627392578125,0.133056640625,-1.0027618408203125,-0.004119873046875
1768416583855275000,3.31627490234375,0.134429931640625,-1.0049896240234375,-0.00799560546875
1768416583865276000,3.32627587890625,0.14263916015625,-1.0015106201171875,-0.0107879638671875
1768416583875278000,3.336278076171875,0.1502227783203125,-0.997467041015625,-0.012115478515625
1768416583885279000,3.346279052734375,0.15777587890625,-0.9995880126953125,-0.0095367431640625
1768416583895279900,3.35627978515625,0.15667724609375,-1.000518798828125,-0.003509521484375
1768416583905281800,3.36628173828125,0.160247802734375,-0.9987640380859375,0.0082550048828125
1768416583915283000,3.376282958984375,0.1626739501953125,-0.997467041015625,0.009246826171875
1768416583925283800,3.386283935546875,0.161407470703125,-0.9901580810546875,0.013092041015625
1768416583935285800,3.39628564453125,0.15679931640625,-0.9820709228515625,0.0100250244140625
1768416583945287000,3.406286865234375,0.1572418212890625,-0.974578857421875,0.01177978515625
1768416583955287800,3.416287841796875,0.1612701416015625,-0.973358154296875,0.0081024169921875
1768416583965289000,3.4262890625,0.163360595703125,-0.9737091064453125,0.0013885498046875
1768416583975291100,3.436291015625,0.1596221923828125,-0.9696502685546875,-0.003570556640625
1768416583985292000,3.4462919921875,0.1542205810546875,-0.970672607421875,-0.0083465576171875
1768416583995293000,3.45629296875,0.1507568359375,-0.971588134765625,-0.0182037353515625
1768416584005294800,3.466294921875,0.15155029296875,-0.972930908203125,-0.0223236083984375
1768416584015296000,3.4762958984375,0.1453094482421875,-0.975830078125,-0.0252838134765625
1768416584025297000,3.486296875,0.1423492431640625,-0.979827880859375,-0.0281219482421875
1768416584035298800,3.496298828125,0.1478729248046875,-0.9807281494140625,-0.0285797119140625
1768416584045300000,3.506300048828125,0.1607208251953125,-0.98150634765625,-0.026397705078125
1768416584055300900,3.51630078125,0.171112060546875,-0.98187255859375,-0.0195770263671875
1768416584065302000,3.526302001953125,0.1772308349609375,-0.978240966796875,-0.0159759521484375
1768416584075303700,3.5363037109375,0.180755615234375,-0.9752349853515625,-0.01611328125
1768416584085305000,3.54630517578125,0.19384765625,-0.9767913818359375,-0.0167388916015625
1768416584095306000,3.556305908203125,0.21258544921875,-0.9803009033203125,-0.014862060546875
1768416584105308000,3.566307861328125,0.22406005859375,-0.98516845703125,-0.010467529296875
1768416584115309000,3.57630908203125,0.21575927734375,-0.993927001953125,-0.0178375244140625
1768416584125310000,3.58631005859375,0.1949462890625,-1.0078582763671875,-0.0356597900390625
1768416584135312000,3.596311767578125,0.18109130859375,-1.0140380859375,-0.05694580078125
1768416584145312800,3.606312744140625,0.173675537109375,-1.0081939697265625,-0.0673370361328125
1768416584155314000,3.61631396484375,0.163360595703125,-0.9990692138671875,-0.0744781494140625
1768416584165314800,3.626314697265625,0.1472015380859375,-0.9897308349609375,-0.0884857177734375
1768416584175316700,3.636316650390625,0.128814697265625,-0.9836883544921875,-0.111602783203125
1768416584185318000,3.64631787109375,0.1075286865234375,-0.9796905517578125,-0.1441497802734375
1768416584195319000,3.656319091796875,0.080657958984375,-0.97119140625,-0.1779632568359375
1768416584205321000,3.666321044921875,0.0566253662109375,-0.96380615234375,-0.2037506103515625
1768416584215322000,3.676322021484375,0.035888671875,-0.9549713134765625,-0.22723388671875
1768416584225323000,3.686322998046875,0.0240478515625,-0.9571533203125,-0.2465362548828125
1768416584235324000,3.696323974609375,0.016937255859375,-0.966217041015625,-0.2644195556640625
1768416584245325800,3.706325927734375,0.0092010498046875,-0.977081298828125,-0.2779541015625
1768416584255327000,3.716326904296875,0.0017242431640625,-0.989501953125,-0.2855377197265625
1768416584265327900,3.726327880859375,-0.014373779296875,-1.005462646484375,-0.2798309326171875
1768416584275329800,3.736329833984375,-0.03546142578125,-1.0176849365234375,-0.26495361328125
1768416584285331000,3.7463310546875,-0.0484466552734375,-1.0216522216796875,-0.236968994140625
1768416584295331800,3.756331787109375,-0.0484466552734375,-1.0220947265625,-0.187103271484375
1768416584305334000,3.766333984375,-0.0545654296875,-1.0256195068359375,-0.136962890625
1768416584315335000,3.7763349609375,-0.05413818359375,-1.0290679931640625,-0.1106414794921875
1768416584325336300,3.78633642578125,-0.05499267578125,-1.035552978515625,-0.102691650390625
1768416584335337200,3.796337158203125,-0.052825927734375,-1.0455780029296875,-0.12939453125
1768416584345339100,3.806339111328125,-0.05401611328125,-1.06036376953125,-0.1768646240234375
1768416584355340300,3.81634033203125,-0.0435943603515625,-1.0763397216796875,-0.2292938232421875
1768416584365341200,3.826341064453125,-0.0364990234375,-1.0952606201171875,-0.2557830810546875
1768416584375343000,3.836343017578125,-0.0422210693359375,-1.1167144775390625,-0.2696380615234375
1768416584385344300,3.84634423828125,-0.071563720703125,-1.131256103515625,-0.2738800048828125
1768416584395345200,3.85634521484375,-0.1103515625,-1.1379852294921875,-0.255035400390625
1768416584405347000,3.86634716796875,-0.120208740234375,-1.123291015625,-0.2219696044921875
1768416584415348000,3.876347900390625,-0.104644775390625,-1.08538818359375,-0.1792449951171875
1768416584425349000,3.88634912109375,-0.103790283203125,-1.04681396484375,-0.138519287109375
1768416584435350300,3.896350341796875,-0.118560791015625,-1.0177154541015625,-0.11688232421875
1768416584445352200,3.906352294921875,-0.1194610595703125,-0.9963836669921875,-0.118621826171875
1768416584455353300,3.916353271484375,-0.0979156494140625,-0.9801177978515625,-0.140289306640625
1768416584465354200,3.926354248046875,-0.0751190185546875,-0.9626617431640625,-0.156890869140625
1768416584475356200,3.936356201171875,-0.063720703125,-0.952423095703125,-0.170135498046875
1768416584485357000,3.946357177734375,-0.069580078125,-0.9436187744140625,-0.1912994384765625
1768416584495358200,3.956358154296875,-0.0750579833984375,-0.9344482421875,-0.207611083984375
1768416584505359000,3.966359130859375,-0.073974609375,-0.9258270263671875,-0.2190399169921875
1768416584515361000,3.976361083984375,-0.0762939453125,-0.922271728515625,-0.2247467041015625
1768416584525362200,3.986362060546875,-0.0734100341796875,-0.922607421875,-0.223846435546875
1768416584535363000,3.996363037109375,-0.068115234375,-0.920867919921875,-0.2228851318359375
1768416584545365000,4.006364990234375,-0.063751220703125,-0.925628662109375,-0.2247161865234375
1768416584555366100,4.0163662109375,-0.06097412109375,-0.930511474609375,-0.2257537841796875
1768416584565367300,4.0263671875,-0.0606231689453125,-0.932861328125,-0.2300872802734375
1768416584575369200,4.036369140625,-0.0519561767578125,-0.9327545166015625,-0.2264404296875
1768416584585370000,4.0463701171875,-0.0360565185546875,-0.9316864013671875,-0.218017578125
1768416584595371300,4.056371337890625,-0.027069091796875,-0.932342529296875,-0.2130126953125
1768416584605372200,4.0663720703125,-0.02801513671875,-0.938720703125,-0.2107696533203125
1768416584615374000,4.0763740234375,-0.0339508056640625,-0.9442901611328125,-0.2167816162109375
1768416584625375000,4.086375,-0.02813720703125,-0.9476470947265625,-0.212554931640625
1768416584635376000,4.096376220703125,-0.0159454345703125,-0.947998046875,-0.2042388916015625
1768416584645378000,4.1063779296875,-0.01031494140625,-0.947967529296875,-0.195831298828125
1768416584655379000,4.11637890625,-0.01873779296875,-0.9450225830078125,-0.1942901611328125
1768416584665380400,4.12638037109375,-0.0311431884765625,-0.9429168701171875,-0.1962127685546875
1768416584675382000,4.136382080078125,-0.0339202880859375,-0.9449920654296875,-0.200836181640625
1768416584685383200,4.146383056640625,-0.0281524658203125,-0.957366943359375,-0.2137908935546875
1768416584695384300,4.15638427734375,-0.028167724609375,-0.973785400390625,-0.2209320068359375
1768416584705385200,4.16638525390625,-0.0255126953125,-0.97967529296875,-0.214508056640625
1768416584715387100,4.17638720703125,-0.011138916015625,-0.9782562255859375,-0.201446533203125
1768416584725388000,4.186387939453125,0.00054931640625,-0.9726715087890625,-0.195770263671875
1768416584735389200,4.19638916015625,0.0022430419921875,-0.9590911865234375,-0.1944732666015625
1768416584745391000,4.20639111328125,0.0041046142578125,-0.947021484375,-0.18890380859375
1768416584755392000,4.21639208984375,-0.0038299560546875,-0.9403076171875,-0.18994140625
1768416584765393200,4.22639306640625,-0.005584716796875,-0.9361419677734375,-0.1902618408203125
1768416584775394300,4.236394287109375,0.0004119873046875,-0.938690185546875,-0.1868438720703125
1768416584785396200,4.246396240234375,0.009490966796875,-0.9450225830078125,-0.1842041015625
1768416584795397000,4.256397216796875,0.01861572265625,-0.95892333984375,-0.180877685546875
1768416584805398300,4.266398193359375,0.0248565673828125,-0.9730987548828125,-0.179443359375
1768416584815400200,4.276400146484375,0.0286102294921875,-0.98614501953125,-0.17437744140625
1768416584825401000,4.286401123046875,0.0369720458984375,-0.991180419921875,-0.1676025390625
1768416584835402200,4.29640234375,0.0509490966796875,-0.9841766357421875,-0.1696014404296875
1768416584845404200,4.306404052734375,0.05975341796875,-0.9729461669921875,-0.170654296875
1768416584855405000,4.316405029296875,0.0562286376953125,-0.9642486572265625,-0.175628662109375
1768416584865406000,4.326406005859375,0.0465545654296875,-0.9535980224609375,-0.18212890625
1768416584875407000,4.336406982421875,0.0366058349609375,-0.9476470947265625,-0.18499755859375
1768416584885409000,4.346408935546875,0.0319976806640625,-0.943634033203125,-0.1876678466796875
1768416584895410200,4.35641015625,0.033782958984375,-0.948028564453125,-0.1888580322265625
1768416584905411300,4.366411376953125,0.0263824462890625,-0.9562835693359375,-0.191253662109375
1768416584915413200,4.376413330078125,0.0121612548828125,-0.9656219482421875,-0.18939208984375
1768416584925414100,4.3864140625,-0.0047607421875,-0.9752960205078125,-0.188232421875
1768416584935415300,4.396415283203125,-0.013397216796875,-0.97998046875,-0.1881103515625
1768416584945416200,4.406416259765625,-0.00543212890625,-0.9789886474609375,-0.197845458984375
1768416584955418000,4.416418212890625,0.0140228271484375,-0.9656982421875,-0.2035064697265625
1768416584965419000,4.4264189453125,0.0314788818359375,-0.947509765625,-0.2080230712890625
1768416584975420200,4.436420166015625,0.0370025634765625,-0.9256744384765625,-0.2085723876953125
1768416584985422000,4.446422119140625,0.027740478515625,-0.9018707275390625,-0.205169677734375
1768416584995423000,4.456423095703125,0.0159759521484375,-0.8883056640625,-0.1962738037109375
1768416585005424400,4.46642431640625,0.012847900390625,-0.8932952880859375,-0.186981201171875
1768416585015426000,4.476426025390625,0.0165557861328125,-0.911773681640625,-0.1839447021484375
1768416585025427200,4.48642724609375,0.0388336181640625,-0.940155029296875,-0.1816558837890625
1768416585035428000,4.496427978515625,0.0614471435546875,-0.9727020263671875,-0.17083740234375
1768416585045429200,4.50642919921875,0.083404541015625,-0.995269775390625,-0.1556243896484375
1768416585055431200,4.51643115234375,0.107269287109375,-0.99951171875,-0.1403961181640625
1768416585065432000,4.52643212890625,0.10833740234375,-0.9872589111328125,-0.1246490478515625
1768416585075433200,4.53643310546875,0.08935546875,-0.9603271484375,-0.08795166015625
1768416585085435100,4.54643505859375,0.0536346435546875,-0.92999267578125,-0.0550689697265625
1768416585095436000,4.55643603515625,0.0331268310546875,-0.911651611328125,-0.0181884765625
1768416585105437000,4.56643701171875,0.020111083984375,-0.924835205078125,0.0158843994140625
1768416585115438300,4.576438232421875,0.01220703125,-0.9651031494140625,0.06494140625
1768416585125440000,4.58643994140625,0.0256805419921875,-1.05328369140625,0.0683135986328125
1768416585135441200,4.596441162109375,0.080352783203125,-1.1705474853515625,0.00238037109375
1768416585145442300,4.6064423828125,0.155181884765625,-1.261505126953125,-0.1303863525390625
1768416585155444200,4.6164443359375,0.2840576171875,-1.2365875244140625,-0.1493988037109375
1768416585165445000,4.626445068359375,0.33880615234375,-1.192474365234375,-0.1880340576171875
1768416585175446000,4.636446044921875,0.2820281982421875,-1.085052490234375,-0.2348480224609375
1768416585185448200,4.6464482421875,0.2171783447265625,-0.93280029296875,-0.1824493408203125
1768416585195449000,4.656448974609375,0.13427734375,-0.8231964111328125,-0.0428314208984375
1768416585205450000,4.666449951171875,0.0751495361328125,-0.748992919921875,0.034271240234375
1768416585215451100,4.676451171875,0.0904083251953125,-0.71978759765625,0.054443359375
1768416585225453000,4.686453125,0.1149444580078125,-0.7279052734375,0.0612945556640625
1768416585235454200,4.6964541015625,0.11627197265625,-0.7642974853515625,0.0622406005859375
1768416585245455400,4.706455322265625,0.0999603271484375,-0.8207855224609375,0.04571533203125
1768416585255457300,4.716457275390625,0.1092987060546875,-0.891510009765625,0.0105438232421875
1768416585265458200,4.726458251953125,0.1105499267578125,-0.964569091796875,-0.03326416015625
1768416585275459000,4.736458984375,0.0897979736328125,-1.035003662109375,-0.0788421630859375
1768416585285460200,4.746460205078125,0.068359375,-1.0361175537109375,-0.1397247314453125
1768416585295462100,4.756462158203125,0.0389404296875,-0.9603424072265625,-0.2397003173828125
1768416585305463000,4.766463134765625,-0.008819580078125,-0.9071044921875,-0.29034423828125
1768416585315464000,4.7764638671875,-0.008209228515625,-0.8702545166015625,-0.355224609375
1768416585325466000,4.786466064453125,0.030303955078125,-0.8516998291015625,-0.414520263671875
1768416585335467000,4.796467041015625,0.074676513671875,-0.877288818359375,-0.415557861328125
1768416585345468200,4.80646826171875,0.1036376953125,-0.9217376708984375,-0.3538360595703125
1768416585355469000,4.816468994140625,0.1366729736328125,-0.9436798095703125,-0.2684478759765625
1768416585365471200,4.82647119140625,0.1626129150390625,-0.92926025390625,-0.1763153076171875
1768416585375472000,4.83647216796875,0.161865234375,-0.857940673828125,-0.0805816650390625
1768416585385473000,4.84647314453125,0.11358642578125,-0.76031494140625,-0.009307861328125
1768416585395475200,4.85647509765625,0.0196075439453125,-0.6538238525390625,0.035614013671875
1768416585405476000,4.86647607421875,-0.0448150634765625,-0.5463409423828125,0.053253173828125
1768416585415477000,4.87647705078125,-0.09033203125,-0.46966552734375,0.0284881591796875
1768416585425479200,4.886479248046875,-0.1110076904296875,-0.459197998046875,-0.0487518310546875
1768416585435480000,4.89647998046875,-0.0946502685546875,-0.5167999267578125,-0.1524810791015625
1768416585445481000,4.90648095703125,-0.1126251220703125,-0.5938262939453125,-0.2666473388671875
1768416585455482000,4.916482177734375,-0.135528564453125,-0.6688232421875,-0.286285400390625
1768416585465484000,4.926484130859375,-0.141845703125,-0.788177490234375,-0.253387451171875
1768416585475485200,4.936485107421875,-0.1641387939453125,-0.8371734619140625,-0.265106201171875
1768416585485486000,4.946486083984375,-0.1011505126953125,-0.841888427734375,-0.14764404296875
1768416585495488300,4.95648828125,-0.09735107421875,-0.859619140625,-0.03875732421875
1768416585505489200,4.9664892578125,-0.011077880859375,-0.805389404296875,0.18756103515625
1768416585515490000,4.976489990234375,0.0932159423828125,-0.731201171875,0.2298126220703125
1768416585525491000,4.986490966796875,0.1422119140625,-0.662353515625,0.1862335205078125
1768416585535493000,4.9964931640625,0.2359771728515625,-0.5455780029296875,0.2253265380859375
1768416585545494000,5.006493896484375,0.25634765625,-0.4196014404296875,0.2846832275390625
1768416585555495000,5.016494873046875,0.2233734130859375,-0.3381805419921875,0.262847900390625
1768416585565497000,5.0264970703125,0.198760986328125,-0.2823944091796875,0.184356689453125
1768416585575498000,5.036498046875,0.2086029052734375,-0.2462005615234375,0.11553955078125
1768416585585499100,5.0464990234375,0.20831298828125,-0.268585205078125,0.0368804931640625
1768416585595501300,5.056501220703125,0.1514129638671875,-0.358917236328125,-0.1169891357421875
1768416585605502200,5.066502197265625,0.162078857421875,-0.497955322265625,-0.312164306640625
1768416585615503000,5.076503173828125,0.1685638427734375,-0.6187896728515625,-0.4789276123046875
1768416585625504000,5.08650390625,0.0443572998046875,-0.706817626953125,-0.56195068359375
1768416585635506200,5.096506103515625,-0.1107940673828125,-0.77557373046875,-0.5357818603515625
1768416585645507000,5.106507080078125,-0.305755615234375,-0.7557220458984375,-0.420074462890625
1768416585655508000,5.116508056640625,-0.3956298828125,-0.6787261962890625,-0.2937469482421875
1768416585665510100,5.12651025390625,-0.2815704345703125,-0.60015869140625,-0.2162322998046875
1768416585675511000,5.136510986328125,-0.1255035400390625,-0.5826568603515625,-0.20599365234375
1768416585685512200,5.14651220703125,-0.1667327880859375,-0.59100341796875,-0.253448486328125
1768416585695513900,5.156513916015625,-0.2600555419921875,-0.68408203125,-0.324615478515625
1768416585705515300,5.166515380859375,-0.1284942626953125,-0.85198974609375,-0.33905029296875
1768416585715516200,5.17651611328125,0.0299224853515625,-1.050384521484375,-0.22021484375
1768416585725517000,5.18651708984375,0.0725860595703125,-1.1111297607421875,0.0627288818359375
1768416585735519200,5.196519287109375,0.0039520263671875,-0.9709625244140625,0.3389434814453125
1768416585745520000,5.20652001953125,-0.1430816650390625,-0.84613037109375,0.3288116455078125
1768416585755521000,5.21652099609375,-0.297760009765625,-0.8285064697265625,0.1360626220703125
1768416585765523000,5.22652294921875,-0.297088623046875,-0.8450927734375,0.0684967041015625
1768416585775524000,5.236524169921875,-0.3932952880859375,-0.8277130126953125,0.0876007080078125
1768416585785525000,5.24652490234375,-0.6431121826171875,-0.733795166015625,0.017364501953125
1768416585795526100,5.256526123046875,-0.8885955810546875,-0.633819580078125,-0.169708251953125
1768416585805528000,5.266528076171875,-0.9801025390625,-0.63031005859375,-0.332122802734375
1768416585815529200,5.276529296875,-1.5876312255859375,-0.710723876953125,-0.23223876953125
1768416585825530000,5.286530029296875,-2.0570220947265625,-0.9508209228515625,-0.399505615234375
1768416585835532000,5.296531982421875,-0.660247802734375,-1.27630615234375,-0.99285888671875
1768416585845533200,5.306533203125,0.16656494140625,-1.5560760498046875,-1.04608154296875
1768416585855534000,5.3165341796875,0.10113525390625,-1.67205810546875,-1.209075927734375
1768416585865536000,5.326535888671875,0.1224365234375,-1.5423583984375,-1.4338226318359375
1768416585875537200,5.336537109375,0.2183380126953125,-1.2351226806640625,-1.2706146240234375
1768416585885538000,5.3465380859375,0.326324462890625,-0.9695892333984375,-0.990936279296875
1768416585895539000,5.3565390625,0.4399871826171875,-0.7422943115234375,-0.9149322509765625
1768416585905541000,5.366541015625,0.39459228515625,-0.4859619140625,-1.0989990234375
1768416585915542000,5.3765419921875,-0.291107177734375,-0.1366729736328125,-1.54296875
1768416585925543200,5.386543212890625,-1.775054931640625,0.30914306640625,-1.9238128662109375
1768416585935545000,5.396545166015625,-2.8210906982421875,0.501251220703125,-1.8387451171875
1768416585949295900,5.4102958984375,-5.6867828369140625,0.2432403564453125,-2.6214752197265625
1768416585959297300,5.42029736328125,-5.4554901123046875,-0.318878173828125,-3.1336212158203125
1768416585969298200,5.430298095703125,-2.7210540771484375,-0.6665802001953125,-2.2237091064453125
1768416585979300000,5.440300048828125,-0.6685028076171875,-0.3389129638671875,-0.794464111328125
1768416585989301000,5.450301025390625,0.4309844970703125,0.272308349609375,0.4137725830078125
1768416585999302100,5.46030224609375,0.457550048828125,0.8519287109375,0.874237060546875
1768416586009304000,5.470303955078125,-1.008331298828125,1.331451416015625,0.67694091796875
1768416586019305000,5.480304931640625,-2.202880859375,1.78717041015625,0.242340087890625
1768416586029306000,5.49030615234375,-1.7543792724609375,2.192596435546875,-0.057586669921875
1768416586039308000,5.50030810546875,-1.5068817138671875,2.2742156982421875,0.3666534423828125
1768416586049309000,5.510308837890625,-1.7458953857421875,2.0308074951171875,1.182891845703125
1768416586059310000,5.52031005859375,-1.4863128662109375,1.5130462646484375,1.8186187744140625
1768416586069311200,5.530311279296875,-0.934173583984375,0.8842315673828125,1.8882598876953125
1768416586079313200,5.540313232421875,-0.683258056640625,0.2804107666015625,1.5074310302734375
1768416586089314000,5.55031396484375,-0.5914764404296875,-0.2095794677734375,1.0030364990234375
1768416586099315200,5.560315185546875,-0.52667236328125,-0.4592437744140625,0.6641845703125
1768416586109317000,5.570317138671875,-0.6203765869140625,-0.4295501708984375,0.4078521728515625
1768416586119318000,5.580318115234375,-0.7418212890625,-0.144927978515625,0.1888885498046875
1768416586129319000,5.59031884765625,-0.8888092041015625,0.0851898193359375,0.13226318359375
1768416586139321000,5.600321044921875,-0.9366607666015625,0.2595367431640625,0.2603302001953125
1768416586149322000,5.610322021484375,-0.849700927734375,0.384521484375,0.490478515625
1768416586159323000,5.620322998046875,-0.8333892822265625,0.4541015625,0.652984619140625
1768416586169324000,5.630323974609375,-0.8167572021484375,0.4620513916015625,0.6967926025390625
1768416586179326000,5.640325927734375,-0.7439422607421875,0.3909149169921875,0.6405181884765625
1768416586189327000,5.6503271484375,-0.720916748046875,0.26751708984375,0.5402679443359375
1768416586199328300,5.660328369140625,-0.7725830078125,0.1491546630859375,0.45587158203125
1768416586209330200,5.670330078125,-0.8540496826171875,0.06378173828125,0.387664794921875
1768416586219331000,5.6803310546875,-0.976318359375,0.0015716552734375,0.3185272216796875
1768416586229332000,5.69033203125,-1.0615386962890625,-0.0615081787109375,0.294586181640625
1768416586239334100,5.700334228515625,-0.9969024658203125,-0.108123779296875,0.352264404296875
1768416586249335000,5.7103349609375,-0.954071044921875,-0.122955322265625,0.4221954345703125
1768416586259336000,5.7203359375,-0.9525604248046875,-0.0976409912109375,0.4354248046875
1768416586269337000,5.730337158203125,-0.9638824462890625,-0.00054931640625,0.385528564453125
1768416586279339000,5.740339111328125,-0.982025146484375,0.134796142578125,0.3121490478515625
1768416586289340000,5.75033984375,-1.0550994873046875,0.228851318359375,0.2111663818359375
1768416586299341000,5.760341064453125,-1.09942626953125,0.23992919921875,0.11920166015625
1768416586309343000,5.770343017578125,-1.0556182861328125,0.1885528564453125,0.1047210693359375
1768416586319343600,5.780343505859375,-0.985565185546875,0.1155853271484375,0.2077789306640625
1768416586329344800,5.7903447265625,-0.9615478515625,0.0543365478515625,0.368133544921875
1768416586339346700,5.8003466796875,-0.9808349609375,0.045166015625,0.483062744140625
1768416586349347600,5.81034765625,-0.9939422607421875,0.056060791015625,0.5406951904296875
1768416586359348500,5.820348388671875,-1.00628662109375,0.03900146484375,0.56103515625
1768416586369349600,5.830349609375,-0.991790771484375,0.0118255615234375,0.547821044921875
1768416586379351600,5.8403515625,-0.9156646728515625,-0.0118408203125,0.48638916015625
1768416586389352400,5.8503525390625,-0.8532867431640625,-0.0152130126953125,0.3873748779296875
1768416586399353900,5.860353759765625,-0.880584716796875,0.004608154296875,0.300872802734375
1768416586409355500,5.87035546875,-0.93292236328125,0.027984619140625,0.30096435546875
1768416586419356700,5.880356689453125,-0.9678192138671875,0.051483154296875,0.3726043701171875
1768416586429357800,5.89035791015625,-0.968536376953125,0.0621337890625,0.4425811767578125
1768416586439359700,5.90035986328125,-0.9326324462890625,0.0621795654296875,0.44879150390625
1768416586449360600,5.910360595703125,-0.9028167724609375,0.060272216796875,0.3903045654296875
1768416586459361500,5.920361572265625,-0.90203857421875,0.058837890625,0.2893524169921875
1768416586469363700,5.93036376953125,-0.920654296875,0.0603790283203125,0.1855621337890625
1768416586479364600,5.940364501953125,-0.9632110595703125,0.0777740478515625,0.114471435546875
1768416586489365500,5.950365478515625,-0.9850006103515625,0.1056671142578125,0.0930938720703125
1768416586499366700,5.96036669921875,-0.9822235107421875,0.12261962890625,0.113128662109375
1768416586509368600,5.97036865234375,-0.97735595703125,0.124969482421875,0.13037109375
1768416586519369700,5.98036962890625,-0.9785308837890625,0.117034912109375,0.1334228515625
1768416586529370600,5.99037060546875,-0.9986419677734375,0.1015777587890625,0.141265869140625
1768416586539372800,6.000372802734375,-1.005645751953125,0.088897705078125,0.14068603515625
1768416586549373700,6.010373779296875,-0.9990997314453125,0.075103759765625,0.1300811767578125
1768416586559374600,6.02037451171875,-0.9855499267578125,0.067047119140625,0.1146392822265625
1768416586569376800,6.030376708984375,-0.9964447021484375,0.07952880859375,0.0908660888671875
1768416586579377700,6.040377685546875,-1.01446533203125,0.1005859375,0.0740203857421875
1768416586589378600,6.050378662109375,-1.0201568603515625,0.1068878173828125,0.0622100830078125
1768416586599379500,6.06037939453125,-1.0171356201171875,0.09478759765625,0.0676422119140625
1768416586609381600,6.070381591796875,-1.010162353515625,0.07391357421875,0.07476806640625
1768416586619382500,6.080382568359375,-1.0034027099609375,0.053070068359375,0.0674591064453125
1768416586629383700,6.0903837890625,-0.994140625,0.0323486328125,0.0676727294921875
1768416586639385600,6.100385498046875,-0.9820556640625,0.0196533203125,0.0759124755859375
1768416586649386800,6.11038671875,-0.9728851318359375,0.0201416015625,0.081268310546875
1768416586659387600,6.1203876953125,-0.985565185546875,0.0213470458984375,0.0870819091796875
1768416586669389800,6.130389892578125,-1.0040283203125,0.0188751220703125,0.0964813232421875
1768416586679390700,6.140390625,-1.0096893310546875,0.0225830078125,0.109893798828125
1768416586689391600,6.1503916015625,-1.00384521484375,0.0201416015625,0.1147918701171875
1768416586699392500,6.160392578125,-0.999603271484375,0.008209228515625,0.1044769287109375
1768416586709394700,6.170394775390625,-0.9962005615234375,-0.0083465576171875,0.093353271484375
1768416586719395600,6.1803955078125,-0.98931884765625,-0.0247344970703125,0.093048095703125
1768416586729396500,6.190396484375,-0.9913482666015625,-0.040740966796875,0.10906982421875
1768416586739398700,6.200398681640625,-0.994415283203125,-0.0585479736328125,0.135772705078125
1768416586749399600,6.210399658203125,-0.9950408935546875,-0.072784423828125,0.1702423095703125
1768416586759400700,6.220400634765625,-0.989044189453125,-0.0819244384765625,0.1986541748046875
1768416586769402600,6.230402587890625,-0.98724365234375,-0.087249755859375,0.201507568359375
1768416586779403800,6.24040380859375,-0.981842041015625,-0.094757080078125,0.1873779296875
1768416586789404700,6.25040478515625,-0.9872589111328125,-0.102142333984375,0.169952392578125
1768416586799405600,6.260405517578125,-0.9970245361328125,-0.10736083984375,0.166290283203125
1768416586809407700,6.27040771484375,-0.993499755859375,-0.107208251953125,0.1854705810546875
1768416586819408600,6.28040869140625,-0.978607177734375,-0.1175384521484375,0.2168121337890625
1768416586829409500,6.290409423828125,-0.96343994140625,-0.1305999755859375,0.231475830078125
1768416586839411700,6.30041162109375,-0.968780517578125,-0.1517181396484375,0.2089691162109375
1768416586849412600,6.31041259765625,-0.986968994140625,-0.1706390380859375,0.1526641845703125
1768416586859413500,6.32041357421875,-1.005035400390625,-0.1808013916015625,0.092071533203125
1768416586869415700,6.330415771484375,-1.010711669921875,-0.174591064453125,0.055328369140625
1768416586879416800,6.340416748046875,-0.9917755126953125,-0.1483612060546875,0.0672607421875
1768416586889417700,6.350417724609375,-0.9646759033203125,-0.108154296875,0.1469879150390625
1768416586899419600,6.360419677734375,-0.9150390625,-0.0518646240234375,0.2651214599609375
1768416586909420800,6.3704208984375,-0.8718109130859375,-0.0144805908203125,0.35943603515625
1768416586919421700,6.380421630859375,-0.888275146484375,-0.0209503173828125,0.362701416015625
1768416586929422600,6.390422607421875,-0.9444580078125,-0.065582275390625,0.279754638671875
1768416586939424800,6.4004248046875,-1.0008544921875,-0.115020751953125,0.1923065185546875
1768416586949425700,6.41042578125,-1.027252197265625,-0.1505889892578125,0.1301422119140625
1768416586959426600,6.420426513671875,-1.044464111328125,-0.168365478515625,0.090606689453125
1768416586969428500,6.430428466796875,-1.050384521484375,-0.151031494140625,0.1134033203125
1768416586979429600,6.4404296875,-1.003204345703125,-0.0959320068359375,0.2153472900390625
1768416586989430800,6.4504306640625,-0.9226226806640625,-0.0243072509765625,0.341705322265625
1768416586999432400,6.460432373046875,-0.877105712890625,0.020843505859375,0.4174652099609375
1768416587009433900,6.470433837890625,-0.9147491455078125,0.0290374755859375,0.39990234375
1768416587019434800,6.480434814453125,-0.987335205078125,0.024505615234375,0.3229217529296875
1768416587029435600,6.490435546875,-1.0546722412109375,0.019500732421875,0.23492431640625
1768416587039437600,6.5004375,-1.07843017578125,0.016021728515625,0.1500396728515625
1768416587049438700,6.510438720703125,-1.0734710693359375,0.0136260986328125,0.0744171142578125
1768416587059439600,6.520439697265625,-1.0492401123046875,0.0087890625,0.058502197265625
1768416587069441500,6.530441650390625,-0.9888458251953125,0.0055694580078125,0.124969482421875
1768416587079442700,6.540442626953125,-0.9263916015625,-0.0243377685546875,0.2096710205078125
1768416587089443600,6.550443603515625,-0.9075469970703125,-0.0789794921875,0.2705841064453125
1768416587099445500,6.560445556640625,-0.93731689453125,-0.1205291748046875,0.306884765625
1768416587109446700,6.57044677734375,-0.947662353515625,-0.131744384765625,0.316864013671875
1768416587119447800,6.58044775390625,-0.9092864990234375,-0.1257476806640625,0.3136749267578125
1768416587129448700,6.59044873046875,-0.8885498046875,-0.1104278564453125,0.300750732421875
1768416587139450600,6.60045068359375,-0.9243011474609375,-0.0870208740234375,0.278839111328125
1768416587149451800,6.61045166015625,-0.9900360107421875,-0.0572662353515625,0.255950927734375
1768416587159452700,6.62045263671875,-1.03863525390625,-0.030517578125,0.245697021484375
1768416587169454600,6.63045458984375,-1.0432586669921875,-0.005889892578125,0.2488250732421875
1768416587179455700,6.640455810546875,-0.986175537109375,0.019561767578125,0.2316436767578125
1768416587189456600,6.65045654296875,-0.966064453125,-0.0005645751953125,0.1107635498046875
1768416587199458600,6.66045849609375,-0.9373779296875,-0.0748748779296875,0.10919189453125
1768416587209459500,6.67045947265625,-1.0101470947265625,-0.0360107421875,0.089447021484375
1768416587219460600,6.680460693359375,-1.0679779052734375,-0.05267333984375,0.102294921875
1768416587229461800,6.690461669921875,-1.0988616943359375,-0.1447601318359375,0.1105499267578125
1768416587239463700,6.700463623046875,-1.1651153564453125,-0.171630859375,0.1019134521484375
1768416587249464800,6.71046484375,-1.105560302734375,-0.2073822021484375,0.1048736572265625
1768416587259465700,6.7204658203125,-0.9700775146484375,-0.261749267578125,0.0560150146484375
1768416587269467600,6.730467529296875,-0.8398284912109375,-0.2992401123046875,0.02911376953125
1768416587279468500,6.740468505859375,-0.7978363037109375,-0.3015289306640625,0.0611419677734375
1768416587289469700,6.7504697265625,-0.834625244140625,-0.2751312255859375,0.1018829345703125
1768416587299470600,6.760470703125,-0.836761474609375,-0.2467041015625,0.1384124755859375
1768416587309472500,6.770472412109375,-0.9350433349609375,-0.2598114013671875,0.1434478759765625
1768416587319474000,6.780473876953125,-0.861358642578125,-0.216766357421875,0.0912322998046875
1768416587329474800,6.790474853515625,-0.8244476318359375,-0.1851959228515625,-0.039825439453125
1768416587339477000,6.80047705078125,-0.997650146484375,-0.167022705078125,-0.0932769775390625
1768416587349478000,6.810477783203125,-1.0454559326171875,-0.173980712890625,-0.0142669677734375
1768416587359479000,6.82047900390625,-0.9540252685546875,-0.2052154541015625,0.0823211669921875
1768416587369481000,6.83048095703125,-0.9514007568359375,-0.24224853515625,0.1322479248046875
1768416587379482000,6.840482177734375,-0.9842529296875,-0.2669525146484375,0.1590576171875
1768416587389483000,6.85048291015625,-0.9877777099609375,-0.259002685546875,0.1715850830078125
1768416587399485200,6.860485107421875,-0.9642791748046875,-0.2170257568359375,0.177886962890625
1768416587409486000,6.870486083984375,-0.9326324462890625,-0.157012939453125,0.170501708984375
1768416587419487000,6.880487060546875,-0.922943115234375,-0.102142333984375,0.157379150390625
1768416587429487900,6.89048779296875,-0.942474365234375,-0.0527191162109375,0.1564178466796875
1768416587439490000,6.900489990234375,-0.9690093994140625,-0.012542724609375,0.1569671630859375
1768416587449491000,6.910490966796875,-1.002532958984375,0.0126190185546875,0.1458587646484375
1768416587459492000,6.9204921875,-1.0345306396484375,0.0255279541015625,0.1360015869140625
1768416587469494000,6.930493896484375,-1.056304931640625,0.02642822265625,0.1407318115234375
1768416587479495200,6.9404951171875,-1.060455322265625,0.014556884765625,0.1583709716796875
1768416587489496000,6.95049609375,-1.0375213623046875,-0.008392333984375,0.179718017578125
1768416587499498200,6.960498291015625,-1.0125885009765625,-0.02691650390625,0.197113037109375
1768416587509499100,6.9704990234375,-1.0073394775390625,-0.0318450927734375,0.2116546630859375
1768416587519500000,6.9805,-1.0153656005859375,-0.0204010009765625,0.22186279296875
1768416587529501000,6.9905009765625,-1.0158843994140625,0.00421142578125,0.2199859619140625
1768416587539503000,7.000503173828125,-0.9980010986328125,0.0337066650390625,0.2009124755859375
1768416587549504000,7.01050390625,-0.9770965576171875,0.0599822998046875,0.1799774169921875
1768416587559505000,7.0205048828125,-0.970550537109375,0.06414794921875,0.1768951416015625
1768416587569507000,7.030507080078125,-0.9987945556640625,0.053741455078125,0.20001220703125
1768416587579508000,7.040508056640625,-0.9698028564453125,0.067535400390625,0.21612548828125
1768416587589509000,7.050509033203125,-0.9786529541015625,0.0671539306640625,0.2002410888671875
1768416587599510000,7.060510009765625,-1.0104522705078125,0.061614990234375,0.186309814453125
1768416587609512200,7.07051220703125,-1.0124969482421875,0.058349609375,0.182525634765625
1768416587619513000,7.08051318359375,-0.98895263671875,0.040771484375,0.184234619140625
1768416587629514000,7.090513916015625,-1.0073699951171875,0.017791748046875,0.1806640625
1768416587639516200,7.10051611328125,-1.066162109375,-0.00421142578125,0.1771240234375
1768416587649517000,7.11051708984375,-1.0938720703125,-0.02899169921875,0.170135498046875
1768416587659518000,7.12051806640625,-1.0678863525390625,-0.0468292236328125,0.156646728515625
1768416587669520100,7.13052001953125,-1.021240234375,-0.0490570068359375,0.145477294921875
1768416587679521000,7.14052099609375,-0.97528076171875,-0.0395355224609375,0.1363525390625
1768416587689522000,7.15052197265625,-0.935089111328125,-0.029052734375,0.1251068115234375
1768416587699523000,7.160523193359375,-0.9035491943359375,-0.019195556640625,0.1160430908203125
1768416587709525000,7.17052490234375,-0.8812103271484375,-0.01544189453125,0.1171112060546875
1768416587719526100,7.180526123046875,-0.88812255859375,-0.016387939453125,0.128875732421875
1768416587729527000,7.190527099609375,-0.9219207763671875,-0.024627685546875,0.1522674560546875
1768416587739529200,7.200529296875,-0.962371826171875,-0.0380859375,0.178558349609375
1768416587749530000,7.210530029296875,-0.9954833984375,-0.0496368408203125,0.2113037109375
1768416587759531000,7.220531005859375,-1.0182037353515625,-0.056915283203125,0.239898681640625
1768416587769532000,7.230531982421875,-1.0219879150390625,-0.0661773681640625,0.261505126953125
1768416587779534000,7.2405341796875,-0.9937896728515625,-0.073699951171875,0.2857208251953125
1768416587789535000,7.250534912109375,-0.9703521728515625,-0.0745697021484375,0.297271728515625
1768416587799535900,7.260535888671875,-0.9696807861328125,-0.0736083984375,0.2819366455078125
1768416587809538000,7.2705380859375,-0.960693359375,-0.07122802734375,0.252593994140625
1768416587819539000,7.2805390625,-0.9627685546875,-0.054473876953125,0.2372894287109375
1768416587829540000,7.2905400390625,-0.9969635009765625,-0.0322265625,0.2200164794921875
1768416587839542000,7.3005419921875,-1.0189361572265625,-0.014404296875,0.198883056640625
1768416587849543200,7.310543212890625,-1.022003173828125,-0.0076141357421875,0.186859130859375
1768416587859544000,7.3205439453125,-1.001068115234375,-0.009765625,0.185791015625
1768416587869545000,7.330544921875,-0.9705963134765625,-0.0197906494140625,0.1928253173828125
1768416587879547100,7.340547119140625,-0.9627685546875,-0.0322265625,0.2154388427734375
1768416587889548000,7.350548095703125,-0.957061767578125,-0.0482025146484375,0.23175048828125
1768416587899549000,7.360548828125,-0.9625091552734375,-0.0515899658203125,0.2296905517578125
1768416587909550800,7.37055078125,-0.98760986328125,-0.0458984375,0.214874267578125
1768416587919552000,7.380552001953125,-0.9921875,-0.0448150634765625,0.19073486328125
1768416587929553200,7.39055322265625,-0.9834747314453125,-0.041229248046875,0.1669769287109375
1768416587939554800,7.400554931640625,-0.9888153076171875,-0.03271484375,0.168121337890625
1768416587949556200,7.41055615234375,-0.9948577880859375,-0.0207672119140625,0.18426513671875
1768416587959557000,7.42055712890625,-0.991058349609375,-0.0124053955078125,0.1900177001953125
1768416587969558000,7.43055810546875,-0.99114990234375,-0.0124359130859375,0.190185546875
1768416587979560200,7.440560302734375,-0.9680328369140625,-0.0181427001953125,0.198394775390625
1768416587989561000,7.45056103515625,-0.95416259765625,-0.023712158203125,0.2078704833984375
1768416587999562000,7.46056201171875,-0.971343994140625,-0.0338134765625,0.2135009765625
1768416588009564000,7.47056396484375,-0.9915008544921875,-0.0347900390625,0.21197509765625
1768416588019565000,7.48056494140625,-1.001953125,-0.0229034423828125,0.2046661376953125
1768416588029566000,7.49056591796875,-1.013092041015625,-0.0093841552734375,0.1985626220703125
1768416588039567000,7.500567138671875,-1.01409912109375,0.00537109375,0.1950836181640625
1768416588049569000,7.510569091796875,-1.005035400390625,0.01495361328125,0.193389892578125
1768416588059570200,7.520570068359375,-0.9826202392578125,0.0196685791015625,0.187652587890625
1768416588069571000,7.530571044921875,-0.965179443359375,0.019866943359375,0.1760406494140625
1768416588079573000,7.540572998046875,-0.95391845703125,0.0145263671875,0.16412353515625
1768416588089574100,7.55057421875,-0.9621124267578125,0.012664794921875,0.16253662109375
1768416588099575000,7.560574951171875,-0.98828125,0.0149383544921875,0.1622314453125
1768416588109577000,7.570576904296875,-1.0056610107421875,0.0115966796875,0.169097900390625
1768416588119578000,7.580578125,-1.0111083984375,0.0059814453125,0.18060302734375
1768416588129579000,7.5905791015625,-1.006103515625,0,0.199798583984375
1768416588139580000,7.600579833984375,-0.9935455322265625,-0.00787353515625,0.2091064453125
1768416588149581800,7.610581787109375,-0.9736328125,-0.0142059326171875,0.2029266357421875
1768416588159583000,7.6205830078125,-0.955413818359375,-0.0155792236328125,0.1920318603515625
1768416588169584000,7.630584228515625,-0.9564666748046875,-0.01556396484375,0.1730804443359375
1768416588179586000,7.6405859375,-0.967376708984375,-0.0132904052734375,0.1639862060546875
1768416588189587200,7.650587158203125,-0.9950408935546875,-0.00750732421875,0.169036865234375
1768416588199588000,7.660588134765625,-1.0184783935546875,-0.00531005859375,0.1768341064453125
1768416588209590000,7.670590087890625,-1.010986328125,-0.0119781494140625,0.1859130859375
1768416588219591200,7.680591064453125,-0.990692138671875,-0.021575927734375,0.1947479248046875
1768416588229592000,7.690592041015625,-0.9786529541015625,-0.0297088623046875,0.19415283203125
1768416588239593000,7.700593017578125,-0.96746826171875,-0.0377960205078125,0.19439697265625
1768416588249595000,7.710594970703125,-0.9619903564453125,-0.037628173828125,0.190948486328125
1768416588259596000,7.720595947265625,-0.970245361328125,-0.03924560546875,0.18414306640625
1768416588269597000,7.730596923828125,-0.984161376953125,-0.04095458984375,0.1850433349609375
1768416588279598800,7.740598876953125,-0.9916839599609375,-0.03887939453125,0.18426513671875
1768416588289600300,7.750600341796875,-0.9879150390625,-0.0450592041015625,0.1819610595703125
1768416588299601200,7.76060107421875,-0.97845458984375,-0.04962158203125,0.1831207275390625
1768416588309602000,7.77060205078125,-0.9783172607421875,-0.0471649169921875,0.19287109375
1768416588319604200,7.780604248046875,-0.988433837890625,-0.0417327880859375,0.1995391845703125
1768416588329605000,7.790605224609375,-0.979461669921875,-0.0413970947265625,0.1982269287109375
1768416588339606000,7.80060595703125,-0.9558258056640625,-0.0389251708984375,0.1900177001953125
1768416588349608200,7.810608154296875,-0.95428466796875,-0.03643798828125,0.1765594482421875
1768416588359609000,7.820609130859375,-0.9759368896484375,-0.0326995849609375,0.1733245849609375
1768416588369610000,7.83060986328125,-0.9996795654296875,-0.0307159423828125,0.18304443359375
1768416588379611100,7.840611083984375,-1.00750732421875,-0.0356292724609375,0.195526123046875
1768416588389613000,7.850613037109375,-1.0008697509765625,-0.0410003662109375,0.2030792236328125
1768416588399614200,7.8606142578125,-0.987335205078125,-0.0406951904296875,0.2028656005859375
1768416588409615000,7.870614990234375,-0.973663330078125,-0.03350830078125,0.1947479248046875
1768416588419617300,7.8806171875,-0.9702911376953125,-0.024749755859375,0.181243896484375
1768416588429618200,7.8906181640625,-0.9788055419921875,-0.0135040283203125,0.171661376953125
1768416588439619000,7.900619140625,-0.988006591796875,-0.0049591064453125,0.1714019775390625
1768416588449621200,7.910621337890625,-0.9923095703125,-0.003082275390625,0.1797943115234375
1768416588459622100,7.9206220703125,-0.9860687255859375,-0.00653076171875,0.1929168701171875
1768416588469623000,7.930623046875,-0.9800262451171875,-0.0131378173828125,0.1995391845703125
1768416588479624000,7.9406240234375,-0.9867706298828125,-0.022247314453125,0.192718505859375
1768416588489626000,7.950626220703125,-0.99700927734375,-0.0230865478515625,0.1803436279296875
1768416588499627000,7.960626953125,-0.9988861083984375,-0.0204620361328125,0.173583984375
1768416588509628200,7.970628173828125,-0.99822998046875,-0.02008056640625,0.17596435546875
1768416588519630000,7.980630126953125,-0.993682861328125,-0.01934814453125,0.1912841796875
1768416588529631200,7.99063134765625,-0.9870758056640625,-0.016815185546875,0.2052764892578125
1768416588539632000,8.000632080078125,-0.9702911376953125,-0.01593017578125,0.205322265625
1768416588549633300,8.01063330078125,-0.961334228515625,-0.01934814453125,0.19366455078125
1768416588559635200,8.02063525390625,-0.9647369384765625,-0.0189361572265625,0.181884765625
1768416588569636000,8.030635986328125,-0.9817352294921875,-0.0149078369140625,0.1693115234375
1768416588579637000,8.040636962890625,-1.0005645751953125,-0.009521484375,0.1582794189453125
1768416588589639200,8.05063916015625,-1.004974365234375,-0.0054168701171875,0.1517486572265625
1768416588599640000,8.06064013671875,-0.998931884765625,-0.0079498291015625,0.1506805419921875
1768416588609641000,8.070640869140625,-0.9987030029296875,-0.0140380859375,0.152862548828125
1768416588619642400,8.080642333984375,-0.990203857421875,-0.0238189697265625,0.15631103515625
1768416588629644000,8.09064404296875,-0.9717254638671875,-0.0272064208984375,0.1613922119140625
1768416588639645200,8.100645263671876,-0.970703125,-0.0256500244140625,0.1621551513671875
1768416588649646000,8.11064599609375,-0.97882080078125,-0.0207366943359375,0.166351318359375
1768416588659648300,8.120648193359376,-0.9828033447265625,-0.0111541748046875,0.1669158935546875
1768416588669649200,8.130649169921876,-0.9850921630859375,-0.0058135986328125,0.16937255859375
1768416588679650000,8.140650146484376,-0.9880218505859375,-0.0025482177734375,0.17352294921875
1768416588689652200,8.15065234375,-0.9926605224609375,-0.006439208984375,0.16943359375
1768416588699653000,8.160653076171876,-0.99188232421875,-0.0108795166015625,0.165985107421875
1768416588709654000,8.170654052734376,-0.985443115234375,-0.0185394287109375,0.158721923828125
1768416588719655000,8.180655029296876,-0.9823760986328125,-0.024505615234375,0.1535186767578125
1768416588729657000,8.190656982421874,-0.9857330322265625,-0.028472900390625,0.15570068359375
1768416588739658200,8.200658203125,-0.98040771484375,-0.0337371826171875,0.1605224609375
1768416588749659100,8.2106591796875,-0.9859466552734375,-0.0366363525390625,0.1658477783203125
1768416588759661300,8.220661376953124,-0.9873504638671875,-0.0336456298828125,0.1713714599609375
1768416588769662200,8.230662109375,-0.984405517578125,-0.0347747802734375,0.1710052490234375
1768416588779663000,8.2406630859375,-0.983856201171875,-0.035308837890625,0.1697998046875
1768416588789664300,8.250664306640624,-0.9884185791015625,-0.03277587890625,0.1702423095703125
1768416588799666200,8.260666259765625,-0.9859619140625,-0.0284881591796875,0.1730194091796875
1768416588809667000,8.2706669921875,-0.9690704345703125,-0.0265350341796875,0.17987060546875
1768416588819668000,8.28066796875,-0.9676666259765625,-0.0234222412109375,0.1872406005859375
1768416588829670100,8.290670166015625,-0.9687957763671875,-0.0198822021484375,0.18865966796875
1768416588839671000,8.300671142578125,-0.9676513671875,-0.02093505859375,0.1800994873046875
1768416588849672200,8.310672119140625,-0.97216796875,-0.01922607421875,0.173309326171875
1768416588859673300,8.32067333984375,-0.9781951904296875,-0.0149688720703125,0.1678619384765625
1768416588869675300,8.33067529296875,-0.975006103515625,-0.0188446044921875,0.164306640625
1768416588879676200,8.34067626953125,-0.9616851806640625,-0.0241851806640625,0.1583404541015625
1768416588889677000,8.350677001953125,-0.9693603515625,-0.0185394287109375,0.1534271240234375
1768416588899679200,8.36067919921875,-0.9945068359375,-0.0072174072265625,0.1540374755859375
1768416588909680000,8.37068017578125,-1.00665283203125,-0.0040283203125,0.15228271484375
1768416588919681000,8.380680908203125,-0.9997406005859375,-0.005767822265625,0.1430206298828125
1768416588929682200,8.39068212890625,-0.9840240478515625,-0.0053253173828125,0.1287384033203125
1768416588939684000,8.40068408203125,-0.978240966796875,-0.0069427490234375,0.11614990234375
1768416588949685000,8.41068505859375,-0.9842071533203125,-0.0071258544921875,0.1186981201171875
1768416588959686100,8.42068603515625,-0.99127197265625,-0.004669189453125,0.1285247802734375
1768416588969688000,8.43068798828125,-0.9909820556640625,-0.00823974609375,0.14251708984375
1768416588979689200,8.440689208984375,-0.9869232177734375,-0.0140228271484375,0.154693603515625
1768416588989690000,8.450690185546875,-0.9883575439453125,-0.0113983154296875,0.1571502685546875
1768416588999692300,8.4606923828125,-0.9939422607421875,-0.008209228515625,0.15777587890625
1768416589009693200,8.470693115234376,-0.9870452880859375,-0.0093994140625,0.1580963134765625
1768416589019694000,8.480694091796876,-0.98150634765625,-0.006317138671875,0.16357421875
1768416589029695000,8.490695068359376,-0.987823486328125,-0.0040740966796875,0.1667938232421875
1768416589039697200,8.500697265625,-0.998443603515625,-0.003082275390625,0.162933349609375
1768416589049698000,8.510697998046876,-1.002593994140625,-0.00067138671875,0.158447265625
1768416589059699000,8.520698974609376,-0.9989471435546875,0.00079345703125,0.1516571044921875
1768416589069701000,8.530701171875,-0.9938812255859375,0.0030059814453125,0.149169921875
1768416589079702000,8.540701904296874,-0.9903106689453125,0.0052337646484375,0.1488800048828125
1768416589089703200,8.550703125,-0.9852447509765625,0.0026397705078125,0.1512603759765625
1768416589099704300,8.560704345703124,-0.984405517578125,0.0009002685546875,0.1559295654296875
1768416589109706200,8.570706298828124,-0.9862213134765625,-0.000579833984375,0.1618499755859375
1768416589119707100,8.58070703125,-0.988616943359375,-0.0025787353515625,0.164642333984375
1768416589129708000,8.5907080078125,-0.9900054931640625,-0.00225830078125,0.1646728515625
1768416589139710200,8.600710205078125,-0.9966278076171875,-0.000823974609375,0.1635589599609375
1768416589149711000,8.610711181640625,-0.9909515380859375,0.0015869140625,0.162841796875
1768416589159712000,8.6207119140625,-0.9849090576171875,0.001495361328125,0.1638641357421875
1768416589169713200,8.630713134765625,-0.9776611328125,-0.00091552734375,0.16265869140625
1768416589179715000,8.640715087890625,-0.9786529541015625,-0.002288818359375,0.158355712890625
1768416589189716200,8.65071630859375,-0.982421875,-0.000762939453125,0.156402587890625
1768416589199717000,8.660717041015625,-0.9913482666015625,0.0012054443359375,0.16436767578125
1768416589209719300,8.67071923828125,-0.9959564208984375,0.003082275390625,0.171142578125
1768416589219720200,8.68072021484375,-0.995849609375,0.0013427734375,0.17169189453125
1768416589229721000,8.69072119140625,-0.9890289306640625,0.001007080078125,0.1708984375
1768416589239722200,8.70072216796875,-0.985443115234375,0.000885009765625,0.178375244140625
1768416589249724200,8.71072412109375,-0.987548828125,0.0002899169921875,0.1732177734375
1768416589259725000,8.72072509765625,-0.9849700927734375,0.000885009765625,0.1708831787109375
1768416589269726000,8.730725830078125,-0.98651123046875,0.00177001953125,0.1676025390625
1768416589279728000,8.74072802734375,-0.9847869873046875,0.0013427734375,0.1670989990234375
1768416589289729000,8.75072900390625,-0.983184814453125,0.00091552734375,0.1733856201171875
1768416589299730200,8.760730224609375,-0.98504638671875,-0.0017852783203125,0.17498779296875
1768416589309731300,8.7707314453125,-0.9852142333984375,-0.0004119873046875,0.17144775390625
1768416589319733200,8.780733154296875,-0.981781005859375,0.005462646484375,0.1656341552734375
1768416589329734100,8.790734130859375,-0.9811553955078125,0.008697509765625,0.158966064453125
1768416589339735000,8.800735107421875,-0.9867095947265625,0.0121307373046875,0.1562652587890625
1768416589349737000,8.810737060546876,-0.9848480224609375,0.011810302734375,0.15771484375
1768416589359738000,8.820738037109376,-0.9762115478515625,0.0086517333984375,0.1652069091796875
1768416589369739000,8.830739013671876,-0.9793243408203125,0.0098724365234375,0.171234130859375
1768416589379741000,8.840740966796876,-0.9896392822265625,0.0138092041015625,0.1722412109375
1768416589389742000,8.8507421875,-0.9964141845703125,0.01666259765625,0.1714935302734375
1768416589399743000,8.860742919921876,-0.9999542236328125,0.020965576171875,0.1692657470703125
1768416589409744100,8.870744140625,-0.9954833984375,0.0230560302734375,0.164886474609375
1768416589419746000,8.88074609375,-0.9872894287109375,0.021331787109375,0.1621856689453125
1768416589429747200,8.890747314453124,-0.989349365234375,0.014678955078125,0.15545654296875
1768416589439748000,8.900748046875,-1.0056304931640625,0.011962890625,0.146881103515625
1768416589449750000,8.91075,-1.0055389404296875,0.0108184814453125,0.1459197998046875
1768416589459751200,8.920751220703124,-0.9914398193359375,0.01031494140625,0.14794921875
1768416589469752000,8.930751953125,-0.97320556640625,0.0090179443359375,0.1480255126953125
1768416589479753000,8.9407529296875,-0.977020263671875,0.01300048828125,0.1558837890625
1768416589489755000,8.9507548828125,-0.98736572265625,0.0191802978515625,0.160675048828125
1768416589499756000,8.960756103515624,-0.97357177734375,0.017425537109375,0.1627349853515625
1768416589509757000,8.9707568359375,-0.96478271484375,0.0087432861328125,0.1623687744140625
1768416589519758800,8.9807587890625,-0.9820709228515625,0.0127716064453125,0.1640625
1768416589529760000,8.990760009765625,-0.9995574951171875,0.019287109375,0.17010498046875
1768416589539761200,9.00076123046875,-1.012542724609375,0.02008056640625,0.1715850830078125
1768416589549762000,9.010761962890625,-1.0126953125,0.010650634765625,0.1739959716796875
1768416589559764000,9.020763916015625,-0.992156982421875,-0.005218505859375,0.174957275390625
1768416589569765000,9.03076513671875,-0.9656982421875,-0.015289306640625,0.17236328125
1768416589579766000,9.04076611328125,-0.958526611328125,-0.0160675048828125,0.1718597412109375
1768416589589768000,9.050767822265625,-0.968841552734375,-0.00250244140625,0.162750244140625
1768416589599769000,9.06076904296875,-0.987091064453125,0.0167388916015625,0.1572265625
1768416589609770000,9.07077001953125,-1.0016021728515625,0.0269317626953125,0.15997314453125
1768416589619771000,9.08077099609375,-1.0073089599609375,0.0224761962890625,0.1633148193359375
1768416589629773000,9.09077294921875,-1.006103515625,0.0139312744140625,0.1622314453125
1768416589639774200,9.100774169921875,-0.994293212890625,0.0087738037109375,0.160064697265625
1768416589649775000,9.110775146484375,-0.9840545654296875,0.004913330078125,0.1562042236328125
1768416589659777000,9.120777099609375,-0.9831390380859375,0.00384521484375,0.1546173095703125
1768416589669778200,9.130778076171875,-0.98553466796875,0.0077972412109375,0.1534423828125
1768416589679779000,9.140779052734375,-0.993743896484375,0.0132904052734375,0.1532745361328125
1768416589689780000,9.150780029296875,-0.9906158447265625,0.0139923095703125,0.1569366455078125
1768416589699782100,9.1607822265625,-0.9862213134765625,0.013519287109375,0.1590728759765625
1768416589709783000,9.170782958984375,-0.983673095703125,0.0128326416015625,0.160552978515625
1768416589719784000,9.180783935546875,-0.9801025390625,0.0118408203125,0.1635284423828125
1768416589729785900,9.190785888671876,-0.9816131591796875,0.01031494140625,0.162750244140625
1768416589739787000,9.200787109375,-0.9882659912109375,0.011077880859375,0.159271240234375
1768416589749788200,9.2107880859375,-0.9978790283203125,0.0103759765625,0.1566925048828125
1768416589759789000,9.2207890625,-0.9976806640625,0.011566162109375,0.1607208251953125
1768416589769791200,9.230791259765626,-0.99951171875,0.014404296875,0.1649932861328125
1768416589779792100,9.240792236328126,-0.9933319091796875,0.0138092041015625,0.1674346923828125
1768416589789793000,9.25079296875,-0.98883056640625,0.01092529296875,0.17138671875
1768416589799795000,9.260794921875,-0.9880828857421875,0.0103912353515625,0.1753387451171875
1768416589809796000,9.270796142578124,-0.9923553466796875,0.0124664306640625,0.1797943115234375
1768416589819797000,9.280796875,-0.9976348876953125,0.0138702392578125,0.1770477294921875
1768416589829798000,9.2907978515625,-0.9954833984375,0.01287841796875,0.173095703125
1768416589839800000,9.300800048828124,-0.9892425537109375,0.00946044921875,0.17059326171875
1768416589849801000,9.310801025390624,-0.985382080078125,0.0078582763671875,0.1695709228515625
1768416589859802000,9.320802001953124,-0.9782867431640625,0.005767822265625,0.1727142333984375
1768416589869804000,9.330803955078125,-0.976043701171875,0.0048980712890625,0.171661376953125
1768416589879805200,9.34080517578125,-0.979766845703125,0.010223388671875,0.1685791015625
1768416589889806000,9.35080615234375,-0.978973388671875,0.009918212890625,0.1685028076171875
1768416589899807000,9.360806884765625,-0.9807586669921875,0.0068206787109375,0.167205810546875
1768416589909809200,9.37080908203125,-0.9837188720703125,0.0049285888671875,0.1640777587890625
1768416589919810000,9.38081005859375,-0.983306884765625,0.00238037109375,0.160888671875
1768416589929811000,9.39081103515625,-0.984375,0.0048370361328125,0.158355712890625
1768416589939813000,9.400813232421875,-0.9922027587890625,0.01220703125,0.1582489013671875
1768416589949814000,9.41081396484375,-0.9902191162109375,0.0153961181640625,0.1624603271484375
1768416589959815000,9.42081494140625,-0.9838409423828125,0.0130767822265625,0.167388916015625
1768416589969816000,9.430816162109375,-0.98785400390625,0.010650634765625,0.166259765625
1768416589979818000,9.44081787109375,-0.9928741455078125,0.0119171142578125,0.1694793701171875
1768416589989819100,9.450819091796875,-0.995697021484375,0.0114288330078125,0.1756744384765625
1768416589999820000,9.460820068359375,-0.9917449951171875,0.00787353515625,0.18536376953125
1768416590009822200,9.470822265625,-0.9835357666015625,0.00360107421875,0.188629150390625
1768416590019823000,9.480822998046875,-0.9871368408203125,0.0058441162109375,0.183563232421875
1768416590029824000,9.490823974609375,-0.9953460693359375,0.0114288330078125,0.1778411865234375
1768416590039825000,9.500824951171875,-0.9904327392578125,0.0084686279296875,0.174163818359375
1768416590049827000,9.5108271484375,-0.974609375,0.0017547607421875,0.16998291015625
1768416590059828000,9.520827880859375,-0.9704437255859375,0.0022125244140625,0.16900634765625
1768416590069828900,9.530828857421875,-0.985809326171875,0.0107421875,0.1686859130859375
1768416590079831000,9.5408310546875,-0.9912261962890625,0.0109710693359375,0.1679840087890625
1768416590089832200,9.550832275390626,-0.9827117919921875,0.005706787109375,0.1702423095703125
1768416590099833000,9.5608330078125,-0.9779052734375,0.0006866455078125,0.170440673828125
1768416590109834000,9.570833984375,-0.98614501953125,-0.0005950927734375,0.1683502197265625
1768416590119836200,9.580836181640626,-0.996337890625,-0.0023956298828125,0.167816162109375
1768416590129837000,9.590837158203126,-0.9989013671875,-0.002105712890625,0.1696624755859375
1768416590139838000,9.600837890625,-0.988922119140625,-0.0067291259765625,0.1699676513671875
1768416590149840100,9.610840087890624,-0.97930908203125,-0.00958251953125,0.1663818359375
1768416590159841000,9.620841064453124,-0.9862060546875,-0.0013275146484375,0.1620330810546875
1768416590169842000,9.630842041015624,-0.985748291015625,0.0019683837890625,0.1541595458984375
1768416590179843000,9.640843017578124,-0.986114501953125,0.0034942626953125,0.15057373046875
1768416590189845000,9.650844970703124,-0.984588623046875,0.0063018798828125,0.1522216796875
1768416590199846100,9.66084619140625,-0.9850006103515625,0.00726318359375,0.15313720703125
1768416590209847000,9.670846923828124,-0.988983154296875,0.007110595703125,0.1527862548828125
1768416590219849200,9.68084912109375,-0.9985809326171875,0.0074615478515625,0.1520233154296875
1768416590229850000,9.69085009765625,-0.9912261962890625,0.00567626953125,0.151611328125
1768416590239851000,9.70085107421875,-0.9828948974609375,0.0010833740234375,0.1504058837890625
1768416590249852000,9.710851806640624,-0.9873199462890625,0.009918212890625,0.1495208740234375
1768416590259854000,9.72085400390625,-0.99053955078125,0.0099945068359375,0.1504058837890625
1768416590269855000,9.73085498046875,-0.9869232177734375,0.0064849853515625,0.1512298583984375
1768416590279855900,9.74085595703125,-0.9892730712890625,0.0023040771484375,0.15594482421875
1768416590289858000,9.750858154296875,-1.0007171630859375,-0.004669189453125,0.1582183837890625
1768416590299859000,9.76085888671875,-1.00335693359375,-0.007476806640625,0.158538818359375
1768416590309860000,9.770860107421875,-1.00103759765625,-0.0028533935546875,0.1585845947265625
1768416590319861000,9.780861083984375,-0.9959259033203125,0.0005340576171875,0.155059814453125
1768416590329863200,9.79086328125,-0.98614501953125,0.0052337646484375,0.1536102294921875
1768416590339864000,9.800864013671875,-0.9749755859375,0.009124755859375,0.1533050537109375
1768416590349865000,9.810864990234375,-0.9604644775390625,0.009002685546875,0.154266357421875
1768416590359867100,9.8208671875,-0.9622039794921875,0.00030517578125,0.1615142822265625
1768416590369868000,9.830867919921875,-0.97662353515625,-0.00396728515625,0.1762542724609375
1768416590379869000,9.840868896484375,-0.9941253662109375,-0.0096893310546875,0.1953125
1768416590389869800,9.850869873046875,-1.0060577392578125,-0.01226806640625,0.2135162353515625
1768416590399872000,9.8608720703125,-1.0078125,-0.0146331787109375,0.2188568115234375
1768416590409873000,9.870872802734375,-1.0038604736328125,-0.0079803466796875,0.2056884765625
1768416590419874000,9.8808740234375,-0.9960479736328125,-0.0047760009765625,0.1871490478515625
1768416590429876000,9.8908759765625,-0.9863433837890625,0.0047760009765625,0.165374755859375
1768416590439877000,9.900877197265626,-0.9618377685546875,0.0154571533203125,0.1443939208984375
1768416590449878000,9.9108779296875,-0.945648193359375,0.019683837890625,0.1328277587890625
1768416590459879000,9.92087890625,-0.9453887939453125,0.02099609375,0.1322479248046875
1768416590469881000,9.930881103515626,-0.9541778564453125,0.014923095703125,0.1383819580078125
1768416590479882000,9.940882080078126,-0.9708404541015625,0.0042724609375,0.1494293212890625
1768416590489883000,9.9508828125,-0.9863433837890625,-0.00115966796875,0.155548095703125
1768416590499885000,9.960885009765626,-0.9944610595703125,-0.0039520263671875,0.157623291015625
1768416590509886000,9.970885986328126,-0.9972381591796875,-0.0006866455078125,0.1593170166015625
1768416590519886800,9.980886962890626,-0.9980010986328125,0.00494384765625,0.1636199951171875
1768416590529888000,9.990887939453126,-0.9969482421875,0.0081634521484375,0.16485595703125
1768416590539890200,10.00089013671875,-0.9940032958984375,0.0103302001953125,0.166259765625
1768416590549891000,10.01089111328125,-0.9899444580078125,0.0111846923828125,0.165130615234375
1768416590559892000,10.02089208984375,-0.9854736328125,0.00872802734375,0.1643524169921875
1768416590569893000,10.03089306640625,-0.9833831787109375,0.0062408447265625,0.1610260009765625
1768416590579895000,10.04089501953125,-0.984954833984375,0.002685546875,0.16119384765625
1768416590589896000,10.05089599609375,-0.98760986328125,0.0014801025390625,0.1653900146484375
1768416590599896800,10.060896728515624,-0.9893798828125,-0.003814697265625,0.166168212890625
1768416590609899000,10.07089892578125,-0.9987945556640625,-0.0055999755859375,0.1657562255859375
1768416590619900000,10.08089990234375,-1.0055389404296875,-0.0038909912109375,0.1681060791015625
1768416590629901000,10.090901123046875,-0.9975433349609375,-0.00994873046875,0.1705322265625
1768416590639902200,10.100902099609375,-0.97479248046875,-0.0172576904296875,0.169891357421875
1768416590649904000,10.110904052734375,-0.96807861328125,-0.013702392578125,0.1636962890625
1768416590659905000,10.120905029296875,-0.984039306640625,-0.0008087158203125,0.1601104736328125
1768416590669906200,10.13090625,-0.98773193359375,0.0030517578125,0.159942626953125
1768416590679908000,10.140908203125,-0.974212646484375,-0.0013580322265625,0.1586151123046875
1768416590689909000,10.150908935546875,-0.97015380859375,-0.0006256103515625,0.1597900390625
1768416590699910000,10.160909912109375,-0.9828948974609375,-0.00115966796875,0.157958984375
1768416590709911000,10.1709111328125,-1.0030670166015625,-0.0013427734375,0.157196044921875
1768416590719913000,10.180912841796875,-1.013153076171875,-0.002471923828125,0.161895751953125
1768416590729913900,10.190913818359375,-1.003631591796875,-0.0049896240234375,0.1635589599609375
1768416590739915000,10.2009150390625,-0.9860687255859375,-0.01031494140625,0.1547393798828125
1768416590749917000,10.2109169921875,-0.974700927734375,-0.0072174072265625,0.1468963623046875
1768416590759918000,10.22091796875,-0.971099853515625,-0.003692626953125,0.137939453125
1768416590769919000,10.2309189453125,-0.9777069091796875,0.003326416015625,0.1307220458984375
1768416590779920100,10.240920166015625,-0.9842376708984375,0.0068817138671875,0.1315460205078125
1768416590789922000,10.250922119140625,-0.990753173828125,0.0084991455078125,0.1355438232421875
1768416590799923000,10.2609228515625,-0.9987030029296875,0.0101165771484375,0.1371917724609375
1768416590809924000,10.270924072265625,-0.9987335205078125,0.00860595703125,0.134765625
1768416590819926000,10.280926025390626,-0.9930419921875,0.0074310302734375,0.1320343017578125
1768416590829927000,10.290927001953126,-0.9875335693359375,0.0077667236328125,0.132659912109375
1768416590839927800,10.300927734375,-0.9823150634765625,0.00726318359375,0.1376953125
1768416590849929200,10.31092919921875,-0.9842529296875,0.0059967041015625,0.144073486328125
1768416590859931000,10.320930908203126,-0.9848785400390625,0.0028839111328125,0.1520538330078125
1768416590869932000,10.33093212890625,-0.9911346435546875,0.0015411376953125,0.160491943359375
1768416590879933200,10.34093310546875,-0.9964599609375,0.0018463134765625,0.1701507568359375
1768416590889935000,10.35093505859375,-0.9925384521484375,-0.0028839111328125,0.181427001953125
1768416590899936000,10.36093603515625,-0.990997314453125,-0.007049560546875,0.18829345703125
1768416590909937200,10.370937255859374,-0.989593505859375,-0.0091094970703125,0.1938629150390625
1768416590919938000,10.38093798828125,-0.988983154296875,-0.0089263916015625,0.1943359375
1768416590929940000,10.39093994140625,-0.990936279296875,-0.00421142578125,0.1929168701171875
1768416590939940900,10.40094091796875,-0.9845428466796875,0.0023956298828125,0.18841552734375
1768416590949942000,10.41094189453125,-0.974853515625,0.0062255859375,0.1795654296875
1768416590959944000,10.42094384765625,-0.964752197265625,0.003753662109375,0.17645263671875
1768416590969944800,10.43094482421875,-0.9664154052734375,0.004547119140625,0.1755523681640625
1768416590979946200,10.4409462890625,-0.9781951904296875,0.006011962890625,0.176849365234375
1768416590989947100,10.450947021484374,-0.9893341064453125,0.0083770751953125,0.17681884765625
1768416590999949000,10.460948974609375,-0.993255615234375,0.0115509033203125,0.1748199462890625
1768416591009950000,10.470949951171875,-0.99566650390625,0.0161285400390625,0.16717529296875
1768416591019951000,10.480951171875,-0.9913787841796875,0.021697998046875,0.1576995849609375
1768416591029953000,10.490953125,-0.981689453125,0.0225982666015625,0.1502227783203125
1768416591039954000,10.500953857421875,-0.9822845458984375,0.0220794677734375,0.1470184326171875
1768416591049955000,10.510955078125,-0.9853515625,0.017852783203125,0.1447906494140625
1768416591059956000,10.5209560546875,-0.9912261962890625,0.0139312744140625,0.14434814453125
1768416591069958000,10.5309580078125,-0.9869842529296875,0.0114593505859375,0.1648406982421875
1768416591079959000,10.540958984375,-0.9907073974609375,0.00872802734375,0.170562744140625
1768416591089960200,10.550960205078125,-0.9897613525390625,0.009552001953125,0.166259765625
1768416591099961000,10.560961181640625,-0.986541748046875,0.0117950439453125,0.1629180908203125
1768416591109963000,10.570962890625,-0.9847564697265625,0.0133056640625,0.155487060546875
1768416591119964200,10.580964111328125,-0.982208251953125,0.015533447265625,0.153350830078125
1768416591129965000,10.590965087890625,-0.9783935546875,0.0204315185546875,0.1539306640625
1768416591139967000,10.600967041015625,-0.977142333984375,0.0192718505859375,0.1561431884765625
1768416591149968000,10.6109677734375,-0.9843902587890625,0.016082763671875,0.158721923828125
1768416591159969000,10.620968994140625,-0.9906158447265625,0.01287841796875,0.16607666015625
1768416591169970000,10.630969970703125,-0.9995269775390625,0.0102386474609375,0.17108154296875
1768416591179971800,10.640971923828126,-1.00146484375,0.0103759765625,0.180938720703125
1768416591189973000,10.650972900390625,-0.994384765625,0.009918212890625,0.19403076171875
1768416591199974100,10.66097412109375,-0.9877777099609375,0.011688232421875,0.2057342529296875
1768416591209976000,10.67097607421875,-0.9851531982421875,0.0113677978515625,0.2118988037109375
1768416591219977200,10.680977294921876,-0.990753173828125,0.0099945068359375,0.210784912109375
1768416591229978000,10.69097802734375,-0.99822998046875,0.013427734375,0.2069244384765625
1768416591239979000,10.70097900390625,-0.9931488037109375,0.0090789794921875,0.2019195556640625
1768416591249981000,10.71098095703125,-0.9827880859375,0.0043792724609375,0.1981964111328125
1768416591259982000,10.720982177734374,-0.98712158203125,0.0064849853515625,0.1948394775390625
1768416591269983000,10.73098291015625,-0.9965362548828125,0.0122222900390625,0.1893463134765625
1768416591279985000,10.74098486328125,-0.987762451171875,0.0097808837890625,0.177978515625
1768416591289986000,10.750986083984374,-0.97821044921875,0.0069580078125,0.166015625
1768416591299987200,10.7609873046875,-0.9786529541015625,0.0120849609375,0.158599853515625
1768416591309988000,10.770988037109374,-0.991119384765625,0.0167236328125,0.1551666259765625
1768416591319990000,10.780989990234374,-1.0060882568359375,0.016632080078125,0.1649017333984375
1768416591329991000,10.790990966796874,-1.0108489990234375,0.010772705078125,0.180206298828125
1768416591339992000,10.800991943359374,-0.9996185302734375,0.0055389404296875,0.1924285888671875
1768416591349994000,10.810993896484375,-0.9918670654296875,0.0026702880859375,0.18841552734375
1768416591359995000,10.820994873046875,-0.988922119140625,0.00384521484375,0.1760101318359375
1768416591369995800,10.830995849609375,-0.98211669921875,0.0062255859375,0.1610565185546875
1768416591379997000,10.840996826171875,-0.985260009765625,0.0124664306640625,0.1544342041015625
1768416591389998800,10.850998779296875,-0.989593505859375,0.0177459716796875,0.154571533203125
1768416591399999700,10.860999755859375,-0.99090576171875,0.0227813720703125,0.157470703125
1768416591410001200,10.871001220703125,-0.9900054931640625,0.0246734619140625,0.16448974609375
1768416591420002800,10.8810029296875,-0.993072509765625,0.0215911865234375,0.1633758544921875
1768416591430004000,10.89100390625,-0.9899749755859375,0.0123291015625,0.1532745361328125
1768416591440004900,10.9010048828125,-0.9856414794921875,0.0042877197265625,0.1493682861328125
1768416591450006000,10.911006103515625,-0.982208251953125,-0.0013427734375,0.1525726318359375
1768416591460008000,10.921008056640625,-0.9796142578125,-0.0036773681640625,0.160247802734375
1768416591470008800,10.9310087890625,-0.9827728271484375,0.0023345947265625,0.1697998046875
1768416591480010000,10.941010009765625,-0.9876556396484375,0.010833740234375,0.1784210205078125
1768416591490012000,10.951011962890625,-0.9854278564453125,0.014007568359375,0.1806793212890625
1768416591500012800,10.9610126953125,-0.9806060791015625,0.0161590576171875,0.1731109619140625
1768416591510014000,10.971013916015625,-0.9687042236328125,0.015228271484375,0.1652069091796875
1768416591520015000,10.98101513671875,-0.9653778076171875,0.0168609619140625,0.152252197265625
1768416591530017000,10.99101708984375,-0.9667205810546875,0.013336181640625,0.1426849365234375
1768416591540018000,11.001017822265625,-0.973846435546875,0.0086212158203125,0.1357421875
1768416591550019000,11.01101904296875,-0.9804840087890625,0.003204345703125,0.13336181640625
1768416591560021000,11.02102099609375,-0.983978271484375,-0.003631591796875,0.13568115234375
1768416591570022000,11.03102197265625,-0.9953155517578125,-0.00384521484375,0.1421356201171875
1768416591580023000,11.04102294921875,-1.00897216796875,-0.0069580078125,0.1519317626953125
1768416591590024000,11.05102392578125,-1.0117645263671875,-0.0080718994140625,0.1585845947265625
1768416591600025900,11.06102587890625,-1.0073089599609375,-0.0078582763671875,0.1651611328125
1768416591610026800,11.07102685546875,-0.9983062744140625,-0.0030975341796875,0.1617889404296875
1768416591620028000,11.08102783203125,-0.9910125732421875,0.001190185546875,0.156005859375
1768416591630029800,11.09102978515625,-0.9809112548828125,0.002593994140625,0.1522216796875
1768416591640031000,11.101031005859374,-0.976318359375,0.0059814453125,0.1519775390625
1768416591650032000,11.1110322265625,-0.9737548828125,0.00543212890625,0.1532745361328125
1768416591660033000,11.121032958984374,-0.9759674072265625,0.0054779052734375,0.1555633544921875
1768416591670035000,11.131034912109374,-0.9801483154296875,0.006378173828125,0.1605377197265625
1768416591680035800,11.141035888671874,-0.982269287109375,0.009429931640625,0.1612396240234375
1768416591690037000,11.151037109375,-0.9860687255859375,0.0122222900390625,0.159637451171875
1768416591700039000,11.161038818359375,-0.9820709228515625,0.01287841796875,0.15899658203125
1768416591710039800,11.171039794921874,-0.9808807373046875,0.0144500732421875,0.154327392578125
1768416591720041000,11.181041015625,-0.988616943359375,0.0156097412109375,0.15185546875
1768416591730041900,11.191041748046874,-0.995147705078125,0.014801025390625,0.1504364013671875
1768416591740043800,11.201043701171875,-0.9909210205078125,0.0146636962890625,0.1475982666015625
1768416591750045000,11.211044921875,-0.9899139404296875,0.016326904296875,0.1465301513671875
1768416591760046000,11.221046142578125,-0.992034912109375,0.01666259765625,0.1462860107421875
1768416591770047000,11.231046875,-0.9916839599609375,0.0174407958984375,0.1474609375
1768416591780049000,11.241048828125,-0.991668701171875,0.0254058837890625,0.14764404296875
1768416591790050000,11.251050048828125,-0.9927520751953125,0.0285186767578125,0.1457672119140625
1768416591800051000,11.261051025390625,-0.9892578125,0.0238494873046875,0.1420745849609375
1768416591810052900,11.271052978515625,-0.9843292236328125,0.0171661376953125,0.1433563232421875
1768416591820054000,11.281053955078125,-0.9833831787109375,0.0112457275390625,0.1461639404296875
1768416591830055000,11.291054931640625,-0.9849090576171875,0.0047760009765625,0.1527862548828125
1768416591840056000,11.30105615234375,-0.99310302734375,-0.0010528564453125,0.158172607421875
1768416591850057700,11.3110576171875,-1.0067138671875,-0.00238037109375,0.1661224365234375
1768416591860059100,11.32105908203125,-1.004150390625,-0.0053253173828125,0.1708831787109375
1768416591870060000,11.33106005859375,-0.986602783203125,-0.0117950439453125,0.17047119140625
1768416591880062000,11.34106201171875,-0.975433349609375,-0.009735107421875,0.1696319580078125
1768416591890063000,11.35106298828125,-0.98773193359375,0.0004425048828125,0.1692352294921875
1768416591900064000,11.36106396484375,-0.9917144775390625,0.0045318603515625,0.16619873046875
1768416591910065000,11.37106494140625,-0.9768218994140625,0.0016021728515625,0.1591339111328125
1768416591920066800,11.38106689453125,-0.9641876220703125,-0.0004730224609375,0.1567535400390625
1768416591930068000,11.39106787109375,-0.9752655029296875,0.002532958984375,0.1560516357421875
1768416591940068900,11.40106884765625,-0.990997314453125,0.0040130615234375,0.1585693359375
1768416591950070800,11.41107080078125,-0.9951324462890625,0.002899169921875,0.162261962890625
1768416591960072000,11.421072021484376,-0.9864959716796875,-0.0004425048828125,0.1615142822265625
1768416591970073000,11.431072998046876,-0.974273681640625,-0.0031280517578125,0.1590118408203125
1768416591980074000,11.441073974609376,-0.9712371826171875,0.0011749267578125,0.153839111328125
1768416591990076000,11.451075927734376,-0.966827392578125,0.003021240234375,0.1488494873046875
1768416592000077000,11.4610771484375,-0.972198486328125,0.0037689208984375,0.1468048095703125
1768416592010078000,11.471077880859376,-0.9811859130859375,0.00860595703125,0.150634765625
1768416592020079900,11.481079833984374,-0.990447998046875,0.0091552734375,0.154083251953125
1768416592030081000,11.4910810546875,-0.99517822265625,0.0102386474609375,0.1520843505859375
1768416592040082000,11.50108203125,-0.9904937744140625,0.0111083984375,0.1482086181640625
1768416592050082800,11.511082763671874,-0.9885101318359375,0.0090484619140625,0.152008056640625
1768416592060085000,11.5210849609375,-0.9892120361328125,0.00787353515625,0.1558380126953125
1768416592070086000,11.5310859375,-0.9903717041015625,0.0077362060546875,0.1586456298828125
1768416592080087000,11.541087158203124,-0.9898223876953125,0.009002685546875,0.1560211181640625
1768416592090089000,11.5510888671875,-0.9882049560546875,0.0089263916015625,0.1532440185546875
1768416592100090000,11.561090087890625,-0.9906463623046875,0.0125274658203125,0.1479339599609375
1768416592110091000,11.571091064453125,-0.9910888671875,0.0128173828125,0.1456298828125
1768416592120092000,11.581091796875,-0.9884796142578125,0.012451171875,0.1453399658203125
1768416592130094000,11.591093994140625,-0.9875335693359375,0.011810302734375,0.148193359375
1768416592140095000,11.601094970703125,-0.9886322021484375,0.011627197265625,0.15185546875
1768416592150096000,11.611095947265625,-0.9915313720703125,0.0112152099609375,0.155975341796875
1768416592160096800,11.6210966796875,-0.9933013916015625,0.0111541748046875,0.1565399169921875
1768416592170099000,11.631098876953125,-0.991607666015625,0.014190673828125,0.1540374755859375
1768416592180099800,11.641099853515625,-0.9895477294921875,0.0137939453125,0.1491546630859375
1768416592190101000,11.65110107421875,-0.9852294921875,0.013519287109375,0.14715576171875
1768416592200103200,11.661103271484375,-0.9840850830078125,0.013824462890625,0.1480255126953125
1768416592210104000,11.67110400390625,-0.9902801513671875,0.014892578125,0.1495361328125
1768416592220105000,11.68110498046875,-0.994415283203125,0.017486572265625,0.1537322998046875
1768416592230105900,11.69110595703125,-0.9925079345703125,0.019775390625,0.1551666259765625
1768416592240108000,11.70110791015625,-0.9870452880859375,0.0160675048828125,0.1519012451171875
1768416592250109000,11.71110888671875,-0.9859161376953125,0.0128021240234375,0.1491851806640625
1768416592260109800,11.72110986328125,-0.9859466552734375,0.0091552734375,0.1501312255859375
1768416592270112000,11.731112060546875,-0.9891357421875,0.0056915283203125,0.14984130859375
1768416592280113000,11.74111279296875,-0.99285888671875,0.002471923828125,0.152740478515625
1768416592290114000,11.751114013671875,-0.992431640625,-0.0009307861328125,0.1551971435546875
1768416592300115000,11.761114990234375,-0.9848480224609375,-0.001922607421875,0.1622314453125
1768416592310117000,11.7711171875,-0.978240966796875,-0.0026702880859375,0.1615447998046875
1768416592320118300,11.7811181640625,-0.9764251708984375,0.000579833984375,0.161712646484375
1768416592330119400,11.791119384765626,-0.9826812744140625,0.005706787109375,0.162994384765625
1768416592340120300,11.801120361328126,-0.9909210205078125,0.013671875,0.163970947265625
1768416592350122200,11.811122314453126,-0.9908599853515625,0.0169677734375,0.165374755859375
1768416592360123100,11.821123046875,-0.9803314208984375,0.013519287109375,0.1668701171875
1768416592370124300,11.831124267578126,-0.97955322265625,0.0100250244140625,0.1650390625
1768416592380126200,11.841126220703124,-0.9793853759765625,0.0084228515625,0.1642913818359375
1768416592390127000,11.851127197265624,-0.9841461181640625,0.0099029541015625,0.161590576171875
1768416592400128300,11.861128173828124,-0.9882659912109375,0.010833740234375,0.159759521484375
1768416592410129400,11.87112939453125,-0.990570068359375,0.009796142578125,0.1546783447265625
1768416592420131300,11.88113134765625,-0.991790771484375,0.010528564453125,0.1550750732421875
1768416592430132500,11.891132568359374,-0.9952239990234375,0.01177978515625,0.155364990234375
1768416592440133400,11.90113330078125,-0.99652099609375,0.013946533203125,0.1563568115234375
1768416592450135300,11.91113525390625,-0.9975738525390625,0.0173797607421875,0.1561431884765625
1768416592460136200,11.92113623046875,-0.995208740234375,0.022247314453125,0.1525115966796875
1768416592470137300,11.931137451171875,-0.9901123046875,0.024993896484375,0.1496734619140625
1768416592480138200,11.94113818359375,-0.9852752685546875,0.0257720947265625,0.1498870849609375
1768416592490140200,11.95114013671875,-0.9837646484375,0.025299072265625,0.1501922607421875
1768416592500141300,11.961141357421875,-0.9871063232421875,0.02587890625,0.1484832763671875
1768416592510142200,11.97114208984375,-0.9966583251953125,0.028778076171875,0.15081787109375
1768416592520144100,11.98114404296875,-0.9921112060546875,0.0278778076171875,0.1524658203125
1768416592530145300,11.991145263671875,-0.9759979248046875,0.0224761962890625,0.15057373046875
1768416592540146400,12.001146484375,-0.9741363525390625,0.02178955078125,0.1510467529296875
1768416592550147300,12.011147216796875,-0.9904022216796875,0.027130126953125,0.15203857421875
1768416592560149200,12.021149169921875,-1.0030975341796875,0.0319366455078125,0.1541748046875
1768416592570150400,12.031150390625,-0.9970703125,0.0305328369140625,0.1512908935546875
1768416592580151300,12.0411513671875,-0.9808349609375,0.02783203125,0.152435302734375
1768416592590152200,12.051152099609375,-0.9820556640625,0.0318603515625,0.156036376953125
1768416592600154000,12.061154052734375,-0.99664306640625,0.032562255859375,0.1608428955078125
1768416592610155300,12.0711552734375,-1.0115509033203125,0.0295562744140625,0.163726806640625
1768416592620156400,12.081156494140625,-1.0049591064453125,0.021026611328125,0.166015625
1768416592630158000,12.091157958984375,-0.987701416015625,0.0130767822265625,0.1661224365234375
1768416592640159500,12.101159423828125,-0.98211669921875,0.0106964111328125,0.17022705078125
1768416592650160400,12.111160400390625,-0.9827728271484375,0.0010223388671875,0.161346435546875
1768416592660161300,12.121161376953125,-0.9793243408203125,-0.0022430419921875,0.1477203369140625
1768416592670163500,12.13116357421875,-0.9790191650390625,0.0080413818359375,0.1399688720703125
1768416592680164400,12.141164306640626,-0.9796600341796875,0.019500732421875,0.138824462890625
1768416592690165200,12.151165283203126,-0.9873046875,0.032196044921875,0.1425323486328125
1768416592700167200,12.161167236328126,-0.996612548828125,0.0365142822265625,0.147308349609375
1768416592710168300,12.171168212890626,-0.9913787841796875,0.030792236328125,0.1528778076171875
1768416592720169200,12.181169189453126,-0.979644775390625,0.02508544921875,0.15838623046875
1768416592730170400,12.19117041015625,-0.9691162109375,0.0251312255859375,0.172760009765625
1768416592740172300,12.20117236328125,-0.9649505615234375,0.0322723388671875,0.1902008056640625
1768416592750173400,12.21117333984375,-0.97564697265625,0.043182373046875,0.198211669921875
1768416592760174300,12.22117431640625,-0.9932403564453125,0.0490264892578125,0.2032318115234375
1768416592770176300,12.23117626953125,-1.000762939453125,0.0482330322265625,0.2042083740234375
1768416592780177400,12.241177490234374,-1.001800537109375,0.0415802001953125,0.1997528076171875
1768416592790178300,12.25117822265625,-0.9979095458984375,0.0335540771484375,0.1922760009765625
1768416592800179200,12.26117919921875,-0.997406005859375,0.02972412109375,0.1857147216796875
1768416592810181400,12.271181396484375,-1.0033416748046875,0.0242156982421875,0.180877685546875
1768416592820182300,12.281182373046875,-1.014007568359375,0.0251007080078125,0.178436279296875
1768416592830183200,12.29118310546875,-1.0230255126953125,0.0276336669921875,0.1789398193359375
1768416592840185000,12.30118505859375,-1.0221405029296875,0.0220794677734375,0.1788330078125
1768416592850186200,12.311186279296875,-1.0105133056640625,0.0157928466796875,0.179534912109375
1768416592860187400,12.3211875,-0.9930572509765625,0.009521484375,0.18023681640625
1768416592870188300,12.331188232421875,-0.9792022705078125,0.003997802734375,0.182647705078125
1768416592880190500,12.3411904296875,-0.9707794189453125,0.00152587890625,0.1838531494140625
1768416592890191400,12.35119140625,-0.9707183837890625,0.007049560546875,0.1784515380859375
1768416592900192300,12.361192138671875,-0.9673309326171875,0.0158233642578125,0.172637939453125
1768416592910193200,12.371193115234375,-0.9675750732421875,0.021453857421875,0.1659088134765625
1768416592920195300,12.3811953125,-0.9774932861328125,0.0290069580078125,0.1631622314453125
1768416592930196200,12.3911962890625,-0.9836578369140625,0.0333404541015625,0.1699066162109375
1768416592940197000,12.401197021484375,-0.9836883544921875,0.026580810546875,0.177459716796875
1768416592950199300,12.41119921875,-0.9854888916015625,0.017822265625,0.1767578125
1768416592960200200,12.4212001953125,-0.9896240234375,0.0113677978515625,0.17529296875
1768416592970201300,12.431201416015625,-0.98809814453125,0.0089111328125,0.172943115234375
1768416592980202200,12.4412021484375,-0.9853973388671875,0.004302978515625,0.1654052734375
1768416592990204400,12.451204345703125,-0.985870361328125,0.00579833984375,0.16705322265625
1768416593000205300,12.461205322265625,-0.9846038818359375,0.0138092041015625,0.1669921875
1768416593010206200,12.471206298828125,-0.982391357421875,0.0186309814453125,0.1638031005859375
1768416593020208400,12.48120849609375,-0.9812469482421875,0.0176239013671875,0.1585235595703125
1768416593030209300,12.491209228515626,-0.9832000732421875,0.0204010009765625,0.159942626953125
1768416593040210200,12.501210205078126,-0.9842529296875,0.0201873779296875,0.15924072265625
1768416593050211000,12.511211181640626,-0.983001708984375,0.021453857421875,0.161590576171875
1768416593060213200,12.521213134765626,-0.9803619384765625,0.0191650390625,0.168670654296875
1768416593070214100,12.531214111328126,-0.9801025390625,0.0126953125,0.178619384765625
1768416593080215300,12.54121533203125,-0.9846954345703125,0.0135650634765625,0.185089111328125
1768416593090216200,12.55121630859375,-0.9906463623046875,0.01324462890625,0.1826019287109375
1768416593100218400,12.56121826171875,-0.99017333984375,0.015167236328125,0.1716156005859375
1768416593110219300,12.57121923828125,-0.983428955078125,0.02313232421875,0.1663055419921875
1768416593120220200,12.58122021484375,-0.982025146484375,0.03265380859375,0.16656494140625
1768416593130222300,12.591222412109374,-0.9886322021484375,0.0361175537109375,0.164154052734375
1768416593140223200,12.60122314453125,-0.996429443359375,0.0371246337890625,0.1574554443359375
1768416593150224100,12.61122412109375,-0.9965972900390625,0.039031982421875,0.151763916015625
1768416593160225300,12.621225341796874,-0.994171142578125,0.0415496826171875,0.149261474609375
1768416593170227200,12.631227294921874,-0.991180419921875,0.0329437255859375,0.1411590576171875
1768416593180228400,12.641228271484374,-0.9913177490234375,0.027557373046875,0.146392822265625
1768416593190229200,12.651229248046874,-0.9957275390625,0.0157928466796875,0.14776611328125
1768416593200231400,12.6612314453125,-0.9964141845703125,0.0055389404296875,0.1517333984375
1768416593210232300,12.671232421875,-0.99462890625,0.0070037841796875,0.1586761474609375
1768416593220233200,12.681233154296875,-0.9789581298828125,0.0100250244140625,0.1607208251953125
1768416593230234400,12.691234375,-0.9706268310546875,0.0166778564453125,0.158660888671875
1768416593240236300,12.701236328125,-0.9842529296875,0.0235137939453125,0.1599884033203125
1768416593250237200,12.7112373046875,-0.9915924072265625,0.0261688232421875,0.1599273681640625
1768416593260238000,12.721238037109375,-0.98895263671875,0.024444580078125,0.15362548828125
1768416593270240300,12.731240234375,-0.9846038818359375,0.0200042724609375,0.1502685546875
1768416593280241200,12.7412412109375,-0.9933624267578125,0.0172882080078125,0.1492156982421875
1768416593290242300,12.7512421875,-1.009063720703125,0.0101470947265625,0.1552276611328125
1768416593300243500,12.761243408203125,-1.013580322265625,0.006866455078125,0.1641845703125
1768416593310245400,12.771245361328125,-1.00177001953125,0.0011444091796875,0.1754302978515625
1768416593320245800,12.781245849609375,-0.98193359375,-0.001190185546875,0.1846923828125
1768416593330246700,12.79124658203125,-0.974700927734375,-0.0005035400390625,0.1801910400390625
1768416593340247600,12.80124755859375,-0.98114013671875,0.00390625,0.1774139404296875
1768416593350249700,12.811249755859375,-0.9894561767578125,0.0007476806640625,0.167205810546875
1768416593360250600,12.821250732421875,-0.9963226318359375,-0.00079345703125,0.1605072021484375
1768416593370251800,12.831251708984375,-1.0010833740234375,0.004150390625,0.1568450927734375
1768416593380253700,12.841253662109375,-0.98602294921875,0.0061492919921875,0.1501617431640625
1768416593390254800,12.8512548828125,-0.9657745361328125,0.005218505859375,0.1373138427734375
1768416593400255700,12.861255859375,-0.96844482421875,0.0077972412109375,0.115631103515625
1768416593410256600,12.871256591796875,-0.978302001953125,0.014007568359375,0.110198974609375
1768416593420258800,12.8812587890625,-0.9798431396484375,0.018402099609375,0.11737060546875
1768416593430259700,12.891259765625,-0.9759063720703125,0.020721435546875,0.1230316162109375
1768416593440260600,12.901260498046875,-0.983612060546875,0.02191162109375,0.1191253662109375
1768416593450262800,12.9112626953125,-0.993011474609375,0.0209197998046875,0.11700439453125
1768416593460263700,12.921263671875,-0.998626708984375,0.0165863037109375,0.1184539794921875
1768416593470264600,12.9312646484375,-1.0039215087890625,0.0157623291015625,0.1187286376953125
1768416593480265700,12.941265625,-0.9965667724609375,0.0097503662109375,0.1194305419921875
1768416593490267600,12.951267578125,-0.983062744140625,0.0058746337890625,0.1212005615234375
