time,seconds_elapsed,z,y,x
1768416580594849500,0.055849609375,-0.004057750958204269,0.08888590567708014,-0.06983882151022552
1768416580604850400,0.065850341796875,-0.010184782471135257,0.03848433669507503,-0.06872326148375868
1768416580614852400,0.075852294921875,-0.018959478948637844,-0.00218026664853096,-0.08223090476728975
1768416580624853500,0.085853515625,-0.001987301359698176,-0.04068915326297283,-0.09218903887569904
1768416580634854700,0.095854736328125,0.004863149056956171,-0.04711889404952526,-0.08592318341396749
1768416580644856600,0.105856689453125,-0.032536753402277824,-0.03126899848878383,-0.05088131532296538
1768416580654857700,0.115857666015625,-0.04650799560956657,-0.025032149925827977,-0.019861542354896664
1768416580664858600,0.125858642578125,-0.027822072905302045,-0.04532324280440807,-0.047208252833411096
1768416580674859500,0.135859619140625,-0.01587327643632889,-0.043161096334457395,-0.08441635904759168
1768416580684861400,0.145861328125,-0.028963059633970258,-0.03312017931342125,-0.12043832421712576
1768416580694862600,0.155862548828125,-0.09149396928362548,-0.012237550282478332,-0.12967070133425296
1768416580704863500,0.165863525390625,-0.11725735609345138,0.006392915907502174,-0.12233926246762275
1768416580714865400,0.175865478515625,-0.10914068513326346,0.001031096613407135,-0.14703012467510998
1768416580724866600,0.185866455078125,-0.11639927795939146,-0.04865852470695972,-0.1738029807884246
1768416580734867500,0.195867431640625,-0.12065116325020789,-0.07509995690882205,-0.20827786264643072
1768416580744869400,0.205869384765625,-0.11445062810964882,-0.07573299411535263,-0.23588497762680052
1768416580754870500,0.21587060546875,-0.13086283372826873,-0.05493628980219364,-0.2788640684578568
1768416580764871700,0.22587158203125,-0.1368249570030719,-0.011651859349012373,-0.3267425487030297
1768416580774872600,0.23587255859375,-0.14390695115327834,0.03114800245761871,-0.3905570684224367
1768416580784874500,0.24587451171875,-0.18947620460800826,0.08834405388534068,-0.42449967003464695
1768416580794875600,0.255875732421875,-0.24828845906071365,0.12489420764744281,-0.4624848981011659
1768416580804876500,0.26587646484375,-0.28739180443696677,0.12295417949557304,-0.48112142870575186
1768416580814878500,0.27587841796875,-0.31254378135018046,0.10018412928283214,-0.5313366082701831
1768416580824879400,0.28587939453125,-0.30811551657915115,0.04917173492610454,-0.5694089300982654
1768416580834880500,0.295880615234375,-0.3650806818604469,0.022351532539725303,-0.5982618804212659
1768416580844882400,0.30588232421875,-0.43239064248017967,-0.019803017100691794,-0.6062446958687157
1768416580854883300,0.31588330078125,-0.4867302084982395,-0.07374328160285949,-0.6436717055305838
1768416580864884700,0.325884765625,-0.5506581254642456,-0.14550503399968145,-0.7090403228241949
1768416580874885600,0.3358857421875,-0.6048293491780757,-0.2412193243920803,-0.7426758312486111
1768416580884887600,0.345887451171875,-0.6195767633896321,-0.29476036044359205,-0.7357816878207027
1768416580894888700,0.355888671875,-0.6161433548748493,-0.33235447030067444,-0.6812998637877404
1768416580904889600,0.3658896484375,-0.5578876017937436,-0.32162498649358745,-0.5986033142700791
1768416580914891500,0.3758916015625,-0.4552817617893219,-0.27321839072108267,-0.5067698108337819
1768416580924892400,0.385892333984375,-0.31377836464643477,-0.161964585891366,-0.4157692510902881
1768416580934893600,0.3958935546875,-0.24245259251408277,-0.04727145426273346,-0.3386090006507933
1768416580944895500,0.4058955078125,-0.22320205819699912,0.058365095207095145,-0.25847682172842323
1768416580954896400,0.415896484375,-0.15120419548936187,0.14899579872488974,-0.1888838647380471
1768416580964897500,0.4258974609375,-0.05813070192933082,0.17806231873333453,-0.163301314387843
1768416580974899500,0.4358994140625,0.025700258445739744,0.19324059864282606,-0.17005312673561274
1768416580984900400,0.445900390625,0.11893146331813186,0.18204700445532798,-0.1764060028936714
1768416580994901500,0.455901611328125,0.21877481633927673,0.16739479424655437,-0.24565095016397534
1768416581004902700,0.465902587890625,0.2483469477823004,0.12869126184284685,-0.2980086947150528
1768416581014904600,0.475904541015625,0.29587212107777594,0.11650164235532283,-0.26324995441436766
1768416581024905500,0.485905517578125,0.30176293268203735,0.059254153001308436,-0.18887020153887568
1768416581034906600,0.49590673828125,0.30665888803005215,0.015175941821932791,-0.03574694762043655
1768416581044908500,0.505908447265625,0.2989583966553211,0.01855272477865219,0.14453940383791922
1768416581054909400,0.515909423828125,0.21120533093307167,0.06480009669065476,0.24013291739486156
1768416581064910300,0.525910400390625,0.08027940537333488,0.14602525848150252,0.3373904917065054
1768416581074912500,0.53591259765625,-0.07570026088953018,0.245358323892951,0.5739973538670688
1768416581084913400,0.545913330078125,-0.03045589200761169,0.2449614335298538,0.8207837378017604
1768416581094914600,0.55591455078125,0.15761402599904686,0.16785247488617897,1.0399396989457308
1768416581104915700,0.565915771484375,0.2933306199014187,0.03221475490629673,1.2172946000620721
1768416581114917600,0.575917724609375,0.4608920028865337,-0.13212474342286587,1.2897662542939186
1768416581124918500,0.58591845703125,0.608366875654459,-0.3429553592920303,1.2750146753638982
1768416581134919700,0.595919677734375,0.6328630190074443,-0.535364767807722,1.1893769578278064
1768416581144921600,0.605921630859375,0.5193161348044872,-0.591025864753127,1.0112607169501482
1768416581154922500,0.615922607421875,0.31264676680061965,-0.5730991629183292,0.7688558360353112
1768416581164923400,0.62592333984375,0.0036614816496148704,-0.49041035831570623,0.48386327475979923
1768416581174925600,0.635925537109375,-0.28735684272143985,-0.3366770096749067,0.23988208443894982
1768416581184926500,0.645926513671875,-0.466619184894301,-0.13533552216291428,0.0687267686150968
1768416581194927400,0.65592724609375,-0.450298128157854,0.043776597884297365,-0.10597367246970534
1768416581204928500,0.665928466796875,-0.35846159251425413,0.1588970150142908,-0.20313998830132185
1768416581214930400,0.675930419921875,-0.27684001528434454,0.2585205878049135,-0.23444164695069192
1768416581224931600,0.685931640625,-0.20274024839401245,0.3558277003467083,-0.18540055266693234
1768416581234932500,0.695932373046875,-0.12147066293954849,0.4344108231961727,-0.08291530683487654
1768416581244934700,0.7059345703125,-0.05675013429112732,0.5445809244424105,0.10002561425287276
1768416581254935600,0.715935546875,-0.03879004164338112,0.6425216587126255,0.32306323913577945
1768416581264936400,0.7259365234375,-0.11246672428343445,0.6881681421220303,0.5158369509192183
1768416581274938600,0.735938720703125,-0.30864633552022275,0.6297241364598274,0.663423576965928
1768416581284939500,0.745939453125,-0.5386322451710701,0.49507484299540516,0.7783416033916175
1768416581294940400,0.7559404296875,-0.7125882245641201,0.3340899157911539,0.8587311180759221
1768416581304943600,0.765943603515625,-0.7545791811406612,0.14839432570040226,0.8758268489792943
1768416581314944500,0.775944580078125,-0.7129074465811253,-0.07062544184327126,0.8005695826169102
1768416581324945400,0.7859453125,-0.6142096833985299,-0.26004618993699546,0.6932905997022986
1768416581334946600,0.795946533203125,-0.49214536541476844,-0.3747743928790092,0.625540567164868
1768416581344948500,0.805948486328125,-0.46085459348559377,-0.4353787914454937,0.5710542130872607
1768416581354949400,0.815949462890625,-0.48628480281829833,-0.4216846126139164,0.5113145050587132
1768416581364950800,0.82595068359375,-0.5485328038733452,-0.3738426649868488,0.4488772285092622
1768416581374952400,0.835952392578125,-0.6447872655570507,-0.28534079019129277,0.38020752384364603
1768416581384953600,0.84595361328125,-0.7420319073218852,-0.1749479861050844,0.31457309522069987
1768416581394954800,0.855954833984375,-0.8146200275402515,-0.08560498431026935,0.280473622546345
1768416581404956700,0.865956787109375,-0.8420213908154517,0.006141571494936942,0.26052812823504207
1768416581414957600,0.87595751953125,-0.820623140412569,0.04633855732679367,0.22789887424372135
1768416581424958500,0.88595849609375,-0.7920973031520843,0.01953998225033283,0.14514716047272086
1768416581434960600,0.895960693359375,-0.7463735897880047,-0.04814414544403553,0.04502732859775424
1768416581444961500,0.90596142578125,-0.7087187627196312,-0.1593243005156517,-0.034910715992003676
1768416581454962400,0.91596240234375,-0.6636649845063686,-0.18434417548179624,-0.06328202027790249
1768416581464963600,0.925963623046875,-0.6194798058211803,-0.12982055813372134,0.0038606209509074686
1768416581474965500,0.935965576171875,-0.5762707786917686,-0.040509705042839045,0.1035512676283717
1768416581484966400,0.94596630859375,-0.5633949305057525,-0.09020517158210277,0.08038724966198206
1768416581494967600,0.955967529296875,-0.46212654965016986,-0.21879005044102667,0.021274770153686402
1768416581504969500,0.965969482421875,-0.16479432942457495,-0.20476035604476928,0.1453513047426939
1768416581514970600,0.975970703125,0.27107085729837416,-0.13187456805408,0.1932894062206149
1768416581524971500,0.985971435546875,0.6605155805647372,-0.19106267008185385,0.0682123162869364
1768416581534973700,0.9959736328125,0.889355900377035,-0.39746027193963523,-0.09847571792975067
1768416581544974600,1.005974609375,0.9786322666764259,-0.5941939733952284,-0.04740165651366114
1768416581554975500,1.0159755859375,0.9994342316865921,-0.6454010135412216,0.2817079866468906
1768416581564976400,1.025976318359375,0.9720785341840237,-0.5877572183459997,0.7456781548697501
1768416581574978600,1.035978515625,0.8177531379342079,-0.4447714736908674,1.1148587463296948
1768416581584979500,1.0459794921875,0.6944178501665592,-0.24135201086103913,1.2737763657405972
1768416581594980400,1.05598046875,0.5832277216902002,-0.02542377959191799,1.2202510387148708
1768416581604982500,1.065982421875,0.47449269474837924,0.15715397073924542,1.083404308271408
1768416581614983700,1.075983642578125,0.47449616534709926,0.18971534712612628,0.6912824016850442
1768416581624984600,1.085984619140625,0.5771849343946204,0.09638941317498684,0.15661774497069417
1768416581634986800,1.09598681640625,0.687055212444067,-0.0647545039832592,-0.3711400549646467
1768416581644987600,1.105987548828125,0.7052794359207153,-0.24340894339084623,-0.8431331514496355
1768416581654988500,1.115988525390625,0.5883002026489004,-0.3818365863502025,-1.1864280448943376
1768416581664990700,1.12599072265625,0.39123449275996536,-0.39946985819637776,-1.284322455804795
1768416581674991600,1.13599169921875,0.28023382244110107,-0.3174462395042181,-1.1811712203446776
1768416581684992500,1.145992431640625,0.2163829527666792,-0.15284838249981403,-0.8961147269874811
1768416581694993400,1.155993408203125,0.23823358657956123,0.08184066334068775,-0.4967756555639207
1768416581704995600,1.16599560546875,0.38167054560091346,0.3684574648171663,-0.06482493887096644
1768416581714996500,1.17599658203125,0.5658125130414963,0.6489093139231205,0.27337898811027406
1768416581724997600,1.18599755859375,0.729773241186142,0.887535699212551,0.5219345006093382
1768416581734999600,1.19599951171875,0.7951403241097926,1.0329366883158684,0.6736629391685128
1768416581745000700,1.206000732421875,0.7083131045281886,1.0427297680556773,0.5984070610456168
1768416581755001600,1.216001708984375,0.6320482685584574,0.9739905783504247,0.2995863192953169
1768416581765003800,1.226003662109375,0.512733285815455,0.819271141281724,-0.027172230694442984
1768416581775004700,1.236004638671875,0.3285200067043304,0.5724725554525852,-0.30685514125451446
1768416581785005600,1.246005615234375,0.1808136267354712,0.3375532079875469,-0.5645663123726844
1768416581795007500,1.256007568359375,0.14243395599126815,0.09419862513244151,-0.7561110668830573
1768416581805008600,1.266008544921875,0.10057170382831244,-0.23658874198198318,-0.8534713709168136
1768416581815009500,1.276009521484375,-0.06699435533192008,-0.4649743037641048,-0.7393358731709421
1768416581825010400,1.286010498046875,-0.2417196385970339,-0.5721183351874352,-0.5716192996241152
1768416581835012600,1.2960126953125,-0.23892328587677328,-0.5671627586066722,-0.44171705455631016
1768416581845013500,1.306013427734375,-0.10632106113526969,-0.5096861366719008,-0.35992666009813545
1768416581855014700,1.3160146484375,0.020252477901242672,-0.4456868349701166,-0.3641914779357612
1768416581865016600,1.3260166015625,0.03154544080998748,-0.29782442418932914,-0.4318604080609977
1768416581875017700,1.336017822265625,-0.04641103804111481,-0.16243629505634308,-0.5589999104171991
1768416581885018600,1.3460185546875,0.008655527077242731,-0.058009705898165696,-0.8488589086852967
1768416581895020500,1.3560205078125,0.1117407115638256,0.07072890221774578,-1.287192750544101
1768416581905021700,1.366021728515625,0.09597622926421463,0.27497078734636304,-1.6995799579806625
1768416581915022600,1.376022705078125,-0.08629881179332732,0.5310919127941132,-1.983773185572028
1768416581925024500,1.3860244140625,-0.1973041948199272,0.807799314674735,-2.060009745295346
1768416581935025400,1.396025390625,-0.28283965755794194,0.9159908093243837,-1.8545310118481515
1768416581945026600,1.406026611328125,-0.3711106096744537,0.9913011941134929,-1.5597171676516532
1768416581955027500,1.41602734375,-0.4666495434999466,1.0118681813240051,-1.2599129678219556
1768416581965029400,1.426029296875,-0.5087059299955144,0.8874643875420093,-0.9638654901772737
1768416581975030800,1.43603076171875,-0.40545477782487865,0.695675156751275,-0.67494567245543
1768416581985031700,1.44603173828125,-0.1897884123623371,0.6006155308753252,-0.6442579809859394
1768416581995033600,1.45603369140625,0.014823548187687993,0.5847422544389963,-0.7146316400252282
1768416582005034500,1.466034423828125,0.16002463080473242,0.5370271480619907,-0.6836828134015203
1768416582015035600,1.47603564453125,0.29151509491205213,0.5782844566017389,-0.7958356128975749
1768416582025037600,1.48603759765625,0.3626291970551014,0.5018617266565562,-0.7304496791429818
1768416582035038500,1.49603857421875,0.43286527425460514,-0.0460667546480894,-0.26676453840658065
1768416582045039600,1.50603955078125,0.496859972846508,-0.7318757664233446,-0.06554901536181569
1768416582055041500,1.51604150390625,0.3624842356264591,-1.5672235977590083,0.4029451330915093
1768416582065042400,1.52604248046875,0.6828385445971041,-2.339564645561576,0.9676399672146886
1768416582075043600,1.536043701171875,1.4836721849776804,-2.5867566146224736,0.9086856739427894
1768416582085044700,1.546044677734375,1.907125414699316,-2.127363325861096,0.4006093836203217
1768416582095046400,1.55604638671875,1.3195733635365963,-0.9491150802910328,-0.16061317128241062
1768416582105047600,1.566047607421875,0.10687390924505889,0.4423018687069416,-0.40565526883304115
1768416582115048700,1.576048583984375,-0.6759365831889211,1.507616978058219,-0.39232159387692805
1768416582125050600,1.586050537109375,-0.9025592269517481,2.0087387000024317,-0.21581892567574976
1768416582135051500,1.596051513671875,-0.9674468557953834,1.857292000994086,0.03562500174120068
1768416582145052700,1.606052734375,-0.9751064306378364,1.2750363026738165,0.06071092768087983
1768416582155054600,1.6160546875,-0.8550527218241244,0.6012818858295679,-0.08019611100405453
1768416582165055500,1.626055419921875,-0.6985773809988052,-0.06733458360433578,-0.23430866822078822
1768416582175056400,1.636056396484375,-0.5429483548045158,-0.6179384215980768,-0.4365544110961258
1768416582185057500,1.6460576171875,-0.32310484978780146,-1.0070616578251124,-0.6504138732671737
1768416582195059500,1.6560595703125,-0.024437764229252933,-1.2323258727163076,-0.7969521958373487
1768416582205060600,1.666060546875,0.26189970884919167,-1.229493864160776,-0.7916098118960857
1768416582215061800,1.676061767578125,0.4281238518811762,-1.0085960277855395,-0.6525760197371244
1768416582225063700,1.686063720703125,0.40489612102881073,-0.6142611943900584,-0.459373415017128
1768416582235064600,1.696064697265625,0.2597849086523056,-0.15318272902071475,-0.2010731919646263
1768416582245065500,1.7060654296875,0.0993777813360095,0.24059505501389503,0.02375058568269014
1768416582255067600,1.716067626953125,-0.028710692308098078,0.480582207262516,0.17484364894777535
1768416582265068500,1.726068603515625,-0.13256824940666556,0.47281624943614003,0.32338761225193735
1768416582275069400,1.7360693359375,-0.18932079485058784,0.38939445438385006,0.3762717918299138
1768416582285071600,1.746071533203125,-0.2438414895892143,0.316631415989995,0.32207419156581163
1768416582295072500,1.756072509765625,-0.28989962253943086,0.13375965114831923,0.21695698979496955
1768416582305073000,1.766072998046875,-0.0879249516904354,-0.11762918508052825,0.21849515914767978
1768416582315074000,1.776073974609375,0.15015899728536605,-0.2679015796124935,0.22209157620444892
1768416582325076000,1.786075927734375,0.3156595022179186,-0.2907312510579824,0.09643661331757902
1768416582335076900,1.796076904296875,0.37909181768670674,-0.20008710353672504,0.0327398016937077
1768416582345078000,1.806078125,0.2925112663425505,-0.12430968575775622,0.13483780177384613
1768416582355080000,1.816079833984375,0.1663141594029963,-0.08418810324966906,0.20389453299567104
1768416582365080800,1.826080810546875,0.05065466696023941,-0.03960486515760422,0.26366847208738325
1768416582375082000,1.83608203125,0.021616788524389266,-0.048556817898154254,0.3124421476066112
1768416582385084000,1.846083984375,0.016809826634079216,-0.1222059914767742,0.42103637783825393
1768416582395084800,1.856084716796875,0.005714285993576049,-0.17705986369252205,0.49487479037865995
1768416582405085700,1.866085693359375,-0.0061820496357977385,-0.1956704561382532,0.4936060856170952
1768416582415087900,1.876087890625,-0.03805120597481727,-0.1815887392938137,0.46917219384536146
1768416582425088800,1.8860888671875,-0.03730418699979782,-0.14180617948174476,0.4551746481530368
1768416582435090000,1.89608984375,0.03636062253937125,-0.09912088396549225,0.4832708618246019
1768416582445091000,1.906091064453125,0.03696041506342589,-0.09277765241861342,0.5184570337571204
1768416582455093000,1.916093017578125,0.06545008503198624,-0.10053834954798221,0.4786382335878908
1768416582465094000,1.926093994140625,0.02039491857923567,-0.04641045351922512,0.40036446894854305
1768416582475094800,1.9360947265625,-0.007816080578416585,0.017210662519931794,0.2679670460641384
1768416582485097000,1.946096923828125,0.01971826142668724,0.08761164795756339,0.16772957915887235
1768416582495097900,1.956097900390625,0.06065927055887878,0.0883954918116331,0.1334745505966246
1768416582505098800,1.9660986328125,0.176223924325034,0.06975801135897636,0.0811572111211717
1768416582515101000,1.976100830078125,0.23611878638267517,0.09853694659769534,0.01524856866672635
1768416582525101800,1.986101806640625,0.19535401060022412,0.17358137392699718,-0.020406389821320772
1768416582535102700,1.996102783203125,0.11203764868378639,0.18508651828169823,0.017288842322677373
1768416582545105000,2.00610498046875,0.10166581920795142,0.1438829857558012,0.03377864322215318
1768416582555106000,2.01610595703125,0.13023381510972976,0.09562719663083553,0.06853402252197265
1768416582565107000,2.02610693359375,0.17147767964601515,0.030480478459596633,0.09795330149084329
1768416582575107800,2.03610791015625,0.1750457473911345,-0.0024000468790531158,0.09974895273596047
1768416582585110000,2.046110107421875,0.1852747343301773,-0.02281739648580551,0.07790843845829368
1768416582595111000,2.05611083984375,0.1485701206587255,-0.008660860839486122,0.07436974293813109
1768416582605111800,2.06611181640625,0.06429499671272933,0.014380992051959036,0.07290770756155251
1768416582615114000,2.076114013671875,0.030088994923979043,0.012044658058881759,0.0701497871555388
1768416582625115000,2.086114990234375,0.027700492352247235,0.005184709161520004,0.03200944159254432
1768416582635115800,2.09611572265625,0.04140884583964943,0.02344868012666702,0.034910423731058834
1768416582645118000,2.106117919921875,0.07560783336572349,0.011926000115275382,0.04489157338887453
1768416582655118800,2.116118896484375,0.10690079725198447,0.015172434690594672,0.04156491318419576
1768416582665120000,2.1261201171875,0.07225172787085175,-0.008417699733376503,0.04969181327745318
1768416582675121000,2.136120849609375,0.060181058587878936,-0.03515548453330993,0.06869564282447099
1768416582685123000,2.146123046875,0.022354455149173735,-0.036892099067568775,0.07166179915368556
1768416582695124000,2.1561240234375,-0.0003330313466489315,-0.040109892070293425,0.10152429184541105
1768416582705124900,2.166124755859375,0.0010439560949802398,-0.07511340091228484,0.13044643494710326
1768416582715127000,2.176126953125,0.05985504150390625,-0.06382686774432658,0.12230462954565882
1768416582725128000,2.1861279296875,0.09832344997748732,-0.07728256164491176,0.08448832830525935
1768416582735128800,2.19612890625,0.06351524451188743,-0.055339609906077385,0.03611241993196308
1768416582745131000,2.206131103515625,0.04411854318976402,-0.0434703084141016,0.010498086204007268
1768416582755132000,2.2161318359375,0.006820201408863067,-0.028768413844704625,0.018746566850319505
1768416582765132800,2.2261328125,-0.005342530071735381,-0.04149637799263,0.03687178693190217
1768416582775134700,2.236134765625,-0.017094927185773847,-0.009077624946832657,0.020905863776057958
1768416582785135900,2.246135986328125,0.014262480238825082,-0.006942366483807564,0.008303571834415198
1768416582795137000,2.256136962890625,0.04522095147371292,0.0062216509938240044,-0.03540836331583559
1768416582805138000,2.266137939453125,0.04204349048137664,0.005053191736340523,-0.09614362172037362
1768416582815140000,2.27614013671875,0.06508746226467192,0.0011018237620592116,-0.08270305232368409
1768416582825141000,2.28614111328125,0.017108809580653906,-0.026585224586725232,-0.06824073866382241
1768416582835142000,2.296141845703125,-0.016172405513375995,-0.027016017219424246,-0.03170169081762433
1768416582845143800,2.306143798828125,-0.025633476819843053,-0.0018622867405414581,-0.04767316693142056
1768416582855145000,2.31614501953125,-0.005753010568767786,0.018489596414566038,-0.044084494789689774
1768416582865145900,2.326145751953125,0.0046270752787590025,0.019672084197402,-0.03131839058846235
1768416582875147800,2.336147705078125,-0.007585778953880071,-0.0007505261063575744,-0.030340266271308064
1768416582885149000,2.34614892578125,0.006180734461545944,-0.020593875217437742,-0.01776164746619761
1768416582895149800,2.35614990234375,0.041748891448974604,-0.037435704424977304,-0.05611592804081738
1768416582905151000,2.36615087890625,0.030236294440180063,-0.06533084256649017,-0.07452829450070858
1768416582915153000,2.37615283203125,0.015573855098336933,-0.08051905934810638,-0.11242562508806586
1768416582925154000,2.386154052734375,0.07880049192719162,-0.09966039766967295,-0.1781770311541855
1768416582935155000,2.396155029296875,0.10879486737027763,-0.09695698392987251,-0.24614216774702072
1768416582945156900,2.406156982421875,0.12106376263909041,-0.05278758733570575,-0.32597119900435206
1768416582955158000,2.416157958984375,0.12733911658152938,-0.028386721050739288,-0.3592207768511027
1768416582965159000,2.426158935546875,0.15774842950105666,-0.011913140633702277,-0.35788733629025515
1768416582975160800,2.436160888671875,0.19596213256120681,-0.02557283267378807,-0.3373654303304851
1768416582985161700,2.44616162109375,0.2143359936416149,-0.04295709819495678,-0.29784276356361805
1768416582995163000,2.456162841796875,0.19700024343729017,-0.035191724890470504,-0.33281785002872344
1768416583005164000,2.4661640625,0.1342225194197148,-0.04433130915760994,-0.31561062157489356
1768416583015165700,2.476165771484375,0.10636778635382652,-0.07149228780567646,-0.2468631024327129
1768416583025167000,2.4861669921875,0.09916866862997412,-0.07358721425831317,-0.22249767278730867
1768416583035168000,2.49616796875,0.13700608572363854,-0.039521278527379036,-0.1691995055809617
1768416583045170000,2.506169921875,0.15739530521444975,0.031575287958979605,-0.17892543836869299
1768416583055171000,2.516171142578125,0.17441892072968185,0.11483984662294387,-0.18209478911980986
1768416583065172000,2.526171875,0.2122842487435788,0.18468319817781448,-0.17773622858412563
1768416583075174000,2.536173828125,0.18905301075987516,0.20932196487188337,-0.17425576605722307
1768416583085174800,2.5461748046875,0.19777634237632155,0.18389818527996538,-0.17388422933109104
1768416583095176000,2.556176025390625,0.25769575435332953,0.13743687835633753,-0.2222986430838704
1768416583105177900,2.566177734375,0.3068002692621201,0.09920213250815868,-0.2657491508189589
1768416583115178800,2.5761787109375,0.32688911756686867,0.07272095281779765,-0.23971534956991672
1768416583125180000,2.586179931640625,0.2827040119469166,0.09897299992740154,-0.20844262475408612
1768416583135181000,2.59618115234375,0.28139921295866366,0.0903565627515316,-0.18885968014486132
1768416583145182700,2.6061826171875,0.30595753482766447,0.09472118770182132,-0.1869159256659448
1768416583155183900,2.616183837890625,0.3793243112683296,0.12310323257744311,-0.21631913028284905
1768416583165185000,2.62618505859375,0.4217208529710769,0.14697919820547103,-0.22760164486281573
1768416583175187000,2.63618701171875,0.4146108017701655,0.20284370876848695,-0.2654541133951396
1768416583185187800,2.646187744140625,0.38126134374551474,0.23095219739973544,-0.2609859550051391
1768416583195189000,2.65618896484375,0.3501776386957615,0.2284317390114069,-0.22090514289885757
1768416583205191000,2.66619091796875,0.334070553503558,0.1958843911498785,-0.21162264302968978
1768416583215191800,2.67619189453125,0.32287235620617866,0.12180091780722141,-0.1963083887156099
1768416583225192700,2.686192626953125,0.336868075267598,0.0427162751764059,-0.20109270038269458
1768416583235193900,2.69619384765625,0.3895464300751686,0.00048281508088111874,-0.20355514497347174
1768416583245195800,2.70619580078125,0.40166583387069404,-0.03544365382492542,-0.1794311228685081
1768416583255197000,2.716197021484375,0.37121816170215605,-0.05045651403963566,-0.1562587754651904
1768416583265198000,2.726197998046875,0.33882395857572556,-0.028311902248859405,-0.0960914531417191
1768416583275200000,2.736199951171875,0.3674725454330444,-0.013453940334916113,-0.05112630305998027
1768416583285201000,2.746200927734375,0.4261726447481662,0.004632335975766182,-0.023072540290653705
1768416583295202000,2.7562021484375,0.4673849451024085,0.04180208294093608,-0.0032816520191729067
1768416583305204000,2.766203857421875,0.49436523342132566,0.0667412938863039,0.02114332579374313
1768416583315204900,2.776204833984375,0.538770192337036,0.1102642092704773,0.02665397897399962
1768416583325205800,2.786205810546875,0.5549964469294995,0.15444704986810684,0.020817893231660126
1768416583335207000,2.79620703125,0.5070796805005521,0.15108721804618835,0.050450084298849104
1768416583345208800,2.806208740234375,0.4689525597453117,0.1367898126244545,0.09184183287322521
1768416583355209700,2.816209716796875,0.5844307773370295,0.08821195193827151,0.14124043535776434
1768416583365211100,2.826211181640625,0.8352092265825718,0.011833645656704903,0.20216398287601767
1768416583375212800,2.836212890625,1.0056792635560035,-0.010039747977256774,0.22453020152822137
1768416583385214000,2.8462138671875,0.9440893610835075,0.03234334972202778,0.23561902016699313
1768416583395214800,2.85621484375,0.7417523597281426,0.12503507742285727,0.21969028721638023
1768416583405217000,2.866217041015625,0.5522645377475768,0.23066519715189931,0.18788089824058116
1768416583415218000,2.876218017578125,0.34898185303993523,0.29902561667263505,0.1045178476382047
1768416583425218800,2.88621875,0.16506072527579962,0.32887188888192176,0.017794892148673535
1768416583435221000,2.896220947265625,0.09283844269514083,0.34676702653467656,0.015053776746988295
1768416583445222000,2.906221923828125,0.10105440931133926,0.2880518027156591,0.055734089116379615
1768416583455222800,2.916222900390625,0.2043102741897106,0.1533756212443113,0.12642404756322503
1768416583465223700,2.9262236328125,0.2962345246493816,0.015128595548868178,0.18098361300751567
1768416583475225900,2.936225830078125,0.23867197799682616,-0.08724223012328147,0.1945180712327361
1768416583485226800,2.946226806640625,0.13815518269352614,-0.14416355626285074,0.20201587964221834
1768416583495228000,2.956227783203125,0.006302315014600753,-0.22526246132552621,0.19237506785467265
1768416583505229800,2.966229736328125,-0.06773907275199889,-0.2786123587191105,0.155332600530982
1768416583515231000,2.97623095703125,-0.08031900673136115,-0.32622692733108993,0.1350002257939428
1768416583525231900,2.98623193359375,-0.04080649603232741,-0.37273441148400305,0.0864552444640547
1768416583535234000,2.996234130859375,-0.012623334729671478,-0.3603103987187147,-0.0015825930163264274
1768416583545235000,3.00623486328125,0.019407222716137765,-0.3528822945445776,-0.03930763577669859
1768416583555235800,3.01623583984375,0.020525851482525465,-0.30089725576341153,-0.034332477712631225
1768416583565236700,3.02623681640625,0.014897271011024713,-0.2335463055461645,-0.010906155548244714
1768416583575239000,3.036239013671875,-0.017929697509482503,-0.12409633526802062,0.04231470863819122
1768416583585239800,3.04623974609375,-0.015617401979118584,-0.07411854465603827,0.0940614816840738
1768416583595240700,3.05624072265625,0.0015082126058638095,-0.062489481660723684,0.14879618449956178
1768416583605243000,3.066242919921875,-0.009633066872507333,-0.10723813944756984,0.18428002420440315
1768416583615244000,3.076244140625,-0.015547259352356195,-0.15564005904495715,0.2106168269880116
1768416583625245000,3.086244873046875,-0.025926906808465718,-0.16531798797249794,0.20424860713034867
1768416583635247000,3.0962470703125,-0.019664631543308494,-0.11914543486237525,0.1913856549585238
1768416583645248000,3.106248046875,-0.03236278507485985,-0.012139935126900672,0.250354159418866
1768416583655249000,3.116248779296875,-0.08049947786480188,0.09198562525808811,0.33758243408203126
1768416583665249800,3.126249755859375,-0.07675941455364227,0.17513737119734285,0.44721755166873334
1768416583675252000,3.136251953125,-0.05502352969422936,0.20778993299901485,0.5421937735775485
1768416583685252900,3.1462529296875,-0.02131415231600404,0.221381820499897,0.6132732062660158
1768416583695253800,3.156253662109375,0.00377820336446166,0.18361527668535707,0.661678559929505
1768416583705256000,3.166255859375,0.036989568092674015,0.11683598887622355,0.6859284003712236
1768416583715256800,3.1762568359375,0.03732186878696084,-0.007951835787296295,0.7185140344165265
1768416583725258000,3.186258056640625,0.020105068787187336,-0.11823767236769199,0.7188213468000292
1768416583735260000,3.196260009765625,0.013405425018072127,-0.18175708159804344,0.6781043556820601
1768416583745261000,3.206260986328125,0.052500879348814485,-0.20414660806059837,0.6746591105990112
1768416583755262000,3.216261962890625,0.07107786178588867,-0.19955752670466897,0.642066096964851
1768416583765262800,3.226262939453125,0.0423800289593637,-0.17411738049983977,0.6487605531021953
1768416583775265000,3.23626513671875,-0.006853226895630359,-0.1741390078097582,0.6367144337385893
1768416583785266000,3.246265869140625,-0.05242810637354851,-0.13350947577953337,0.6291686945341527
1768416583795266800,3.256266845703125,-0.14858897148966788,-0.09271686214208602,0.5939813170252367
1768416583805269000,3.26626904296875,-0.20156433648243546,-0.07468494636714458,0.60137478827741
1768416583815270000,3.276269775390625,-0.17938406885638833,-0.04130582385659218,0.5872815636582672
1768416583825270800,3.286270751953125,-0.11157105408534407,-0.07668518027365208,0.5563190738353878
1768416583835272700,3.296272705078125,-0.016571195572614668,-0.1091921961247921,0.5253785401159897
1768416583845273900,3.30627392578125,0.01970057963952422,-0.1394686764448881,0.509757959799096
1768416583855275000,3.31627490234375,0.07800079291686415,-0.1413596047580242,0.4919168538885191
1768416583865276000,3.32627587890625,0.1692765163399279,-0.09642097735702991,0.46669283465240147
1768416583875278000,3.336278076171875,0.2703961729072034,-0.0741477707505226,0.49079888270925726
1768416583885279000,3.346279052734375,0.3306559958197176,-0.1046077909439802,0.5268737836424261
1768416583895279900,3.35627978515625,0.34700828794464467,-0.08908055146634578,0.6356736925140023
1768416583905281800,3.36628173828125,0.4171300180494785,-0.08115326559841632,0.7225522038914263
1768416583915283000,3.376282958984375,0.437237571054697,-0.046328620454669,0.7617449811168014
1768416583925283800,3.386283935546875,0.4341209003388881,0.03747895904481411,0.7743361671425402
1768416583935285800,3.39628564453125,0.4271640669383108,0.12827742034494877,0.781855310600996
1768416583945287000,3.406286865234375,0.4708090012669563,0.18015782970786093,0.8043746739882975
1768416583955287800,3.416287841796875,0.5332101470571011,0.17707272317409514,0.7650896884348243
1768416583965289000,3.4262890625,0.5593221281088888,0.18872808965444562,0.7207435470342636
1768416583975291100,3.436291015625,0.5309798307217657,0.22124971855282782,0.7033532901637256
1768416583985292000,3.4462919921875,0.5044928058125079,0.1992728645443916,0.6545959081921726
1768416583995293000,3.45629296875,0.526581595762819,0.19860007984936237,0.5940622367743402
1768416584005294800,3.466294921875,0.5345078587174416,0.1731879906952381,0.5875960364349186
1768416584015296000,3.4762958984375,0.5001392137128859,0.14204174180328846,0.5896208933260292
1768416584025297000,3.486296875,0.5316506426554173,0.1081809732556343,0.595769698279351
1768416584035298800,3.496298828125,0.6492226176559924,0.10362520964741706,0.6226815975371748
1768416584045300000,3.506300048828125,0.7955951552052051,0.09581891981065273,0.7035612338259816
1768416584055300900,3.51630078125,0.9192413355529307,0.10662848311662673,0.7904075964994728
1768416584065302000,3.526302001953125,0.9773520906727761,0.1525882702589035,0.8426125616416335
1768416584075303700,3.5363037109375,1.07541374790892,0.16089607987701893,0.8568029264923185
1768416584085305000,3.54630517578125,1.257701575382799,0.1321796884804964,0.8819916552193462
1768416584095306000,3.556305908203125,1.4629787949085236,0.09028525108098984,0.9388516796257347
1768416584105308000,3.566307861328125,1.526094153382629,0.030098785665631293,0.9765350752014667
1768416584115309000,3.57630908203125,1.3919663995742797,-0.07389701085984707,0.872095918822661
1768416584125310000,3.58631005859375,1.2245021202880888,-0.1990606830984354,0.6873133519235998
1768416584135312000,3.596311767578125,1.1244411789935083,-0.20658172625303267,0.5136269832521677
1768416584145312800,3.606312744140625,1.0676257243812084,-0.13068097435533998,0.43968174933642146
1768416584155314000,3.61631396484375,0.9640974723022431,-0.03337795346677303,0.35848267183490096
1768416584165314800,3.626314697265625,0.7942810769319534,0.04743044421672821,0.18236871069036423
1768416584175316700,3.636316650390625,0.6264484757900237,0.08420446986258029,-0.07363083420433103
1768416584185318000,3.64631787109375,0.40076340513825415,0.14522212540507315,-0.4159519141808152
1768416584195319000,3.656319091796875,0.15178404120393096,0.2201478947907686,-0.707278354652971
1768416584205321000,3.666321044921875,-0.05499773766584694,0.3045505175739527,-0.9448161409880965
1768416584215322000,3.676322021484375,-0.21207265181951224,0.35953181556165215,-1.140113452965021
1768416584225323000,3.686322998046875,-0.2825064435482025,0.3132756758213043,-1.3276368430048227
1768416584235324000,3.696323974609375,-0.33567572367787357,0.20496260061860083,-1.4657901990674436
1768416584245325800,3.706325927734375,-0.36951018874049185,0.10383329944014548,-1.5697463942348957
1768416584255327000,3.716326904296875,-0.44633737130071965,-0.029975451546907422,-1.597050142354518
1768416584265327900,3.726327880859375,-0.6013409225404263,-0.19404782337248325,-1.5054308661907911
1768416584275329800,3.736329833984375,-0.78850600066185,-0.2685579976946115,-1.3256643738880753
1768416584285331000,3.7463310546875,-0.8151298036932945,-0.2983838116377592,-1.0002612570952623
1768416584295331800,3.756331787109375,-0.8159715882796794,-0.2971633299320936,-0.4649488039966672
1768416584305334000,3.766333984375,-0.8381436725992709,-0.33643560213446616,-0.08074578077606856
1768416584315335000,3.7763349609375,-0.8006932820618152,-0.3789829504847526,0.09411854563355446
1768416584325336300,3.78633642578125,-0.7878057434380054,-0.44233343288898463,0.0682785133909434
1768416584335337200,3.796337158203125,-0.7406500245094298,-0.5649485896885394,-0.30921098366566
1768416584345339100,3.806339111328125,-0.6837970874309539,-0.7156856791228056,-0.7972669608749449
1768416584355340300,3.81634033203125,-0.5370142885804176,-0.886038154131174,-1.243498424115777
1768416584365341200,3.826341064453125,-0.45130467485189435,-1.087237018302083,-1.4110700362339614
1768416584375343000,3.836343017578125,-0.5404314035475254,-1.2784399736374616,-1.5302908744201063
1768416584385344300,3.84634423828125,-0.8624269769191741,-1.3916197780936956,-1.4731579513564705
1768416584395345200,3.85634521484375,-1.118777819469571,-1.4008008634150027,-1.2290868907950818
1768416584405347000,3.86634716796875,-1.0437333921402692,-1.1517518683105707,-0.8459523735888301
1768416584415348000,3.876347900390625,-0.8689999255686998,-0.7538841846138239,-0.4212016514025628
1768416584425349000,3.88634912109375,-0.9079179775059223,-0.41957156598269935,-0.07286321083270013
1768416584435350300,3.896350341796875,-1.0065776737004517,-0.1606710389494896,0.06430179177969694
1768416584445352200,3.906352294921875,-0.8852455424487591,0.0190577516913414,-0.024131474759057164
1768416584455353300,3.916353271484375,-0.6168062026977539,0.17620120103657244,-0.22773535424508154
1768416584465354200,3.926354248046875,-0.39474107610881326,0.3351654360681772,-0.33332813763841984
1768416584475356200,3.936356201171875,-0.3404091819405555,0.41279695728123184,-0.49009047871157524
1768416584485357000,3.946357177734375,-0.382535090008378,0.49048342355191704,-0.657501347310096
1768416584495358200,3.956358154296875,-0.3850303774228319,0.5789467199027538,-0.7805841216214001
1768416584505359000,3.966359130859375,-0.3570657177090645,0.6484907962501049,-0.8517438164718448
1768416584515361000,3.976361083984375,-0.360815462164022,0.6624848348110914,-0.8671106046907603
1768416584525362200,3.986362060546875,-0.2818038482367992,0.6602887860715388,-0.8269947212710976
1768416584535363000,3.996363037109375,-0.22838618283662943,0.6552239038974046,-0.8297146477542817
1768416584545365000,4.006364990234375,-0.15601999827325344,0.6062129124909639,-0.8204277639709413
1768416584555366100,4.0163662109375,-0.12867672186084092,0.5547931063771248,-0.8356139349259436
1768416584565367300,4.0263671875,-0.09717800626941024,0.5469160893917083,-0.8554442784249782
1768416584575369200,4.036369140625,0.02845748473200947,0.5433540129959583,-0.7793724077440798
1768416584585370000,4.0463701171875,0.19447503580860792,0.5554390030652284,-0.7039379581838846
1768416584595371300,4.056371337890625,0.24833288272432982,0.5314437949717045,-0.6462411176271736
1768416584605372200,4.0663720703125,0.21461130345165727,0.46103404170572754,-0.6557638559930026
1768416584615374000,4.0763740234375,0.1974427265077829,0.4033879084229469,-0.6814027396403253
1768416584625375000,4.086375,0.30533377690613267,0.38034605553150175,-0.6124541449680924
1768416584635376000,4.096376220703125,0.4093839339673519,0.38628421340882774,-0.5170912983618676
1768416584645378000,4.1063779296875,0.4216057386914268,0.4005424558639526,-0.4612842170745134
1768416584655379000,4.11637890625,0.30801965498924255,0.43064299509525295,-0.4629280387587845
1768416584665380400,4.12638037109375,0.20806867687515912,0.43244799869060513,-0.4803390461564064
1768416584675382000,4.136382080078125,0.22855518272798506,0.3835252700895071,-0.5617895411357283
1768416584685383200,4.146383056640625,0.26358780806660653,0.22958909235298633,-0.6705243488818406
1768416584695384300,4.15638427734375,0.24853454277627168,0.09609481414258479,-0.692774320743233
1768416584705385200,4.16638525390625,0.3147270802060142,0.07382920632064342,-0.5856028167910874
1768416584715387100,4.17638720703125,0.45202780149467287,0.10444003316164016,-0.4713808098055422
1768416584725388000,4.186387939453125,0.5161223437318578,0.18938859938979147,-0.4527496129631996
1768416584735389200,4.19638916015625,0.5237702646691352,0.33060967245996,-0.4118988393977284
1768416584745391000,4.20639111328125,0.4953443441191688,0.42481063567996025,-0.3841714590385556
1768416584755392000,4.21639208984375,0.39340778167843815,0.48900107603967186,-0.4081831798754632
1768416584765393200,4.22639306640625,0.3971013389667496,0.5073322670221329,-0.392283453823626
1768416584775394300,4.236394287109375,0.44900048956274985,0.4747638763725757,-0.3728456167735159
1768416584785396200,4.246396240234375,0.49543198587000364,0.3792839792579412,-0.34474341175258155
1768416584795397000,4.256397216796875,0.5753396718541159,0.233550981721282,-0.3173506701752543
1768416584805398300,4.266398193359375,0.5935849015861749,0.09146598529815674,-0.3029435207687318
1768416584815400200,4.276400146484375,0.6028618119647726,-0.0059475102275609966,-0.23635361805185673
1768416584825401000,4.286401123046875,0.6945265712380408,-0.01806289543509483,-0.20748364352881907
1768416584835402200,4.29640234375,0.8030775468498468,0.08557634273767471,-0.22445465207397935
1768416584845404200,4.306404052734375,0.8238304120212793,0.1874269439280033,-0.2486157182537019
1768416584855405000,4.316405029296875,0.7328618548512459,0.2916512885123491,-0.31789369101077314
1768416584865406000,4.326406005859375,0.6182090552330016,0.37837621676325794,-0.3515354099802673
1768416584875407000,4.336406982421875,0.5112497327268123,0.42176819924414155,-0.3803850723676383
1768416584885409000,4.346408935546875,0.4846317749142646,0.4429425046980381,-0.3866314194113016
1768416584895410200,4.35641015625,0.45883916200995445,0.366951151907444,-0.40663609656393523
1768416584905411300,4.366411376953125,0.3291501213014126,0.2859393406063318,-0.40506928563863037
1768416584915413200,4.376413330078125,0.14965103863007387,0.18235972366631029,-0.3960075889132917
1768416584925414100,4.3864140625,-0.01210953998863697,0.11040800165534019,-0.3737361358724534
1768416584935415300,4.396415283203125,-0.050731248460942874,0.08331307398080826,-0.4269524700142443
1768416584945416200,4.406416259765625,0.06977612697097937,0.1391810916751623,-0.5228356872327625
1768416584955418000,4.416418212890625,0.23885902500152587,0.2966752541542053,-0.5798588663116098
1768416584965419000,4.4264189453125,0.3658832304149866,0.47804772034883497,-0.6158423261016607
1768416584975420200,4.436420166015625,0.33683541510701176,0.7219558454334736,-0.6304514278210699
1768416584985422000,4.446422119140625,0.20374328795671462,0.9289923297166823,-0.5874116197787225
1768416584995423000,4.456423095703125,0.09166939891576767,0.9922194780021906,-0.504276240452379
1768416585005424400,4.46642431640625,0.05228549216561951,0.9044412413060665,-0.44508784616366026
1768416585015426000,4.476426025390625,0.13222820379734038,0.6786942113339901,-0.45584947867467995
1768416585025427200,4.48642724609375,0.3500502859890461,0.3758522512435913,-0.41873365385383365
1768416585035428000,4.496427978515625,0.5259995580911636,0.06258417420685292,-0.3034380262874067
1768416585045429200,4.50642919921875,0.7423276023328303,-0.06956102748215198,-0.16760273790881036
1768416585055431200,4.51643115234375,0.8848200105130672,-0.05973638356029987,-0.06241714707687497
1768416585065432000,4.52643212890625,0.8111223216176032,0.12898878348469733,0.15406082702949642
1768416585075433200,4.53643310546875,0.5351601851463318,0.4139490499258041,0.4778055821560323
1768416585085435100,4.54643505859375,0.1878886796882376,0.7053437333285808,0.8005916483182459
1768416585095436000,4.55643603515625,0.054659810948371884,0.7779109568893909,1.0916238550841808
1768416585105437000,4.56643701171875,-0.12210311562418937,0.5643921248495578,1.5122833624340593
1768416585115438300,4.576438232421875,-0.12346037545204162,-0.008739186772704124,1.8003437868475913
1768416585125440000,4.58643994140625,0.09796466313507407,-0.9926081850588321,1.6503405646458267
1768416585135441200,4.596441162109375,0.7366635852217673,-2.184855145365,0.55752033938393
1768416585145442300,4.6064423828125,1.596307068902254,-2.6113784301817415,-0.39792613588571546
1768416585155444200,4.6164443359375,2.80901580247879,-2.2374334738641974,-0.49956623613052065
1768416585165445000,4.626445068359375,2.8155180239796636,-1.6513362976849078,-1.0663538778144865
1768416585175446000,4.636446044921875,2.194414416348934,-0.3202250565677881,-1.2833812294319271
1768416585185448200,4.6464482421875,1.5919944664001464,1.070453641283512,-0.3353883581038564
1768416585195449000,4.656448974609375,0.8242015834212303,1.9876959119737148,0.9057521777741611
1768416585205450000,4.666449951171875,0.6169301213383674,2.5957874778181314,1.356900054629147
1768416585215451100,4.676451171875,0.9383142848134041,2.69019653083086,1.4703035848386585
1768416585225453000,4.686453125,1.2067068628132342,2.533970780852437,1.5254866890087724
1768416585235454200,4.6964541015625,1.1809265248686074,2.081239872589707,1.4879586301252246
1768416585245455400,4.706455322265625,1.1839835743516682,1.4618635271430014,1.2702955378875136
1768416585255457300,4.716457275390625,1.3936200120002031,0.748175159317255,0.9079973263524472
1768416585265458200,4.726458251953125,1.3928092801392078,0.023622867649793624,0.4846382046550512
1768416585275459000,4.736458984375,1.2427303623527288,-0.5615712222099304,0.08482442839182913
1768416585285460200,4.746460205078125,1.134033840790391,-0.16283318541944025,-0.676391925740987
1768416585295462100,4.756462158203125,0.8220587992388755,0.522882302853465,-1.4972969518348573
1768416585305463000,4.766463134765625,0.5605423906188458,0.9711287591785192,-1.8795374428108333
1768416585315464000,4.7764638671875,0.7873428021013736,1.2651496994316578,-2.539267718216777
1768416585325466000,4.786466064453125,1.3058546347856521,1.2938462170839309,-2.8611422955572605
1768416585335467000,4.796467041015625,1.7346511252313852,0.9004699995875358,-2.57163795594573
1768416585345468200,4.80646826171875,2.0742864001899957,0.5010901577621698,-1.769559795396775
1768416585355469000,4.816468994140625,2.4715198776364327,0.403781291654706,-0.8606336637616157
1768416585365471200,4.82647119140625,2.690787482461333,0.7221709494888782,0.09372209366187453
1768416585375472000,4.83647216796875,2.628267021140456,1.5737492001354694,1.0040516623541713
1768416585385473000,4.84647314453125,1.9983271961033342,2.5354227332264183,1.5902220499001443
1768416585395475200,4.85647509765625,1.1728205214329064,3.599519698959589,1.9696872309438882
1768416585405476000,4.86647607421875,0.7305838269166648,4.581825101190805,2.0199960070759055
1768416585415477000,4.87647705078125,0.34612624441310763,5.112271117296815,1.6227034929186104
1768416585425479200,4.886479248046875,0.3970177888691425,4.9162867729038,0.7104439790770412
1768416585435480000,4.89647998046875,0.48062312379479405,4.196798778888583,-0.24364757445231078
1768416585445481000,4.90648095703125,0.26920798603594304,3.4975831730514764,-1.2641484134346246
1768416585455482000,4.916482177734375,0.08412088323235511,2.5746903292536736,-0.897752265061438
1768416585465484000,4.926484130859375,0.00911079656407237,1.4933336011618374,-0.9293798677295446
1768416585475485200,4.936485107421875,-0.008432312780618668,1.3491560163736342,-0.4452741625159979
1768416585485486000,4.946486083984375,0.542591796451807,1.1793892322987318,0.614435381913185
1768416585495488300,4.95648828125,0.5498075730495154,1.2099515438228845,2.2668509992673993
1768416585505489200,4.9664892578125,1.7778642440140247,1.936506407484412,4.147783695828914
1768416585515490000,4.976489990234375,2.399944149331003,2.5668852084606884,3.9980537376105785
1768416585525491000,4.986490966796875,3.1107839958578345,3.3705928699076173,3.913018662142753
1768416585535493000,4.9964931640625,3.912693667972088,4.60492423722744,4.601564697666466
1768416585545494000,5.006493896484375,3.8874697948664423,5.679871098276973,5.06244647141993
1768416585555495000,5.016494873046875,3.597686053791642,6.282768602609634,4.669251455709338
1768416585565497000,5.0264970703125,3.5759880167245863,6.753822518548369,4.0394814342811705
1768416585575498000,5.036498046875,3.7757577248752114,6.872713686388731,3.5442338650673624
1768416585585499100,5.0464990234375,3.5915959202229977,6.343972720634937,2.6787892938926814
1768416585595501300,5.056501220703125,3.1999457958668467,5.170026556172966,1.1144243004351855
1768416585605502200,5.066502197265625,3.571387537191808,3.7344215058803556,-0.6302239026755094
1768416585615503000,5.076503173828125,3.2677807302087545,2.6351573651760813,-1.8191516554310916
1768416585625504000,5.08650390625,1.9149151917926965,1.729548833656311,-2.168407576172054
1768416585635506200,5.096506103515625,0.41840661385655403,1.25518652382195,-1.3814111032903194
1768416585645507000,5.106507080078125,-1.2586999387703834,1.6434212867766618,-0.03525806812494993
1768416585655508000,5.116508056640625,-1.2550886164054273,2.4540000030368567,1.1449088705480097
1768416585665510100,5.12651025390625,0.5957476325780153,2.8684271918684243,1.799127981317043
1768416585675511000,5.136510986328125,1.666166494809091,2.869320925837755,1.730294683587551
1768416585685512200,5.14651220703125,0.8391460545748471,2.437557402279973,1.247076867124438
1768416585695513900,5.156513916015625,0.9345119699209928,1.0108850155055522,0.7206912323251367
1768416585705515300,5.166515380859375,2.6862767270386216,-0.8152607365965843,1.1068220087379217
1768416585715516200,5.17651611328125,4.193704904526472,-2.709572262430191,2.888778782762587
1768416585725517000,5.18651708984375,4.289733667695522,-2.4985733042567966,6.0677808670610185
1768416585735519200,5.196519287109375,3.6373610615760086,-1.0802052199691534,7.925116707196831
1768416585745520000,5.20652001953125,2.1879086877167224,-0.4493780907034874,6.87717183484137
1768416585755521000,5.21652099609375,1.5224197026535868,-0.6922656405687332,5.25485938706696
1768416585765523000,5.22652294921875,1.8199901520818471,-1.0166033931523561,5.227203902900219
1768416585775524000,5.236524169921875,0.46725569269955153,-0.8029343389868736,5.210644397765398
1768416585785525000,5.24652490234375,-1.866570701470971,0.001985036337375641,4.120426902347803
1768416585795526100,5.256526123046875,-3.351160439684987,0.511132828348875,2.0170888874575494
1768416585805528000,5.266528076171875,-4.860417586165666,-0.17081190921366213,1.3577607631117106
1768416585815529200,5.276529296875,-12.730861038410662,-1.3589806602954864,2.525325117582083
1768416585825530000,5.286530029296875,-10.066907202339172,-4.692309090691805,-1.9071043719112872
1768416585835532000,5.296531982421875,4.880224110397696,-7.761099280428886,-6.013046821832656
1768416585845533200,5.306533203125,8.3579861461699,-10.376577547144889,-6.01843143748045
1768416585855534000,5.3165341796875,8.013367237579821,-10.927045191538333,-8.692522052162886
1768416585865536000,5.326535888671875,8.811921754047274,-9.086071872660517,-9.693539169126748
1768416585875537200,5.336537109375,10.231596244758366,-6.389033513110876,-7.396801857900619
1768416585885538000,5.3465380859375,11.560731217366456,-4.280856533756852,-5.460927903100848
1768416585895539000,5.3565390625,12.81003452836871,-2.3760209835603834,-5.954145720052718
1768416585905541000,5.366541015625,10.991854640579223,0.05505260965824127,-9.028815615478157
1768416585915542000,5.3765419921875,0.7541834598213434,3.5322236937999723,-14.107487245512008
1768416585925543200,5.386543212890625,-12.703196786415576,7.082334926468134,-16.210821461009978
1768416585935545000,5.396545166015625,-24.10186697177887,7.242418520918488,-15.9716877107203
1768416585945546200,5.406546142578125,-46.445590299057955,4.507150676217675,-23.527132316613194
1768416585955547100,5.416547119140625,-44.01929137289524,-1.419118318133056,-28.89518962831497
1768416585965548000,5.426548095703125,-17.068782690691947,-5.1025703920155765,-20.521661045098302
1768416585975550200,5.43655029296875,3.14509017008543,-2.0819972668282687,-7.0684905255109065
1768416585985551000,5.446551025390625,13.971663063049316,3.7038632860094305,4.424446966306865
1768416585995552000,5.456552001953125,14.262462703168392,9.124480221509932,8.709744405120611
1768416586005554000,5.466553955078125,-0.09617372459769248,13.542597108012437,6.419675904133915
1768416586015555000,5.47655517578125,-11.82387712688446,17.83464314430356,1.708499469756335
1768416586025556000,5.486555908203125,-7.451243642184138,21.77214041414261,-1.5495118538491428
1768416586035558000,5.496557861328125,-5.047480372956395,22.557424530148506,2.398630436383933
1768416586045559000,5.50655908203125,-7.420297884300351,20.152311015355586,10.1848707339406
1768416586055560200,5.516560302734375,-4.911360422417522,15.079769266378879,16.187903526759147
1768416586065561000,5.52656103515625,0.4706652088820934,8.928425149968266,16.691815171682833
1768416586075563000,5.53656298828125,2.9125580100178716,3.0083976803556083,12.86107848690748
1768416586085564200,5.546564208984375,3.799405142444372,-1.8059917296066879,7.848478288674354
1768416586095565000,5.55656494140625,4.416941412982345,-4.269442574816942,4.438813345311582
1768416586105567000,5.56656689453125,3.4705554653942583,-3.992608331686258,1.8005621057733892
1768416586115568000,5.576568115234375,2.2477865255743263,-1.2183867061477154,-0.48214419588223095
1768416586125569000,5.586569091796875,0.7797633067578077,1.0182392507258802,-1.1448400430954992
1768416586135571000,5.596571044921875,0.2933165913760662,2.711084712819755,0.044019758990406985
1768416586145571800,5.60657177734375,1.1383090338915587,3.915913799062371,2.270470066547394
1768416586155573200,5.6165732421875,1.2954782021999358,4.575268226893246,3.8525098329052327
1768416586165574100,5.62657421875,1.4549240832686423,4.637336852793395,4.267871964499354
1768416586175576000,5.636576171875,2.1637655955851076,3.9309082468375562,3.6964445341855283
1768416586185577200,5.6465771484375,2.3842875843852758,2.7156884072229266,2.6938921704784033
1768416586195578000,5.656578125,1.8730694158405063,1.5487486143916844,1.8495923864021897
1768416586205580000,5.666580078125,1.0715700780928135,0.7038416582025587,1.1711726080954075
1768416586215581200,5.676581298828125,-0.1273959613353014,0.08959949730653315,0.49333092193752526
1768416586225582000,5.68658203125,-0.9646680387318134,-0.5271668848374859,0.25305589265823364
1768416586235584000,5.696583984375,-0.33439620526134967,-0.9773659000024199,0.8060515942245722
1768416586245585000,5.7065849609375,0.08404547990858555,-1.1139214654795824,1.4864683915674686
1768416586255586000,5.7165859375,0.10123509964048862,-0.8557740218359976,1.6250313513442873
1768416586265587200,5.726587158203125,-0.005099953487515449,0.10960717013385146,1.153082824653387
1768416586275588900,5.7365888671875,-0.17923779225349426,1.4543990364812314,0.4479404591158032
1768416586285590300,5.74659033203125,-0.8952151477992534,2.3977155134961006,-0.5389096008077263
1768416586295591200,5.756591064453125,-1.3343851482212543,2.5283245916590094,-1.4555445532545446
1768416586305593000,5.766593017578125,-0.9127104724794626,2.0428810619704425,-1.6246689477726817
1768416586315593700,5.77659375,-0.2321311780512333,1.3371040517911315,-0.6359902111172676
1768416586325594600,5.7865947265625,0.0021060323685407637,0.7367728908151387,0.9320183995395899
1768416586335596500,5.796596435546875,-0.18305355114936828,0.6408879200309514,2.0727058530002833
1768416586345597700,5.80659765625,-0.30293022289574145,0.7410051215574145,2.6682573784843084
1768416586355598600,5.8165986328125,-0.41218028668761253,0.5694066285433247,2.910114416258037
1768416586365599700,5.826599853515625,-0.25761340983211994,0.30136569525906814,2.826129434365034
1768416586375601700,5.8366015625,0.4994102418512106,0.06654619143931195,2.26279295604825
1768416586385602800,5.846602783203125,1.1201251424252987,0.02401250628819689,1.3253788349449633
1768416586395603700,5.856603759765625,0.8621148422300815,0.19999586332300676,0.5133223012171685
1768416586405605600,5.866605712890625,0.3605769407004118,0.404814068768546,0.5588973268255591
1768416586415606800,5.876606689453125,0.03156359752118587,0.6108942752402275,1.3133376840174198
1768416586425607700,5.886607666015625,0.037846038791537286,0.6956580594860017,2.053599293731153
1768416586435609600,5.896609619140625,0.4030605761647224,0.682175477578491,2.1694180683888495
1768416586445610800,5.90661083984375,0.7082984914809465,0.6543567656740545,1.651270831233263
1768416586455611600,5.916611572265625,0.7279524554997682,0.6336502238623798,0.7145946690157056
1768416586465613600,5.926613525390625,0.5558937610954046,0.6414583403300493,-0.2555123458996415
1768416586475614500,5.936614501953125,0.14783727633953095,0.8036056623771787,-0.9095179600484669
1768416586485615600,5.94661572265625,-0.05731354032754898,1.0696930321745575,-1.0785944237716496
1768416586495616800,5.95661669921875,-0.02218377475738525,1.2314958516329526,-0.8437335284955799
1768416586505618700,5.96661865234375,0.03302607128918171,1.253079760801047,-0.6375169822931289
1768416586515619800,5.976619873046875,0.028785364979505536,1.176951191496849,-0.5706428558073937
1768416586525620700,5.986620849609375,-0.16124211683571338,1.0303430916260927,-0.45640682029649615
1768416586535622700,5.99662255859375,-0.2232201418429613,0.9138778357584029,-0.42650779498666525
1768416586545623600,6.00662353515625,-0.15304653542041777,0.7879889179851859,-0.4980529820233583
1768416586555624700,6.016624755859375,-0.014741057536005972,0.7183397738281637,-0.6194140471085906
1768416586565626600,6.026626708984375,-0.11667056918144225,0.8508249480612575,-0.8247565869554877
1768416586575627500,6.03662744140625,-0.2890262007057667,1.0701830807138233,-0.9646142627179622
1768416586585628700,6.046628662109375,-0.3409147933751345,1.148299462834373,-1.0569437329776585
1768416586595629600,6.056629638671875,-0.30792788505256175,1.0482610986977814,-0.9828474001534283
1768416586605631500,6.066631591796875,-0.2369932311296463,0.8637479233246296,-0.8963258855201304
1768416586615632600,6.076632568359375,-0.1689051988095045,0.6810811064705252,-0.9552788636177778
1768416586625633800,6.0866337890625,-0.07680033108592033,0.5004172269366681,-0.943131621967256
1768416586635635700,6.0966357421875,0.04246434624195099,0.3980701839989051,-0.8551065709032117
1768416586645636600,6.10663671875,0.13256547292768955,0.4244670829392969,-0.798639418271929
1768416586655637800,6.1166376953125,0.00779693748652935,0.4581928999956697,-0.7409057528361678
1768416586665639700,6.1266396484375,-0.17438450700342653,0.45707785142585633,-0.6517413224786519
1768416586675640600,6.136640625,-0.2316723283678293,0.5187915994737297,-0.5264075543701648
1768416586685641700,6.146641845703125,-0.17667524828910827,0.5232231887130067,-0.48679085264429445
1768416586695642600,6.156642578125,-0.13789923517107963,0.43698202539104963,-0.5983271276772022
1768416586705644500,6.16664453125,-0.10773498305380344,0.3071202219314873,-0.7189898352347314
1768416586715645400,6.1766455078125,-0.04376607649028301,0.17950667232275008,-0.7345122524067759
1768416586725646800,6.186646728515625,-0.06758534349501133,0.05501414081137627,-0.5916581713072955
1768416586735648500,6.1966484375,-0.10185936901867389,-0.087996555621922,-0.3451512619011104
1768416586745649700,6.206649658203125,-0.11231237397193908,-0.19652590392380953,-0.022594693645834923
1768416586755650800,6.21665087890625,-0.058089200875163075,-0.2559167619820684,0.23949688451364634
1768416586765652700,6.22665283203125,-0.04531505949795246,-0.27881467635817825,0.2496735567435622
1768416586775653600,6.236653564453125,0.0028267478585243225,-0.3244666396602988,0.09381444812044501
1768416586785654500,6.246654541015625,-0.05481295568346977,-0.37191885731741786,-0.09310586145967245
1768416586795655700,6.25665576171875,-0.15503975506424902,-0.40024749150536953,-0.14500819039344787
1768416586805657600,6.26665771484375,-0.12481062101721763,-0.37694976415671405,0.027801906900107858
1768416586815658500,6.276658447265625,0.017500585377216337,-0.4589276440110057,0.3225292418569326
1768416586825659600,6.28665966796875,0.16312018566727637,-0.5720129751168191,0.45556876203715796
1768416586835661600,6.29666162109375,0.10750526595115661,-0.7683800352171063,0.22195129095092414
1768416586845662700,6.306662841796875,-0.07513502822220325,-0.9474410095989704,-0.349994464148581
1768416586855663600,6.31666357421875,-0.2580371882021427,-1.0449264013171196,-0.9729192958571016
1768416586865665800,6.326665771484375,-0.32060207318663597,-0.9859273921206593,-1.3689337529025971
1768416586875666700,6.336666748046875,-0.14147066391706467,-0.7324585347473621,-1.2859855667114257
1768416586885667600,6.34666748046875,0.11965630699396133,-0.3381989585451782,-0.5268091209083795
1768416586895669800,6.356669677734375,0.6034037002891302,0.22135127923116085,0.6197858030304312
1768416586905670700,6.366670654296875,1.0252303517222403,0.599967369164899,1.5390267001919447
1768416586915671600,6.376671630859375,0.8623767080366611,0.5464825933452695,1.5680733464561403
1768416586925672400,6.38667236328125,0.3104407446563244,0.11395824148282407,0.7519356808945536
1768416586935674600,6.396674560546875,-0.2435714404761791,-0.36870069898851215,-0.10938391930460929
1768416586945675500,6.406675537109375,-0.5036363351136446,-0.7172232639536261,-0.724608990290761
1768416586955676700,6.4166767578125,-0.6745394297420978,-0.8929930147703736,-1.1229381540194152
1768416586965678600,6.4266787109375,-0.73518532936275,-0.7246638622831553,-0.9122652129299939
1768416586975679700,6.4366796875,-0.2740449046730995,-0.18060681558437644,0.08159341058135032
1768416586985680600,6.4466806640625,0.5162479794055224,0.5308412259686738,1.3244184654802083
1768416586995682800,6.456682861328125,0.9640770871013402,0.9832291660126298,2.0779604125276205
1768416587005683700,6.46668359375,0.5967401507467031,1.0721188710819929,1.9177106677301228
1768416587015684600,6.4766845703125,-0.11374328355789184,1.0359345549575985,1.1724850058682261
1768416587025685500,6.486685546875,-0.7736515458792448,0.9977239206373691,0.31602512065991756
1768416587035687700,6.496687744140625,-1.0075333669900894,0.9801503430891781,-0.5139404331155121
1768416587045688600,6.5066884765625,-0.9610884266793728,0.9789954009003937,-1.2566992664724588
1768416587055689500,6.516689453125,-0.7253741294443606,0.9573585925012826,-1.410822345083207
1768416587065691600,6.526691650390625,-0.13218611822128296,0.9497117310099303,-0.7438483821593225
1768416587075692500,6.536692626953125,0.48392625699341296,0.6725257518321275,0.11204641651213168
1768416587085693700,6.546693603515625,0.6726169372469186,0.14238938619717956,0.7313504273749888
1768416587095695600,6.556695556640625,0.3828612532228231,-0.2667013369772583,1.0974855867244302
1768416587105696800,6.56669677734375,0.28145547319054603,-0.377413801471889,1.1952435117736457
1768416587115697700,6.57669775390625,0.6569120031148195,-0.3153991707812995,1.1610898977592587
1768416587125698600,6.586698486328125,0.8605430628687143,-0.16188187604397533,1.0372928376987576
1768416587135700700,6.59670068359375,0.5128367096573114,0.06891885712109505,0.8375750058658421
1768416587145701600,6.60670166015625,-0.12631693392693996,0.36111199742518363,0.6412238739870488
1768416587155702500,6.61670263671875,-0.5955301904350518,0.6254109494358301,0.5799297395907342
1768416587165704700,6.62670458984375,-0.6330027197390794,0.8737765653859824,0.6558962502010166
1768416587175705600,6.63670556640625,-0.06661620620191097,1.1361666150353849,0.5301175148040056
1768416587185706500,6.64670654296875,0.134153618901968,0.9554764320164918,-0.6263768718585372
1768416587195708700,6.656708740234375,0.4199491671234369,0.2352670649241656,-0.6115967974863946
1768416587205709600,6.66670947265625,-0.2884673977792263,0.6315380540139973,-0.766232940185815
1768416587215710700,6.676710693359375,-0.8516711896270514,0.4905667179211974,-0.603267798949778
1768416587225711600,6.686711669921875,-1.1511702690303325,-0.4032833520699292,-0.49612435204833744
1768416587235713800,6.6967138671875,-1.7992916474461556,-0.6601105799604207,-0.566665330478549
1768416587245714700,6.706714599609375,-1.2149585583299398,-0.9965165906742215,-0.5264300584629178
1768416587255715600,6.716715576171875,0.11367430997490882,-1.5103645232006906,-0.992510423772782
1768416587265717800,6.7267177734375,1.3916180245280265,-1.8623375939458608,-1.2414420761078595
1768416587275718700,6.73671875,1.8057763332903385,-1.879726243381202,-0.9088279319576918
1768416587285719600,6.746719482421875,1.4485305828392505,-1.62493315166682,-0.4895287531755864
1768416587295720700,6.756720703125,1.431595230129361,-1.3559537136897444,-0.11222703377604484
1768416587305722600,6.76672265625,0.47122050467729565,-1.495192088510096,-0.04790069207698106
1768416587315724000,6.77672412109375,1.1947627425193785,-1.079394488108158,-0.5582840172328054
1768416587325725200,6.78672509765625,1.558557476222515,-0.7877133889794349,-1.8442263293243943
1768416587335727000,6.79672705078125,-0.13803484424948692,-0.6393162868000567,-2.37627846545279
1768416587345728000,6.80672802734375,-0.6066735157400369,-0.7446424551464617,-1.624976114025712
1768416587355729200,6.816729248046875,0.2903694320082664,-1.0943846250344067,-0.7023636946044862
1768416587365731000,6.82673095703125,0.3184557088077068,-1.5073159492850303,-0.22711232697591185
1768416587375732000,6.83673193359375,-0.00020166005194187164,-1.8059768242985008,0.026974370034784076
1768416587385733000,6.846733154296875,-0.031493454894423484,-1.7859306460916995,0.14089490985572337
1768416587395735000,6.856735107421875,0.20153613330125808,-1.4292933829277752,0.19300693601742386
1768416587405736000,6.86673583984375,0.5141162280738354,-0.8944030276987701,0.111268125616014
1768416587415736800,6.87673681640625,0.6115706401318312,-0.41157654864080245,-0.024212211845070122
1768416587425738000,6.886738037109375,0.4227922815948725,0.0167428988777101,-0.03683525431379676
1768416587435740000,6.896739990234375,0.1649573379665613,0.35575134717486795,-0.03448869118764996
1768416587445741000,6.906740966796875,-0.16259937666356564,0.5519064815575256,-0.1506353826254606
1768416587455742200,6.9167421875,-0.4764110590577125,0.6343992886640131,-0.2587194713778794
1768416587465744100,6.926744140625,-0.6908703868180514,0.6058535045940429,-0.22646906063631175
1768416587475745000,6.9367451171875,-0.7333861709862947,0.4569394293358549,-0.0709929599814117
1768416587485746000,6.946745849609375,-0.5108756387174129,0.2008518042989075,0.11851005956828593
1768416587495748000,6.956748046875,-0.26897008562684055,-0.012309483007527888,0.26880393527969715
1768416587505749000,6.9667490234375,-0.22004618798196315,-0.09173039012169465,0.39229996656700966
1768416587515750000,6.97675,-0.3012064678430557,-0.00636237463876605,0.47512978707551956
1768416587525751000,6.9867509765625,-0.3084218060493469,0.21583430590797215,0.44262686287760733
1768416587535753000,6.9967529296875,-0.13433248260021208,0.49444871045369654,0.24731223443970082
1768416587545753900,7.00675390625,0.0701835432946682,0.7489793153069912,0.03898307999745011
1768416587555755300,7.01675537109375,0.13455810804963111,0.7911620681285858,0.009888649068772792
1768416587565757000,7.0267568359375,-0.14217851992547512,0.6948031962223351,0.23849223751574752
1768416587575758000,7.036758056640625,0.14238544067442416,0.8435678165398538,0.3992942093685269
1768416587585759000,7.046759033203125,0.05578033941090107,0.8588168235979974,0.24666648388206958
1768416587595760000,7.056760009765625,-0.25727730974555013,0.8273055407859384,0.10604337670505046
1768416587605762000,7.066761962890625,-0.2801829690366983,0.8199085624024272,0.056344841425865884
1768416587615763000,7.076762939453125,-0.05248246690928936,0.6723574095278978,0.0591316956654191
1768416587625764000,7.08676416015625,-0.2358078207373619,0.46942390358410774,0.012820903128385543
1768416587635766000,7.09676611328125,-0.8144353916883468,0.2725887145154178,-0.029966099196672438
1768416587645767000,7.106766845703125,-1.0874334176570177,0.04652428915724158,-0.1022597665131092
1768416587655767800,7.116767822265625,-0.8330915768414735,-0.11358184591848403,-0.23437924923896788
1768416587665770000,7.12677001953125,-0.3759767544060945,-0.12216715730372815,-0.34305735836178064
1768416587675771000,7.13677099609375,0.07369768889546394,-0.016560564580745993,-0.4356456256881356
1768416587685772000,7.14677197265625,0.4657406119614839,0.09574527005255222,-0.5553197605997323
1768416587695773200,7.156773193359375,0.7721884875893592,0.197717232600227,-0.6584275222443043
1768416587705775000,7.166775146484375,0.9880372238814831,0.23560944862104952,-0.6649088470876217
1768416587715776000,7.17677587890625,0.9167974495321511,0.22291458302512765,-0.5685043824739754
1768416587725777000,7.18677685546875,0.5814893901228905,0.13353742323238402,-0.36103052968680854
1768416587735779000,7.196779052734375,0.18039222298562527,-0.012635682754591107,-0.12871566563174128
1768416587745780000,7.206780029296875,-0.1489239025324583,-0.14456439214870334,0.16556801721081138
1768416587755780900,7.21678076171875,-0.3759580497056246,-0.23630236278865485,0.42130861890837545
1768416587765782000,7.226781982421875,-0.41669279567599293,-0.34709187457486984,0.6120578391268849
1768416587775784000,7.236783935546875,-0.14319500349164008,-0.4405289042176678,0.8317560904540121
1768416587785784800,7.246784912109375,0.08436930503547191,-0.46875974058695136,0.9312491687327623
1768416587795786200,7.2567861328125,0.08946282878220081,-0.47755756221171464,0.7713464838072657
1768416587805788200,7.2667880859375,0.17669395298957824,-0.47173093841746444,0.47717415238469835
1768416587815789000,7.2767890625,0.1560650064587593,-0.3256831027779728,0.323768720524013
1768416587825790000,7.2867900390625,-0.17916005084216594,-0.1250567047327757,0.15317191536575556
1768416587835792100,7.296792236328125,-0.39442484976649284,0.034789920890238135,-0.05442351797446608
1768416587845793000,7.30679296875,-0.42435704669356344,0.0901992532979697,-0.1725938241943717
1768416587855794000,7.3167939453125,-0.2191507004469633,0.061747869513183826,-0.18412132651135324
1768416587865795000,7.326795166015625,0.07929331694543361,-0.04216128077530302,-0.11739771441221236
1768416587875797000,7.336796875,0.15567571488022802,-0.1695489218068309,0.10213730917721986
1768416587885798000,7.3467978515625,0.21139584853649138,-0.3319756635835394,0.26052330592945216
1768416587895799000,7.356799072265625,0.15829846459925173,-0.3705366457113996,0.24150077168196438
1768416587905801000,7.366801025390625,-0.08683423384428024,-0.31807175099141893,0.10085793689116836
1768416587915802000,7.376802001953125,-0.13043956681489943,-0.3086168171647936,-0.12978490229845047
1768416587925803000,7.386802978515625,-0.04357786044180393,-0.27373441395182163,-0.35596667042598124
1768416587935805200,7.39680517578125,-0.09459902262687682,-0.1902197895169258,-0.33822073198556896
1768416587945806000,7.40680615234375,-0.15274316855967043,-0.07114267978356219,-0.17439532065838576
1768416587955807000,7.416806884765625,-0.11448036566078662,0.015350631668558344,-0.11280658722966909
1768416587965807900,7.426807861328125,-0.11424071168601513,0.020748782651359213,-0.10522168505862355
1768416587975810000,7.43681005859375,0.11372048720419406,-0.029636931174388155,-0.018148235630989072
1768416587985811000,7.44681103515625,0.25119419043958185,-0.08055080619323998,0.08218319316804408
1768416587995811800,7.456811767578125,0.08440086921751498,-0.17812016813410445,0.14587693605199456
1768416588005814000,7.46681396484375,-0.1115010575890541,-0.18722563093593342,0.13969912419989705
1768416588015815000,7.47681494140625,-0.21190379805862902,-0.06925661944178864,0.07857040949836373
1768416588025816000,7.486816162109375,-0.31906361157298085,0.06613110783239826,0.029323271248489616
1768416588035817000,7.49681689453125,-0.3271650849640369,0.21504277193779125,0.0044768531531095505
1768416588045819100,7.506819091796875,-0.23662848947048185,0.31512696624379605,-0.0032579788826406
1768416588055820000,7.516820068359375,-0.015154314512014388,0.3684042733252048,-0.05047390356585383
1768416588065821000,7.526821044921875,0.15742752698361873,0.3769371969360858,-0.15583850422650575
1768416588075823000,7.536822998046875,0.26907179243564605,0.3296709303051233,-0.26599545373022554
1768416588085824000,7.546823974609375,0.18949615141749382,0.31441089039631187,-0.2772518840208649
1768416588095825000,7.556824951171875,-0.06670096187591552,0.33906909244321287,-0.2777810224615037
1768416588105827000,7.5668271484375,-0.23695173007547854,0.30879758055917916,-0.20922566489055752
1768416588115828000,7.576827880859375,-0.2902835072904825,0.2565003340236843,-0.09565013911500572
1768416588125828900,7.586828857421875,-0.24099486798644065,0.2016305153201334,0.09406856901198625
1768416588135830000,7.596830078125,-0.11767419326603412,0.1291103457714431,0.18673340870589017
1768416588145832000,7.60683203125,0.07752864536046981,0.0717872704305686,0.12628259326592087
1768416588155833000,7.6168330078125,0.2561836692899465,0.06206586768748238,0.019807839406281707
1768416588165834000,7.626833984375,0.2460503978103399,0.06400255310479551,-0.16484642493799329
1768416588175836200,7.636836181640625,0.13923954386413095,0.08629205325897782,-0.25310017019137737
1768416588185837000,7.646837158203125,-0.13210896133184433,0.14227819917397572,-0.20394246379062533
1768416588195838000,7.656837890625,-0.36231706236600875,0.1640780161150731,-0.12933116718158125
1768416588205840100,7.666840087890625,-0.2893400889605284,0.10119423790713772,-0.04256123074516654
1768416588215841000,7.676841064453125,-0.09081482791304588,0.010462813961226492,0.04194017623737454
1768416588225842000,7.686842041015625,0.026879239097237585,-0.0662585884032771,0.03455941833630204
1768416588235842800,7.6968427734375,0.13639058417379854,-0.1437294574282132,0.03628697278127074
1768416588245845000,7.706844970703125,0.19020576099157332,-0.14135185984298587,0.003046235828101635
1768416588255846100,7.71684619140625,0.10943185009956359,-0.1572804283968173,-0.06277034442871808
1768416588265847000,7.726846923828125,-0.026734277668595312,-0.17457228466048835,-0.052445349769294256
1768416588275849200,7.73684912109375,-0.09998714540600775,-0.15424712511552496,-0.05740735609084367
1768416588285850000,7.74685009765625,-0.0625105244487524,-0.21436350270304827,-0.0772733554251492
1768416588295851000,7.75685107421875,0.030585107877850532,-0.2591666123571805,-0.06425342259332538
1768416588305852000,7.766851806640625,0.0321855288118124,-0.23620774330776184,0.03254237942546606
1768416588315854000,7.77685400390625,-0.0666974547445774,-0.18391975779095662,0.09950696067363023
1768416588325855200,7.786855224609375,0.02163315513730049,-0.18141131863398477,0.08832213431447744
1768416588335856000,7.796856201171875,0.25385376503765583,-0.1588160587325692,0.009861030409485102
1768416588345858000,7.806858154296875,0.2695376563817263,-0.13697576365061104,-0.11945844633430241
1768416588355859000,7.81685888671875,0.05770984616875648,-0.10358617454497143,-0.1489233180105686
1768416588365860000,7.826860107421875,-0.17467209177315235,-0.08696087416494265,-0.05156710563004017
1768416588375861200,7.836861328125,-0.2508580903530121,-0.13672882141852752,0.0736690473228693
1768416588385863200,7.84686328125,-0.18505436957776544,-0.19050965757528318,0.15133110980466008
1768416588395864300,7.8568642578125,-0.05146422977745533,-0.18824598695961758,0.1536683205805719
1768416588405865200,7.866865234375,0.08362403962612151,-0.11754837492927908,0.0794080293662846
1768416588415867100,7.8768671875,0.11774608945846557,-0.03165511172953993,-0.04747822888121009
1768416588425868000,7.886867919921875,0.03533668631911278,0.0779460853212513,-0.13577303679734468
1768416588435869200,7.896869140625,-0.05376666150093078,0.16129640430621803,-0.13238456340283156
1768416588445871000,7.90687109375,-0.09512100067436695,0.18006695482032373,-0.045553398298472166
1768416588455872000,7.9168720703125,-0.03342588426172733,0.14803608684726058,0.08597206405699252
1768416588465873200,7.926873046875,0.02610533211529255,0.08580041555082425,0.15268544702306389
1768416588475874300,7.936874267578125,-0.03987900592386722,-0.001267809712421149,0.08690043094828724
1768416588485876000,7.9468759765625,-0.13999942232072352,-0.007429547212552279,-0.032673458459228276
1768416588495877400,7.95687744140625,-0.1577601199388504,0.020343005728907883,-0.09526260110214352
1768416588505878300,7.966878173828125,-0.15034545976817607,0.025662501984927803,-0.06646043111830949
1768416588515880200,7.976880126953125,-0.10459668502807616,0.033677977592963725,0.09011310938447713
1768416588525881000,7.986881103515625,-0.038711715710163117,0.05972942409655079,0.23339067659303545
1768416588535882200,7.99688232421875,0.1269996554940939,0.07006431909548118,0.24007351535782218
1768416588545883100,8.006883056640625,0.21606559391319752,0.037130675330106166,0.13251885730698704
1768416588555885000,8.016885009765625,0.1841296559482813,0.04001832306301221,0.024690058489888905
1768416588565886200,8.02688623046875,0.01906067430078983,0.0764373247261159,-0.0900588949792087
1768416588575887000,8.03688720703125,-0.16391338187158105,0.12539015620453284,-0.18946078784316778
1768416588585889000,8.046888916015625,-0.2056096663504839,0.16210021323608234,-0.24534517215043306
1768416588595890000,8.056889892578125,-0.14502455700635908,0.13372573061240836,-0.24884528922587631
1768416588605891300,8.066891357421875,-0.14170096554160116,0.07019413775391876,-0.22187179597392678
1768416588615892200,8.076892333984375,-0.05750175637602806,-0.030212347309011966,-0.18381269895359872
1768416588625894100,8.08689404296875,0.12434183446168899,-0.06888537497660145,-0.1310631055407226
1768416588635895300,8.096895263671875,0.13484803090691566,-0.05995841054683551,-0.12159253575354814
1768416588645896200,8.106896240234375,0.05575052879452705,-0.017470847826078533,-0.0781914931833744
1768416588655898000,8.116898193359376,0.017329904985427854,0.07225465048030018,-0.06952391034215688
1768416588665899000,8.12689892578125,-0.00433656789958477,0.12156703598611056,-0.04134089516997337
1768416588675900200,8.136900146484376,-0.03216507054567337,0.15117442140560597,0.0042304771766066545
1768416588685902000,8.146902099609376,-0.07665361609160899,0.1108374425811693,-0.03038987756669521
1768416588695903000,8.156903076171876,-0.06812427267730235,0.0656682760936208,-0.05924480065107345
1768416588705904000,8.166904052734376,-0.004130231672525406,-0.010615118446107952,-0.1257332888200879
1768416588715905300,8.1769052734375,0.026745968106389045,-0.06975855934824794,-0.1722293747961521
1768416588725907200,8.1869072265625,-0.005535422295331955,-0.10852240710444748,-0.14713453489765524
1768416588735908000,8.196908203125,0.047071547776460644,-0.1599054979370907,-0.09760784905403852
1768416588745909200,8.2069091796875,-0.006958148574829101,-0.18851441037114708,-0.043734658438712354
1768416588755911200,8.2169111328125,-0.02038695446848869,-0.15907613444086163,0.012400485759228468
1768416588765912000,8.226912109375,0.008990531185269355,-0.16975966021437197,0.011732961761206388
1768416588775913200,8.236913330078124,0.015040332743525503,-0.17469708008393645,0.003794423846900463
1768416588785914000,8.2469140625,-0.02902618799805641,-0.14965320318769662,0.012088789461553097
1768416588795916000,8.256916015625,-0.0042740240573883054,-0.10661076479684561,0.04328048493042588
1768416588805917200,8.266917236328124,0.16206220104694366,-0.08655134351598098,0.1145855796009302
1768416588815918000,8.27691796875,0.17674246830642223,-0.0559425807679072,0.1922334674268961
1768416588825920000,8.286919921875,0.16690847203433512,-0.021437796961981802,0.21342910792976616
1768416588835921200,8.296921142578125,0.1794318535208702,-0.03262874253466725,0.13709201044142244
1768416588845922300,8.30692236328125,0.1363064130216837,-0.017736038100905717,0.07724924389719963
1768416588855923200,8.316923095703125,0.07807049715220928,0.021610395316220818,0.028772943889349697
1768416588865925000,8.326925048828125,0.11004910521507262,-0.01940247347578406,-0.0021855273455381394
1768416588875926300,8.33692626953125,0.24143793557882307,-0.07664970710147172,-0.05665259220078587
1768416588885927200,8.34692724609375,0.16699848840534687,-0.028057215101737528,-0.10051540706381201
1768416588895929000,8.35692919921875,-0.07873451401889324,0.07615753053720109,-0.0899158332467079
1768416588905930000,8.366929931640625,-0.19708909076452255,0.10098808434316887,-0.1031258818231523
1768416588915931100,8.37693115234375,-0.1288596041470766,0.07696059968154877,-0.19186390346214174
1768416588925932300,8.386932373046875,0.025609657552838325,0.07373122583888471,-0.330461350030452
1768416588935934000,8.396933837890625,0.08254384317398071,0.04927862023352645,-0.4532221989110112
1768416588945935400,8.406935302734375,0.02396715104281902,0.03834280933253467,-0.42929523374810813
1768416588955936300,8.416936279296875,-0.04563245488405227,0.053884753188956525,-0.3354103507399559
1768416588965938200,8.426938232421875,-0.04314882137477398,0.010686631046049297,-0.20086027986630797
1768416588975939000,8.43693896484375,-0.0035632454395294185,-0.05448848210261203,-0.08322992574200033
1768416588985940200,8.446940185546875,-0.01774316196143627,-0.0368187187375268,-0.060226797425746915
1768416588995942100,8.456942138671875,-0.0727367349088192,-0.01249153417670168,-0.05576850284263491
1768416589005943000,8.466943115234375,-0.00542494765818119,-0.030267826656182294,-0.05482961455732584
1768416589015944200,8.476944091796875,0.04873509707450866,-0.005943729101587087,-0.0022803660221397876
1768416589025945000,8.486945068359375,-0.013160510346293449,0.009983643009001389,0.029421909317374227
1768416589035947000,8.496947021484376,-0.11712532721161842,0.013823801127192564,-0.007507453020662069
1768416589045948200,8.5069482421875,-0.15763737034201622,0.03184917756349314,-0.050502983529865736
1768416589055949300,8.51694921875,-0.12183423555493354,0.04110462959553115,-0.1169658988662064
1768416589065951200,8.526951171875,-0.07234101358950137,0.058169307773513715,-0.14257014959156514
1768416589075952000,8.5369521484375,-0.037652562046051025,0.07608202674873173,-0.14744666958674787
1768416589085953300,8.546953369140626,0.011610942816734313,0.0472037136556115,-0.1266561027534306
1768416589095954200,8.5569541015625,0.019446458747982977,0.02690421827486716,-0.08327420327514409
1768416589105956000,8.5669560546875,0.0013584288716316222,0.008944807188777486,-0.026938860329985617
1768416589115957200,8.576957275390624,-0.022307108876109122,-0.014131083827943074,-0.0006137479841709137
1768416589125958100,8.586958251953124,-0.036082536250352855,-0.014418716546730137,-0.0012815642431378365
1768416589135960000,8.5969599609375,-0.1013274540990591,-0.003374745407026785,-0.014023995307832956
1768416589145961000,8.6069609375,-0.04609247361123561,0.017693130540940908,-0.023633096782863138
1768416589155962000,8.616962158203124,0.012660744130611419,0.014223634649335872,-0.016608312712609766
1768416589165963300,8.62696337890625,0.08318740177452563,-0.01192984403168666,-0.031709143471717834
1768416589175965200,8.636965087890625,0.0728892951220274,-0.02838653610436013,-0.07729425208270549
1768416589185966300,8.64696630859375,0.03537701832950115,-0.0166292915685568,-0.09969970676675438
1768416589195967200,8.65696728515625,-0.05262509025037288,-0.0004069608076068107,-0.024314795436710116
1768416589205969200,8.66696923828125,-0.09826280583143233,0.014987277107237604,0.03950827291533351
1768416589215970000,8.676969970703125,-0.09759586635529995,-0.005120524776441743,0.04268324968963861
1768416589225971200,8.68697119140625,-0.0309872589379549,-0.011521038326865527,0.03329436683654785
1768416589235972000,8.69697216796875,0.003942015624046325,-0.01575931521743769,0.10527283072397112
1768416589245974000,8.70697412109375,-0.017069208222627637,-0.024342498577677178,0.05261661468297243
1768416589255975200,8.71697509765625,0.0078080434024333945,-0.021148607040347996,0.02735182504504919
1768416589265976000,8.72697607421875,-0.0076888009369373315,-0.015257512308296282,-0.0070125091105699535
1768416589275978000,8.73697802734375,0.008910451686382293,-0.02257338142974768,-0.013700024050474166
1768416589285979100,8.746979248046875,0.02448620648086071,-0.03025746509237215,0.04723448325321078
1768416589295980300,8.756980224609375,0.006329787543416023,-0.06094353086035698,0.06363046838939189
1768416589305981200,8.766981201171875,0.004849778118729591,-0.052389929787628346,0.03002484364658594
1768416589315983000,8.776983154296875,0.03873451206386089,0.0000175813224632293,-0.025562019018828867
1768416589325984000,8.78698388671875,0.045131519624590874,0.02624346194434911,-0.08923004293963313
1768416589335985000,8.79698486328125,-0.009119126001000405,0.0542695421223063,-0.1142263908997178
1768416589345987000,8.806987060546875,0.00917816271185875,0.04535505814820062,-0.09953209511488675
1768416589355988000,8.816988037109375,0.09385258817374706,0.008689876871416344,-0.025925153242796657
1768416589365988900,8.82698876953125,0.06332125630974769,0.01487571676634252,0.03342529973983764
1768416589375991000,8.836990966796876,-0.037785248515009875,0.047960240244492885,0.04387245947420597
1768416589385992000,8.846991943359376,-0.104102764031291,0.07127616083696484,0.03751037709638476
1768416589395993000,8.8569931640625,-0.13857669604122638,0.10994061247245408,0.017288842322677373
1768416589405994000,8.866993896484376,-0.09437690430879592,0.1279949501417577,-0.023417992727458474
1768416589415996200,8.87699609375,-0.013666706302762031,0.10897203230177983,-0.0476855880215764
1768416589425997000,8.8869970703125,-0.03356909212470054,0.041269318637950345,-0.11175576300248503
1768416589435998000,8.896998046875,-0.19309154556095598,0.012432515732152387,-0.1948826667614281
1768416589446000000,8.907000244140624,-0.1922667851746082,-0.00021858378727920353,-0.2046471049286425
1768416589456001000,8.9170009765625,-0.05413491029143333,-0.0057917716765776275,-0.18549129969030617
1768416589466002000,8.927001953125,0.12459142530858516,-0.019690441837999968,-0.18519962326735256
1768416589476002800,8.9370029296875,0.08728139308989047,0.017308926129480824,-0.10741349601447582
1768416589486005000,8.9470048828125,-0.014040215790271758,0.07613461545249446,-0.059522740809619425
1768416589496006000,8.957005859375,0.12127075645327567,0.056905489249620585,-0.038954000033438206
1768416589506007000,8.967007080078124,0.20745792456567286,-0.032183683914598075,-0.04228811289221048
1768416589516009200,8.97700927734375,0.03782441148161888,0.002985235489020124,-0.02591828511059284
1768416589526010000,8.987010009765624,-0.13397709329128266,0.06425590681135654,0.03166355076432228
1768416589536011000,8.997010986328124,-0.26173370463252066,0.07104947594162077,0.04380626237019896
1768416589546012000,9.007011962890624,-0.26354396892488,-0.020686430605407802,0.06553995527252554
1768416589556014000,9.01701416015625,-0.06228314543366432,-0.1753262630992569,0.07400207866951823
1768416589566015000,9.027014892578125,0.19730185673236847,-0.2740232773631811,0.049224488026648756
1768416589576016000,9.037015869140625,0.2677957811504602,-0.28264395232275125,0.045329818675667044
1768416589586018000,9.04701806640625,0.16678747600317,-0.1515270707681775,-0.04299012368172407
1768416589596019000,9.05701904296875,-0.012021277183294295,0.034990101371146734,-0.09606061961203813
1768416589606020000,9.06702001953125,-0.15399872157871722,0.1331187228962779,-0.06704261492043734
1768416589616021000,9.07702099609375,-0.20955811171531677,0.08806075256508775,-0.031764673051238056
1768416589626023200,9.087023193359375,-0.1975572927981615,0.003569465117761865,-0.041269291238486765
1768416589636024000,9.097024169921875,-0.08185819899737834,-0.04723557009859942,-0.06321209684684873
1768416589646025000,9.10702490234375,0.018238836523890495,-0.08511576688806526,-0.10290332511365413
1768416589656027100,9.117027099609375,0.0269178175419569,-0.09565254113464616,-0.1202305997505784
1768416589666028000,9.127028076171875,0.003219546568393707,-0.057213970676902676,-0.132938544023782
1768416589676029000,9.13702880859375,-0.07741700167953967,-0.0034166035104542967,-0.13535451912432908
1768416589686029800,9.14702978515625,-0.04698679210245609,0.0036270679233595727,-0.10090323733761906
1768416589696032000,9.157031982421875,-0.004340659552812576,-0.0010216346653178334,-0.08259878823161125
1768416589706033000,9.167032958984375,0.02006371386349201,-0.007713588318321854,-0.07152619007527827
1768416589716034000,9.177033935546875,0.05446107350587844,-0.017094918052619323,-0.045999242369830606
1768416589726036000,9.187035888671875,0.03901975874602794,-0.031876051870686935,-0.057318947155028575
1768416589736037000,9.197037109375,-0.026859365352988242,-0.024506874809553846,-0.09514759642034769
1768416589746038000,9.2070380859375,-0.12182254511713982,-0.030919956722250206,-0.12449892471954226
1768416589756039200,9.2170390625,-0.12056056235730647,-0.01817378106419928,-0.08905103311091661
1768416589766041000,9.227041015625,-0.13921967011988162,0.011121497065667063,-0.05133943435400724
1768416589776042000,9.2370419921875,-0.0793722274005413,0.007365487266704439,-0.03192614722326398
1768416589786043000,9.24704296875,-0.0359410819530487,-0.018594435895374045,0.0025499767437577245
1768416589796045000,9.257045166015626,-0.02922960161566734,-0.021410845022974533,0.037556262064725156
1768416589806046000,9.2670458984375,-0.07162906592786311,0.0016083941778633742,0.07818082565888762
1768416589816046800,9.277046875,-0.12362754871249199,0.018765591211197898,0.04972483876422047
1768416589826048300,9.28704833984375,-0.10235796619057655,0.012882159195793792,0.01168430031388998
1768416589836050000,9.2970498046875,-0.04072831622958183,-0.0172019312242046,-0.010630115085840225
1768416589846051000,9.307051025390624,-0.002405307576060295,-0.029852537553291765,-0.018187690858542917
1768416589856052000,9.317052001953124,0.06744330467581748,-0.047707461926667014,0.014010551304370164
1768416589866054100,9.32705419921875,0.08945932165086269,-0.05380672864983789,0.0036484395049512382
1768416589876055000,9.337054931640624,0.05280512299239635,0.0010831555942073464,-0.027559330315887927
1768416589886056000,9.347055908203124,0.06031155309975147,0.0007913513070903718,-0.03004530191272497
1768416589896057000,9.35705712890625,0.042455578413605685,-0.027310159594099968,-0.044890988866984845
1768416589906059000,9.36705908203125,0.012922609937191009,-0.043971800795989106,-0.07855681936442852
1768416589916060000,9.377059814453125,0.016356091517210007,-0.06720095642046071,-0.11339213203266263
1768416589926060800,9.387060791015625,0.005374678775668144,-0.04149448742964305,-0.14121113619804382
1768416589936063000,9.39706298828125,-0.07163023497164249,0.03266272700265981,-0.14372881810739635
1768416589946064000,9.40706396484375,-0.0520493361890316,0.06595239939778111,-0.10179887100309133
1768416589956065000,9.41706494140625,0.01088905828297138,0.04463610079046339,-0.05131736865267157
1768416589966066200,9.427066162109375,-0.028116671937704084,0.021831371989985925,-0.06044818509146571
1768416589976068000,9.437068115234375,-0.07718553101122379,0.035661032035807144,-0.028013942215591666
1768416589986069000,9.447069091796875,-0.10469722279310226,0.032899896759400145,0.033621699094772334
1768416589996070000,9.45706982421875,-0.0656084904640913,0.0004570413188077509,0.1304305067256093
1768416590006072000,9.467072021484375,0.015313888987898826,-0.03916838713621255,0.16474354908540845
1768416590016073000,9.477072998046875,-0.019547581034898755,-0.014718850270775146,0.11755641210526227
1768416590026073900,9.487073974609375,-0.09960486809015273,0.04319864273271523,0.06388195893242955
1768416590036075000,9.497074951171875,-0.051012978878617284,0.017684129817155187,0.030030688865482807
1768416590046077000,9.507076904296875,0.10461772781610489,-0.04558116308823228,-0.008436404433846472
1768416590056078000,9.517078125,0.14603461083173752,-0.03955794814280234,-0.014806816248595714
1768416590066079200,9.527079345703125,-0.004044306954741478,0.04596234442554414,-0.014508856215327976
1768416590076081200,9.5370810546875,-0.056688101905584334,0.05074916314354632,-0.018713029906898736
1768416590086082000,9.54708203125,0.027182605957984923,0.001647986402735114,0.0055136488549411295
1768416590096083000,9.5570830078125,0.07461772634983062,-0.0456637405048823,0.009138415223360062
1768416590106084000,9.567083984375,-0.005868599772453307,-0.056348855447280216,-0.009572276595979928
1768416590116086000,9.5770859375,-0.10530746364593505,-0.07172051620413548,-0.011854396183788776
1768416590126087000,9.5870869140625,-0.12980302247703074,-0.06656574095657561,0.009942425082623958
1768416590136088000,9.597088134765626,-0.03114157271683216,-0.10968858307329937,0.01754880843311548
1768416590146090000,9.607090087890626,0.06417641183435917,-0.13614778839386998,-0.011510843443125486
1768416590156091000,9.6170908203125,-0.0022907412856817246,-0.05341147312140092,-0.04731032496839761
1768416590166092000,9.627092041015626,0.0032253917872905728,-0.019250347087415864,-0.1184855096489191
1768416590176093200,9.63709326171875,0.0004857376903295517,-0.0032988269162597134,-0.14861410593092442
1768416590186095000,9.64709521484375,0.016211130088567734,0.02486331671454245,-0.1279299220815301
1768416590196096000,9.657095947265624,0.012801029384136199,0.034680119823233685,-0.11519479754045606
1768416590206097200,9.66709716796875,-0.02579670455753803,0.033756767033773935,-0.11590981394201516
1768416590216099000,9.67709912109375,-0.1196013619363308,0.03836789810801856,-0.12151567112505435
1768416590226100000,9.687099853515624,-0.047296004182100296,0.023015211479691787,-0.12451865233331919
1768416590236100900,9.697100830078124,0.03450082001686096,-0.02010720137876924,-0.13580986167639494
1768416590246102000,9.70710205078125,-0.008781272348761558,0.06857747807120904,-0.14384820670336484
1768416590256104000,9.71710400390625,-0.040216275054216384,0.07189299582736566,-0.13438260535225272
1768416590266104800,9.727104736328124,-0.004625321713089943,0.039907017308799544,-0.12557415273562073
1768416590276106200,9.737106201171875,-0.02764846990406513,0.0007266634568688459,-0.07923661832213401
1768416590286108000,9.74710791015625,-0.14008067086338996,-0.06647598488046787,-0.05818418568223715
1768416590296109000,9.757109130859375,-0.16645079139471053,-0.0931107659636531,-0.05795198436155915
1768416590306110000,9.76710986328125,-0.14433014500141142,-0.04691798291625455,-0.06125073364600539
1768416590316111000,9.777111083984375,-0.09484276825487613,-0.012770506381709127,-0.099659374756366
1768416590326113000,9.787113037109375,0.0005009352594614029,0.03457108594120946,-0.11731120517253875
1768416590336114000,9.797114013671875,0.1094184060961008,0.0745037126153009,-0.12399608976393937
1768416590346115000,9.807114990234375,0.2508838093161583,0.07490618790239095,-0.11956424479633569
1768416590356117000,9.817116943359375,0.2327706449985504,-0.009844937791209667,-0.05472688483521342
1768416590366118000,9.827117919921875,0.09032967474460601,-0.05258552085838746,0.08374357435256242
1768416590376119000,9.837119140625,-0.08194178562760353,-0.11074485979373566,0.2669188521854579
1768416590386120200,9.8471201171875,-0.19892332045435904,-0.13810076735885812,0.44566301570311184
1768416590396121900,9.857121826171875,-0.21533260346353053,-0.16219899743543936,0.5027389478825033
1768416590406123000,9.867123046875,-0.17543021666407585,-0.09693616033755242,0.3803602301873266
1768416590416124200,9.877124267578125,-0.09761866270899772,-0.06499809434763155,0.2056321704432368
1768416590426126000,9.8871259765625,-0.0015367080479860304,0.030503169782017357,-0.0024957623384892938
1768416590436127000,9.897126953125,0.23934651625752448,0.13815923781413583,-0.20490677877813576
1768416590446128000,9.907128173828125,0.39847207933068274,0.18248652838375418,-0.3162013540096581
1768416590456129000,9.91712890625,0.40120296559929847,0.19754715499663725,-0.32078298271149397
1768416590466131000,9.927130859375,0.31510464481413364,0.139062451997865,-0.2600790692932904
1768416590476131800,9.9371318359375,0.15162848531603812,0.03505297400690615,-0.1521744287610054
1768416590486133000,9.947133056640626,-0.00047872342765331263,-0.01744521334461169,-0.09262173120453954
1768416590496135000,9.957135009765626,-0.08024141145050526,-0.04381489776780363,-0.07320289111584424
1768416590506136000,9.967135986328126,-0.10767360825538634,-0.010620437366975238,-0.057779550404101605
1768416590516137200,9.97713720703125,-0.1152829142153263,0.04580749635712709,-0.016347177558392285
1768416590526138000,9.98713818359375,-0.10499532895684241,0.07855330309993587,-0.004451280320435762
1768416590536140000,9.99714013671875,-0.0760737703770399,0.10092783292275853,0.009564531680941582
1768416590546141000,10.007140869140626,-0.03621697628498077,0.11059554185038432,-0.0011946166120469569
1768416590556142000,10.01714208984375,0.007658405798673629,0.08778386271931231,-0.00863411896303296
1768416590566143000,10.02714306640625,0.028215456137061116,0.06453493838186841,-0.0409137557990849
1768416590576145000,10.037144775390624,0.012919687327742575,0.030584235661593264,-0.038566169759631154
1768416590586146000,10.04714599609375,-0.012963526469469069,0.019325382801715748,0.0035001170754432676
1768416590596147000,10.05714697265625,-0.030150808113813397,-0.032783172761264724,0.012152356217056513
1768416590606148900,10.06714892578125,-0.12239011587202549,-0.051367285908735356,0.008631634745001792
1768416590616150000,10.07714990234375,-0.18843992036283014,-0.03558492545913905,0.03221270907968282
1768416590626151200,10.087151123046874,-0.1098322475939989,-0.09536782417544164,0.057186552947014566
1768416590636152000,10.097152099609374,0.11360884352326392,-0.16820207377513868,0.052884325708448886
1768416590646154000,10.107154052734375,0.17992226738631725,-0.13587447874466888,-0.005026888251304626
1768416590656155100,10.117155029296875,0.023940263035893437,-0.012070834821398603,-0.036947920908033845
1768416590666156000,10.127156005859375,-0.011849427747726439,0.024191874593228566,-0.03604205810949206
1768416590676158000,10.137157958984375,0.12087445061206817,-0.021112793658161533,-0.048176878669857974
1768416590686159000,10.1471591796875,0.1606663627743721,-0.017014470944262575,-0.036708266933262346
1768416590696160000,10.157159912109375,0.03579670504629612,-0.0253602219695691,-0.05417217356190085
1768416590706161000,10.167160888671875,-0.16182196255028247,-0.02960359972694423,-0.06040931438580155
1768416590716162800,10.177162841796875,-0.26048224326670166,-0.0420850280681625,-0.012795914817601442
1768416590726164200,10.187164306640625,-0.16681027235686777,-0.06702338963015936,0.005323533110320568
1768416590736165000,10.1971650390625,0.005746434697508812,-0.11949253126699477,-0.0792027160525322
1768416590746167000,10.2071669921875,0.11749942122101784,-0.09003429939406923,-0.15445011860802768
1768416590756168200,10.217168212890625,0.15289572877287863,-0.057455168154789134,-0.2417668752722442
1768416590766169000,10.227169189453125,0.08805997624695301,0.008384612597816157,-0.31276363464593887
1768416590776170000,10.237169921875,0.023952537995576857,0.0399958281034138,-0.30500775982216
1768416590786172000,10.247171875,-0.03999181864857673,0.05262550124232657,-0.26604338452517984
1768416590796173000,10.257173095703125,-0.11809680259227752,0.06584441354523878,-0.2507030459217727
1768416590806174000,10.267174072265625,-0.11882862399816513,0.049294027865212406,-0.27707638132348655
1768416590816175900,10.27717578125,-0.06368015275001525,0.036818620556115636,-0.30786840995028614
1768416590826177000,10.287177001953125,-0.010494506007432937,0.03939402628536336,-0.30673867526799437
1768416590836178200,10.29717822265625,0.039755671805143354,0.03366926228025695,-0.2629040635861456
1768416590846179000,10.307178955078125,0.01974573395550251,0.020094711789954454,-0.20634733297526836
1768416590856181000,10.317180908203126,0.012577742022275924,-0.012028862268128432,-0.13420344939306378
1768416590866182100,10.32718212890625,-0.04976151751279831,-0.02708906875590328,-0.057274377360939974
1768416590876183000,10.33718310546875,-0.10288052875995636,-0.025941181928990406,0.03219531955346465
1768416590886185000,10.34718505859375,-0.06516659191548824,-0.07446825314285233,0.1384546770967543
1768416590896186000,10.35718603515625,-0.0507248095870018,-0.11816131919585168,0.20191972579136488
1768416590906187000,10.36718701171875,-0.03757891228795052,-0.14160013551563025,0.2529921797722578
1768416590916188000,10.37718798828125,-0.032145196801424025,-0.14333179074698127,0.25451018311977386
1768416590926190000,10.387190185546874,-0.05180617508292198,-0.10052565446319058,0.23774931019395587
1768416590936191000,10.39719091796875,0.01049567505121231,-0.03847525377289857,0.1913917559057474
1768416590946192100,10.407192138671874,0.10518120691776275,-0.0030925043889321385,0.10273542120084166
1768416590956194000,10.417194091796874,0.20397826575636863,-0.03006003825755324,0.0707837011449039
1768416590966195200,10.4271953125,0.1874836425513029,-0.02619845375884324,0.06104308224469423
1768416590976196000,10.437196044921874,0.07182721884846686,-0.016252334315213373,0.07316533558443188
1768416590986197000,10.447197021484374,-0.03750233992040157,0.0027997045879717916,0.07251110945940017
1768416590996199200,10.45719921875,-0.07597089452445506,0.030417258763965217,0.0530133589155972
1768416591006200000,10.467199951171875,-0.09965630601644515,0.07250565696614794,-0.022063947769999502
1768416591016201000,10.477200927734375,-0.05772387469410896,0.12534293779563158,-0.11556757637560366
1768416591026203000,10.487202880859375,0.03713292208611965,0.13308734137732534,-0.18977906001210212
1768416591036204000,10.4972041015625,0.031027006426453587,0.1270370192292612,-0.22272125241011378
1768416591046205000,10.507204833984375,0.00046761751174926756,0.08436261043320409,-0.24729893656671045
1768416591056206000,10.5172060546875,-0.058121349579095836,0.04451736064846627,-0.25722280307933687
1768416591066208000,10.5272080078125,-0.01768003359735012,0.018397031893441454,-0.06283230374902486
1768416591076209200,10.537209228515625,-0.055202247262001035,-0.0108419312056154,-0.012381781058758496
1768416591086210000,10.5472099609375,-0.04676584282815456,-0.005158414809638634,-0.05925678334981203
1768416591096211000,10.5572109375,-0.015774492236971853,0.013951633324520662,-0.09518032964617014
1768416591106213000,10.567213134765625,0.0013256956458091735,0.0252660591464024,-0.1701635283075273
1768416591116214000,10.577214111328125,0.02580196525454521,0.04314588049901649,-0.19378712660968303
1768416591126215000,10.58721484375,0.06243278303742408,0.08672250796495937,-0.19222981416508556
1768416591136217000,10.597217041015625,0.07374561969041823,0.07051158793894574,-0.17562763893231748
1768416591146218000,10.607218017578125,0.0015431377887725828,0.03378442450896837,-0.1563040759116411
1768416591156219000,10.617218994140625,-0.060792614614963526,-0.0035833657789509743,-0.09096241969019174
1768416591166220000,10.627219970703125,-0.14955284808576105,-0.035188044229196386,-0.04912511930540204
1768416591176222200,10.63722216796875,-0.16992402046322821,-0.03869433531709947,0.04030278429389
1768416591186223000,10.64722314453125,-0.10180150135159492,-0.047327294369507576,0.16175956483855844
1768416591196224000,10.65722412109375,-0.03815349730551243,-0.03357758595841005,0.27050182523876426
1768416591206226200,10.66722607421875,-0.013294950380921364,-0.039591028428496794,0.32634938466697927
1768416591216227000,10.67722705078125,-0.06877016936540603,-0.05484708628193475,0.31250907536298034
1768416591226228000,10.68722802734375,-0.1423141290038824,-0.02193007399095222,0.2734989612281322
1768416591236228900,10.697228759765625,-0.09239829771220684,-0.06435640804376452,0.22487433879077434
1768416591246231000,10.70723095703125,0.00952361514866352,-0.11018658659015781,0.19008797983080147
1768416591256232000,10.71723193359375,-0.0325035087198019,-0.0891979764340911,0.15972484414055943
1768416591266233000,10.727233154296876,-0.1243020869731903,-0.0313035400792025,0.10862681732699274
1768416591276235000,10.737235107421874,-0.03783317930996418,-0.05276212410088628,-0.0007069792255759239
1768416591286236200,10.747236083984374,0.05603402191102504,-0.07856860113376751,-0.1171096912510693
1768416591296237000,10.757237060546874,0.05183773926496506,-0.027094955073995515,-0.18914120049998162
1768416591306238000,10.767238037109376,-0.07023030504584311,0.0199390828368254,-0.2219083285920322
1768416591316240000,10.777239990234374,-0.21669161685705185,0.021670902464957908,-0.12481047488674521
1768416591326241000,10.787240966796874,-0.2628600783139467,-0.03212243698034435,0.027854075478762386
1768416591336242000,10.797241943359374,-0.1518254691928625,-0.07912783331857062,0.15238529503270984
1768416591346243800,10.807243896484374,-0.07454232302606105,-0.10281066012782976,0.11975582184568047
1768416591356245000,10.817244873046874,-0.044407297003269196,-0.08673443586477078,0.0047914720602333545
1768416591366246000,10.827245849609374,0.023576105898618697,-0.05929238438615575,-0.13514789063632487
1768416591376247000,10.8372470703125,-0.005865092641115188,0.00561299017672427,-0.1925333271563053
1768416591386248700,10.847248779296875,-0.046858197286725044,0.06083577790325507,-0.1828925153687596
1768416591396250000,10.85725,-0.05820844334065914,0.11382465083156712,-0.14604294026866554
1768416591406251000,10.8672509765625,-0.04790156885981559,0.1360804222460836,-0.06897665172293782
1768416591416253000,10.8772529296875,-0.07650456300973892,0.11000197813771664,-0.07166662145927548
1768416591426254000,10.887254150390625,-0.04455401199758052,0.023397644059173762,-0.16186974721476435
1768416591436255000,10.8972548828125,-0.0003495440900325775,-0.05195967601104639,-0.19043956974744797
1768416591446255900,10.907255859375,0.034947979262471195,-0.10457807165915146,-0.14962240619063377
1768416591456258000,10.917258056640625,0.061813189834356304,-0.12593637364413587,-0.06603562983497976
1768416591466259000,10.927259033203125,0.03203121503293514,-0.0665117594467476,0.03467310784384608
1768416591476259800,10.937259765625,-0.014769699108600615,0.016996535712061448,0.12564239566624164
1768416591486261800,10.94726171875,0.00818038384616375,0.04827051177006215,0.15436229419410227
1768416591496263000,10.957262939453125,0.05646189193427562,0.06919639542084187,0.08612155553027986
1768416591506264000,10.96726416015625,0.17393442514836788,0.05948746856683865,0.013182137656211852
1768416591516265000,10.977264892578125,0.20715455770492552,0.07478978584795258,-0.11021087164804338
1768416591526267100,10.98726708984375,0.19454817411005496,0.039900706299021836,-0.20062091815248131
1768416591536268000,10.99726806640625,0.12511807953119278,-0.006646306146681308,-0.26596184372156856
1768416591546269000,11.00726904296875,0.06029109483361244,-0.06034481604853645,-0.2876655798770487
1768416591556270800,11.017270751953125,0.026211130577325818,-0.12834613819960505,-0.26372794718965886
1768416591566272000,11.02727197265625,-0.08480185123383999,-0.13198587380829266,-0.19932284116595983
1768416591576273000,11.03727294921875,-0.21852526202499864,-0.16375718666287137,-0.10195347704291344
1768416591586273800,11.047273681640625,-0.24564473961889743,-0.17549661469748243,-0.03505392385497689
1768416591596276000,11.05727587890625,-0.20159867714345453,-0.17378844080641864,0.03160466018393636
1768416591606276900,11.06727685546875,-0.11284838054478168,-0.12665068679279648,0.0013387012578547
1768416591616278000,11.077278076171876,-0.04076338754296303,-0.08339916309537365,-0.052032823445647955
1768416591626280000,11.087280029296876,0.058875382816791534,-0.0680128299257718,-0.08569806942120194
1768416591636281000,11.097281005859376,0.10449264013171196,-0.03323244404885918,-0.08464519936740397
1768416591646282000,11.107281982421876,0.13020283544957637,-0.03717576571400277,-0.06849851281717419
1768416591656283000,11.117282958984376,0.10899871937930583,-0.03534691545218229,-0.04308832335919142
1768416591666285000,11.12728515625,0.06842354788482188,-0.025284252390218896,0.00825067260339856
1768416591676286000,11.137285888671874,0.04801555062830448,0.005734799058642238,0.017495763071626425
1768416591686286800,11.147286865234374,0.011162030005455017,0.03450357822952792,0.0042258010014891625
1768416591696288800,11.157288818359374,0.0508159950017929,0.04244115716260858,0.0006461889490485191
1768416591706290000,11.1672900390625,0.06295593012869358,0.05897229471947066,-0.042293958111107345
1768416591716291000,11.177291015625,-0.012437456768751144,0.07112479706699959,-0.06363017612844706
1768416591726292000,11.1872919921875,-0.07604279071688652,0.06418946311217733,-0.07485548062846065
1768416591736294100,11.197294189453125,-0.034226679250597955,0.06359821922075934,-0.10043503530398011
1768416591746295000,11.207294921875,-0.024074703070521352,0.08032755536399781,-0.10920520173683762
1768416591756296000,11.2172958984375,-0.04468026872575283,0.08401038119574077,-0.11040551743730902
1768416591766296800,11.227296875,-0.041188334956765174,0.09216160287950187,-0.09859349909052252
1768416591776299000,11.237299072265625,-0.04106967701315879,0.17096496261721475,-0.09702566525191068
1768416591786300000,11.2472998046875,-0.05171265158057212,0.20332761982791125,-0.1156434180907905
1768416591796300800,11.25730078125,-0.017429273706674575,0.16017251484282313,-0.15187763777151703
1768416591806303000,11.267302978515625,0.030882629519701003,0.09730128558920696,-0.1395664377309382
1768416591816303900,11.277303955078125,0.040054947012662885,0.04152433457863517,-0.11279460453093051
1768416591826305000,11.287304931640625,0.024869652840495107,-0.020302207927638663,-0.04930865917876363
1768416591836306000,11.297305908203125,-0.05575871210098266,-0.07652345950645394,0.0017629180192947386
1768416591846308000,11.30730810546875,-0.18948563002347946,-0.08824669445808976,0.07810717590078711
1768416591856309000,11.31730908203125,-0.16454057385921478,-0.1153983938211575,0.12351298242211341
1768416591866310000,11.327309814453125,0.007453238615393638,-0.17748115784451365,0.11885843461453914
1768416591876312000,11.33731201171875,0.11715630687177181,-0.1569344827696681,0.1116670618057251
1768416591886313000,11.34731298828125,-0.0030097032099962234,-0.05690995536218397,0.11052812090367078
1768416591896313900,11.35731396484375,-0.04158756340742111,-0.015738283845852127,0.08369257481768727
1768416591906314800,11.367314697265625,0.1047691189855337,-0.04337356090820394,0.016314736593514678
1768416591916317000,11.37731689453125,0.22886779234111307,-0.06340670153691899,-0.005793634840101003
1768416591926317800,11.38731787109375,0.12039631170630455,-0.03436535250234883,-0.011620295166969299
1768416591936319000,11.397319091796875,-0.03374795582294464,-0.020333516381355003,0.013919073628634213
1768416591946321000,11.40732080078125,-0.07419044084846974,-0.03141147113281768,0.05082096343785524
1768416591956322000,11.417322021484376,0.010620762735605239,-0.06446670458440203,0.044231502044945956
1768416591966323000,11.427322998046876,0.1306330435603857,-0.09178049460742622,0.020690467459708452
1768416591976323800,11.43732373046875,0.16053367630541324,-0.05071696420726366,-0.02921893409118056
1768416591986326000,11.447325927734376,0.20382862815260885,-0.0344128038066905,-0.07776318476870656
1768416591996327000,11.457326904296876,0.15123627112805843,-0.029891125131165607,-0.09718947751149534
1768416592006327800,11.467327880859376,0.06318915436267852,0.014247255270229651,-0.05892126778513193
1768416592016330000,11.477330078125,-0.027492402559518812,0.016410931543563493,-0.024014205054938793
1768416592026331000,11.487330810546876,-0.0737608172595501,0.024390929412841794,-0.042736002790182824
1768416592036331800,11.497331787109376,-0.02787935605049133,0.030897343031642956,-0.08100143603757023
1768416592046333000,11.5073330078125,-0.00863221926689148,0.008869800015585497,-0.044950756230205294
1768416592056334800,11.5173349609375,-0.015762217277288437,-0.004752665286650881,-0.008835048362612724
1768416592066336000,11.5273359375,-0.02737491365969181,-0.008418704380374401,0.017310469632595776
1768416592076337000,11.5373369140625,-0.022197218760848045,0.0016103760723955927,-0.009607786300778388
1768416592086339000,11.547339111328125,-0.00651683454811573,-0.001938712977617979,-0.03782105048075318
1768416592096340000,11.557340087890625,-0.030584523355960843,0.03020982655836269,-0.09050093965828418
1768416592106340900,11.5673408203125,-0.035030981370806694,0.030018413905799388,-0.11358195551633835
1768416592116341800,11.577341796875,-0.00959726490676403,0.023556149955978614,-0.11721315162554383
1768416592126344000,11.587343994140625,-0.0005132102191448212,0.014646145794168114,-0.0902769216440618
1768416592136344800,11.5973447265625,-0.01154313827753067,0.010494040216552094,-0.05581015002727508
1768416592146345700,11.607345703125,-0.04026654393672943,0.004122523290105164,-0.01708089866042137
1768416592156347100,11.61734716796875,-0.057874096819758414,0.0015616050272248684,-0.012969956210255621
1768416592166349000,11.62734912109375,-0.04143500319421291,0.029665298752347007,-0.03846110194995999
1768416592176350000,11.637349853515625,-0.021394670206308364,0.024041394455963743,-0.08722557124942541
1768416592186350800,11.647350830078125,0.020795535269379616,0.019567363447602838,-0.10768252221420406
1768416592196353000,11.65735302734375,0.031814941933751104,0.020661451427778227,-0.10028291348218918
1768416592206354000,11.66735400390625,-0.029213235002756115,0.02915935852420516,-0.08704130072370171
1768416592216354800,11.677354736328125,-0.07004676517248153,0.05324417199678719,-0.047541357245296234
1768416592226356000,11.68735595703125,-0.05159282459318638,0.07542783715631812,-0.035014468627423044
1768416592236358000,11.69735791015625,0.0017377835780382155,0.03904281996120699,-0.06852452404126524
1768416592246358800,11.70735888671875,0.012476619735360146,0.006657256798958406,-0.09720818221196531
1768416592256360000,11.71735986328125,0.011761164942383766,-0.02971709287166595,-0.0904679141715169
1768416592266361900,11.72736181640625,-0.019984218886494636,-0.06483627311573363,-0.09613558454439043
1768416592276363000,11.737363037109375,-0.05702011033892631,-0.09794504511915146,-0.07082417928576469
1768416592286364000,11.747364013671875,-0.053364510440826414,-0.13322908793557434,-0.04987579154223203
1768416592296365000,11.757364990234375,0.020562895557284355,-0.14549001909364015,0.01658639314174652
1768416592306367000,11.767366943359375,0.08505611825585364,-0.1565756776609458,0.00831453161984682
1768416592316368400,11.777368408203126,0.10262918434739113,-0.12983185584587045,0.008957505698502063
1768416592326369300,11.787369384765626,0.041059740141034126,-0.08506342477947473,0.020672055020183322
1768416592336370200,11.7973701171875,-0.03998129725456238,-0.01157368867942132,0.029220541526377198
1768416592346372400,11.807372314453126,-0.039651042386889455,0.017374401714280247,0.04165741377323866
1768416592356373200,11.817373291015626,0.06334989788234234,-0.019446842340473086,0.05508125123083591
1768416592366374100,11.8273740234375,0.07081658050119877,-0.05704217604026198,0.03644157882109284
1768416592376376300,11.837376220703124,0.07236088733375072,-0.07627685520108789,0.028835779992491005
1768416592386377200,11.847377197265626,0.025609657552838325,-0.06532602026090026,0.0023187983363866806
1768416592396378400,11.85737841796875,-0.014847440519928931,-0.05981799742914736,-0.015597674365341662
1768416592406379300,11.867379150390626,-0.03752981244921684,-0.07385742776812985,-0.065548430839926
1768416592416381400,11.87738134765625,-0.04959902042746544,-0.07082777774864807,-0.06180792913734912
1768416592426382300,11.88738232421875,-0.08331833467781544,-0.06285031432975083,-0.058798664318770164
1768416592436383200,11.89738330078125,-0.09605506665408611,-0.04572269045077264,-0.04870674776285887
1768416592446385400,11.907385498046875,-0.10647709194719791,-0.015750252844858915,-0.050966801649332046
1768416592456386300,11.91738623046875,-0.08347381750047206,0.028940811269544064,-0.08738426894247531
1768416592466387200,11.92738720703125,-0.03370470120310783,0.053730037551280106,-0.11624123785346746
1768416592476388000,11.93738818359375,0.013515899655222891,0.05974354395344853,-0.11525704912170767
1768416592486390300,11.947390380859375,0.028104981499910354,0.05353528216416016,-0.11344751548171043
1768416592496391400,11.957391357421875,-0.004966682496666908,0.05740830593891442,-0.13182006138786673
1768416592506392300,11.967392333984375,-0.09900456410944461,0.08459586206665262,-0.11099164676219224
1768416592516394500,11.97739453125,-0.054873745959997174,0.07546961220512166,-0.09759659700766206
1768416592526395400,11.9873955078125,0.10261047964692115,0.022029643641598522,-0.11932926699668168
1768416592536396300,11.997396240234375,0.1202455050587654,0.013570424587745218,-0.11823226554021239
1768416592546397200,12.007397216796875,-0.03991115462779998,0.06358409023070707,-0.11209507795944809
1768416592556399400,12.0173994140625,-0.16495850701034068,0.10900540484841913,-0.09423545001149176
1768416592566400300,12.027400146484375,-0.10647124672830104,0.09374699064111336,-0.12605375294610857
1768416592576401200,12.037401123046875,0.05199731374084949,0.06477828671764582,-0.11898732169121504
1768416592586402300,12.04740234375,0.039217911666631695,0.10094019008083269,-0.08807502768561243
1768416592596404200,12.057404296875,-0.10466332052350044,0.1046722162160091,-0.04546732745021581
1768416592606405400,12.0674052734375,-0.2516337509006262,0.07306547367284073,-0.021507775191962716
1768416592616406300,12.07740625,-0.18761632902026176,-0.01179738703323528,-0.0026189503267407418
1768416592626408400,12.087408447265625,-0.01895136870741844,-0.09123582980409264,-0.004779927752912044
1768416592636409300,12.097409423828125,0.03521452124416828,-0.11656851531276478,0.032186843986064195
1768416592646410200,12.10741015625,0.0279547593742609,-0.21349925055652855,-0.05948913080096244
1768416592656411100,12.1174111328125,0.06089315237998962,-0.24812148672966286,-0.19793167906850576
1768416592666413300,12.127413330078125,0.06309270825088024,-0.15048218309143557,-0.2781542396880686
1768416592676414200,12.137414306640625,0.05602233147323131,-0.0418683531101793,-0.2934422635823488
1768416592686415000,12.1474150390625,-0.019783727878332137,0.07905572706358507,-0.2614576641701162
1768416592696417300,12.157417236328126,-0.11195990727245807,0.11885085409628227,-0.21947350266054272
1768416592706418200,12.167418212890626,-0.06158581081926822,0.061005143120791756,-0.17012041981816292
1768416592716419300,12.17741943359375,0.05243862776756286,0.002947963085398078,-0.12184504920989274
1768416592726420200,12.187420166015626,0.15455167928636074,0.00042478301702067255,0.01300078973993659
1768416592736422400,12.19742236328125,0.1943465140581131,0.06620411826968192,0.17860650861263275
1768416592746423300,12.20742333984375,0.08859539829790591,0.1675499665419571,0.25312223589271304
1768416592756424200,12.217424072265626,-0.0847317086070776,0.219172090294864,0.29868659397661684
1768416592766426400,12.22742626953125,-0.159323715993762,0.207157498580683,0.304250511714071
1768416592776427300,12.23742724609375,-0.17033669291734693,0.13969329724730922,0.2561490363679826
1768416592786428200,12.24742822265625,-0.13303133687376975,0.06055202905843034,0.17806874847412107
1768416592796429000,12.257428955078124,-0.128911042073369,0.023749471437837927,0.10899199737757444
1768416592806431200,12.26743115234375,-0.187789347499609,-0.028794881726521997,0.05755903952121734
1768416592816432000,12.27743212890625,-0.2928109799414873,-0.017392649757023898,0.03080868750065565
1768416592826433300,12.287433349609374,-0.38142508293986316,0.011766626568790524,0.03408917047604918
1768416592836435200,12.297435302734375,-0.3726888187766075,-0.036855785645172,0.03249430250003934
1768416592846436400,12.307436279296875,-0.2584586284846067,-0.0923518099556677,0.03963979034051299
