time,seconds_elapsed,z,y,x
1768416580594849500,0.055849609375,-0.005833241622895002,-0.0038254365790635347,-0.010730214416980743
1768416580604850400,0.065850341796875,-0.004486076533794403,-0.00004522339440882206,-0.01437503844499588
1768416580614852400,0.075852294921875,-0.003270076820626855,0.0068283951841294765,-0.01756896637380123
1768416580624853500,0.085853515625,-0.006360748782753944,0.010226882994174957,-0.025969989597797394
1768416580634854700,0.095854736328125,-0.006224395241588354,0.011339019052684307,-0.026564139872789383
1768416580644856600,0.105856689453125,-0.006336381658911705,0.014026402495801449,-0.02286609821021557
1768416580654857700,0.115857666015625,-0.004660454578697681,0.016621120274066925,-0.01895790919661522
1768416580664858600,0.125858642578125,-0.0040065087378025055,0.02209421619772911,-0.017554618418216705
1768416580674859500,0.135859619140625,-0.003554038004949689,0.027073262259364128,-0.02353794313967228
1768416580684861400,0.145861328125,-0.006067733280360699,0.033649444580078125,-0.03083905577659607
1768416580694862600,0.155862548828125,-0.010853700339794159,0.035455603152513504,-0.030887261033058167
1768416580704863500,0.165863525390625,-0.011708242818713188,0.04051489010453224,-0.024550769478082657
1768416580714865400,0.175865478515625,-0.011818232014775276,0.04764363914728165,-0.02048571966588497
1768416580724866600,0.185866455078125,-0.008389809168875217,0.05312275141477585,-0.0241013802587986
1768416580734867500,0.195867431640625,-0.006939983926713467,0.06192369759082794,-0.035450439900159836
1768416580744869400,0.205869384765625,-0.0029720033053308725,0.0678122267127037,-0.045926760882139206
1768416580754870500,0.21587060546875,0.0007630801992490888,0.07771066576242447,-0.053135138005018234
1768416580764871700,0.22587158203125,0.0057013798505067825,0.08877210319042206,-0.06920625269412994
1768416580774872600,0.23587255859375,0.008400759659707546,0.09783057868480682,-0.0915142148733139
1768416580784874500,0.24587451171875,0.008085038512945175,0.109178826212883,-0.11665261536836624
1768416580794875600,0.255875732421875,0.008879193104803562,0.12046504020690918,-0.1346782147884369
1768416580804876500,0.26587646484375,0.010498592630028725,0.12782542407512665,-0.15391609072685242
1768416580814878500,0.27587841796875,0.010623760521411896,0.13900645077228546,-0.173000305891037
1768416580824879400,0.28587939453125,0.0049771275371313095,0.1356469690799713,-0.2003152072429657
1768416580834880500,0.295880615234375,-0.0055008139461278915,0.124848373234272,-0.2248503863811493
1768416580844882400,0.30588232421875,-0.014458552934229374,0.11231785267591476,-0.24409310519695282
1768416580854883300,0.31588330078125,-0.026769815012812614,0.09885583817958832,-0.2569199502468109
1768416580864884700,0.325884765625,-0.03343211114406586,0.08814188092947006,-0.2707083225250244
1768416580874885600,0.3358857421875,-0.046717822551727295,0.07934146374464035,-0.2822192907333374
1768416580884887600,0.345887451171875,-0.05877049267292023,0.06201216205954552,-0.29132193326950073
1768416580894888700,0.355888671875,-0.06963032484054565,0.04866227135062218,-0.2910151183605194
1768416580904889600,0.3658896484375,-0.07663976401090622,0.02955617755651474,-0.2854534685611725
1768416580914891500,0.3758916015625,-0.08355412632226944,0.021713169291615486,-0.28350403904914856
1768416580924892400,0.385892333984375,-0.08941208571195602,0.008850572630763054,-0.29277104139328003
1768416580934893600,0.3958935546875,-0.09053061902523041,-0.004545660223811865,-0.30226919054985046
1768416580944895500,0.4058955078125,-0.08902772516012192,-0.009989256039261818,-0.30008625984191895
1768416580954896400,0.415896484375,-0.08039109408855438,-0.010380741208791733,-0.28580933809280396
1768416580964897500,0.4258974609375,-0.07957830280065536,-0.009896489791572094,-0.2618210017681122
1768416580974899500,0.4358994140625,-0.08936755359172821,-0.005332896485924721,-0.234958216547966
1768416580984900400,0.445900390625,-0.10165337473154068,-0.003347676480188966,-0.2083708792924881
1768416580994901500,0.455901611328125,-0.11233105510473251,-0.0005758584011346102,-0.18714548647403717
1768416581004902700,0.465902587890625,-0.1295740306377411,0.0070416308008134365,-0.16628603637218475
1768416581014904600,0.475904541015625,-0.14001069962978363,0.0017541912384331226,-0.13944244384765625
1768416581024905500,0.485905517578125,-0.1484479010105133,-0.00310041313059628,-0.11875978857278824
1768416581034906600,0.49590673828125,-0.15813381969928741,-0.016552040353417397,-0.10213154554367065
1768416581044908500,0.505908447265625,-0.16534240543842316,-0.031708892434835434,-0.09757475554943085
1768416581054909400,0.515909423828125,-0.18521490693092346,-0.03595556691288948,-0.07941066473722458
1768416581064910300,0.525910400390625,-0.2078620344400406,-0.045755259692668915,-0.038320329040288925
1768416581074912500,0.53591259765625,-0.22233179211616516,-0.05582147464156151,0.028544453904032707
1768416581084913400,0.545913330078125,-0.23886442184448242,-0.06625083088874817,0.09041523188352585
1768416581094914600,0.55591455078125,-0.24747708439826965,-0.09676826000213623,0.14493119716644287
1768416581104915700,0.565915771484375,-0.25217875838279724,-0.12177171558141708,0.2055749148130417
1768416581114917600,0.575917724609375,-0.2441892921924591,-0.13393224775791168,0.24254944920539856
1768416581124918500,0.58591845703125,-0.2288854420185089,-0.13437876105308533,0.23300804197788239
1768416581134919700,0.595919677734375,-0.21878619492053986,-0.1228262409567833,0.19079534709453583
1768416581144921600,0.605921630859375,-0.2041378766298294,-0.10165900737047195,0.1462670862674713
1768416581154922500,0.615922607421875,-0.19245006144046783,-0.06704883277416229,0.11873772740364075
1768416581164923400,0.62592333984375,-0.1864972859621048,-0.023298094049096107,0.10322746634483337
1768416581174925600,0.635925537109375,-0.18855591118335724,0.03427811712026596,0.10864140838384628
1768416581184926500,0.645926513671875,-0.18441815674304962,0.10788998007774353,0.13823489844799042
1768416581194927400,0.65592724609375,-0.1791863739490509,0.17747624218463898,0.17679613828659058
1768416581204928500,0.665928466796875,-0.17789261043071747,0.23226776719093323,0.21265462040901184
1768416581214930400,0.675930419921875,-0.17762790620326996,0.26976877450942993,0.248284250497818
1768416581224931600,0.685931640625,-0.18404319882392883,0.2926253080368042,0.2797490656375885
1768416581234932500,0.695932373046875,-0.19132907688617706,0.3084404766559601,0.29641830921173096
1768416581244934700,0.7059345703125,-0.18914441764354706,0.31660163402557373,0.2944363057613373
1768416581254935600,0.715935546875,-0.16628144681453705,0.32199373841285706,0.26861855387687683
1768416581264936400,0.7259365234375,-0.13314665853977203,0.3309764564037323,0.23336584866046906
1768416581274938600,0.735938720703125,-0.09510046988725662,0.33819711208343506,0.21187786757946014
1768416581284939500,0.745939453125,-0.05700987949967384,0.3337988555431366,0.21042867004871368
1768416581294940400,0.7559404296875,-0.01684967428445816,0.3324510455131531,0.2197028547525406
1768416581304943600,0.765943603515625,0.024004079401493073,0.326122522354126,0.22434504330158234
1768416581314944500,0.775944580078125,0.05947498977184296,0.3203285336494446,0.21290276944637299
1768416581324945400,0.7859453125,0.07952413707971573,0.30391621589660645,0.1783229112625122
1768416581334946600,0.795946533203125,0.0944298505783081,0.2815246284008026,0.12740086019039154
1768416581344948500,0.805948486328125,0.11116095632314682,0.26093238592147827,0.07711656391620636
1768416581354949400,0.815949462890625,0.13206863403320312,0.2444698065519333,0.02848351001739502
1768416581364950800,0.82595068359375,0.1526767760515213,0.23541288077831268,-0.012117145583033562
1768416581374952400,0.835952392578125,0.17047972977161407,0.23329193890094757,-0.04275042191147804
1768416581384953600,0.84595361328125,0.18385612964630127,0.23563359677791595,-0.06207096576690674
1768416581394954800,0.855954833984375,0.19437934458255768,0.24263104796409607,-0.08466096967458725
1768416581404956700,0.865956787109375,0.20406226813793182,0.2583451271057129,-0.09655378758907318
1768416581414957600,0.87595751953125,0.213652566075325,0.28052207827568054,-0.10020657628774643
1768416581424958500,0.88595849609375,0.2248811274766922,0.3156268000602722,-0.10766633599996567
1768416581434960600,0.895960693359375,0.23375771939754486,0.36240440607070923,-0.13226941227912903
1768416581444961500,0.90596142578125,0.24318043887615204,0.4106405973434448,-0.17098218202590942
1768416581454962400,0.91596240234375,0.2491733580827713,0.46351632475852966,-0.21609240770339966
1768416581464963600,0.925963623046875,0.25384819507598877,0.5156648755073547,-0.24715666472911835
1768416581474965500,0.935965576171875,0.2639346420764923,0.5681107640266418,-0.25944286584854126
1768416581484966400,0.94596630859375,0.2536611258983612,0.6161711812019348,-0.2523026168346405
1768416581494967600,0.955967529296875,0.22289308905601501,0.6565843820571899,-0.22559617459774017
1768416581504969500,0.965969482421875,0.20104217529296875,0.6948262453079224,-0.20226924121379852
1768416581514970600,0.975970703125,0.19127289950847626,0.7413063645362854,-0.17230229079723358
1768416581524971500,0.985971435546875,0.16730991005897522,0.7481626272201538,-0.12979000806808472
1768416581534973700,0.9959736328125,0.09630125761032104,0.6968117952346802,-0.06392709910869598
1768416581544974600,1.005974609375,0.0004219922120682895,0.6091845631599426,0.017559967935085297
1768416581554975500,1.0159755859375,-0.08931615203619003,0.5161416530609131,0.07917646318674088
1768416581564976400,1.025976318359375,-0.12761500477790833,0.4531569480895996,0.09983357042074203
1768416581574978600,1.035978515625,-0.10360581427812576,0.43652763962745667,0.07699776440858841
1768416581584979500,1.0459794921875,-0.04341084510087967,0.4465778172016144,0.03490679711103439
1768416581594980400,1.05598046875,0.028505954891443253,0.4688279926776886,0.009175869636237621
1768416581604982500,1.065982421875,0.10661101341247559,0.5057885646820068,0.02548513561487198
1768416581614983700,1.075983642578125,0.18916288018226624,0.558002233505249,0.06396328657865524
1768416581624984600,1.085984619140625,0.2526722848415375,0.6235638856887817,0.08923567831516266
1768416581634986800,1.09598681640625,0.29040154814720154,0.7043724656105042,0.07792496681213379
1768416581644987600,1.105987548828125,0.30972251296043396,0.7824518084526062,0.044797059148550034
1768416581654988500,1.115988525390625,0.30744338035583496,0.8379259705543518,-0.0006892005912959576
1768416581664990700,1.12599072265625,0.2914678752422333,0.867083728313446,-0.03877440094947815
1768416581674991600,1.13599169921875,0.2605877220630646,0.8739994168281555,-0.06170368194580078
1768416581684992500,1.145992431640625,0.21419978141784668,0.8571649193763733,-0.05715737119317055
1768416581694993400,1.155993408203125,0.1597791463136673,0.8210532665252686,-0.018518628552556038
1768416581704995600,1.16599560546875,0.11345360428094864,0.769352376461029,0.03479938581585884
1768416581714996500,1.17599658203125,0.0890212282538414,0.7174830436706543,0.07781343162059784
1768416581724997600,1.18599755859375,0.08310361951589584,0.6661771535873413,0.10377393662929535
1768416581734999600,1.19599951171875,0.09646310657262802,0.617394745349884,0.1290055215358734
1768416581745000700,1.206000732421875,0.11227995157241821,0.5792089104652405,0.15939080715179443
1768416581755001600,1.216001708984375,0.12009526789188385,0.5451521277427673,0.18412332236766815
1768416581765003800,1.226003662109375,0.11210177838802338,0.5166609883308411,0.1928955465555191
1768416581775004700,1.236004638671875,0.09808343648910522,0.4927077293395996,0.19415949285030365
1768416581785005600,1.246005615234375,0.07692881673574448,0.46400946378707886,0.1969912350177765
1768416581795007500,1.256007568359375,0.060001496225595474,0.44045940041542053,0.18612048029899597
1768416581805008600,1.266008544921875,0.047437310218811035,0.3965717852115631,0.1525583267211914
1768416581815009500,1.276009521484375,0.029841534793376923,0.3377830386161804,0.12075673043727875
1768416581825010400,1.286010498046875,0.009566751308739185,0.2736717760562897,0.1030425950884819
1768416581835012600,1.2960126953125,-0.005082232411950827,0.22026313841342926,0.09857247769832611
1768416581845013500,1.306013427734375,-0.012950075790286064,0.17103934288024902,0.09224775433540344
1768416581855014700,1.3160146484375,-0.014867551624774933,0.11619340628385544,0.08270671218633652
1768416581865016600,1.3260166015625,-0.017953690141439438,0.0552663654088974,0.07988541573286057
1768416581875017700,1.336017822265625,-0.009431039914488792,0.022469807416200638,0.09774377197027206
1768416581885018600,1.3460185546875,0.003922651521861553,0.03546445071697235,0.11954724788665771
1768416581895020500,1.3560205078125,0.012338773347437382,0.08269481360912323,0.12007268518209457
1768416581905021700,1.366021728515625,0.014137402176856995,0.14103810489177704,0.10875456780195236
1768416581915022600,1.376022705078125,0.005032853689044714,0.1863986700773239,0.10308948904275894
1768416581925024500,1.3860244140625,-0.016232619062066078,0.21543261408805847,0.09268512576818466
1768416581935025400,1.396025390625,-0.03044031746685505,0.24643313884735107,0.09162598848342896
1768416581945026600,1.406026611328125,-0.046620555222034454,0.2737804055213928,0.10287618637084961
1768416581955027500,1.41602734375,-0.07237891107797623,0.289050430059433,0.1337483525276184
1768416581965029400,1.426029296875,-0.10495782643556595,0.2870481014251709,0.1801449954509735
1768416581975030800,1.43603076171875,-0.12720613181591034,0.28141817450523376,0.228506401181221
1768416581985031700,1.44603173828125,-0.158011794090271,0.26178160309791565,0.26544588804244995
1768416581995033600,1.45603369140625,-0.1892501413822174,0.23198670148849487,0.2931928038597107
1768416582005034500,1.466034423828125,-0.2040281444787979,0.210758239030838,0.3186952471733093
1768416582015035600,1.47603564453125,-0.21947474777698517,0.17285853624343872,0.33779171109199524
1768416582025037600,1.48603759765625,-0.22202380001544952,0.12641207873821259,0.3887917697429657
1768416582035038500,1.49603857421875,-0.17618361115455627,0.0800246074795723,0.5010538697242737
1768416582045039600,1.50603955078125,-0.16368824243545532,-0.02853192761540413,0.6245602965354919
1768416582055041500,1.51604150390625,-0.14889121055603027,-0.07332762330770493,0.7285154461860657
1768416582065042400,1.52604248046875,-0.094763845205307,-0.007418423891067505,0.7755810618400574
1768416582075043600,1.536043701171875,-0.02475174143910408,0.11873285472393036,0.672283411026001
1768416582085044700,1.546044677734375,0.04441102221608162,0.20824091136455536,0.40749529004096985
1768416582095046400,1.55604638671875,0.0859491378068924,0.23062478005886078,0.12527133524417877
1768416582105047600,1.566047607421875,0.10998916625976562,0.2335948497056961,-0.012774577364325523
1768416582115048700,1.576048583984375,0.13272777199745178,0.20392216742038727,-0.015046253800392151
1768416582125050600,1.586050537109375,0.15341833233833313,0.15386629104614258,0.047165241092443466
1768416582135051500,1.596051513671875,0.17372466623783112,0.09166550636291504,0.1208631619811058
1768416582145052700,1.606052734375,0.1683560013771057,0.02358262985944748,0.18734773993492126
1768416582155054600,1.6160546875,0.15054984390735626,-0.04031645879149437,0.2365986406803131
1768416582165055500,1.626055419921875,0.13049836456775665,-0.08155752718448639,0.2654813826084137
1768416582175056400,1.636056396484375,0.10544201731681824,-0.10151845216751099,0.2838236391544342
1768416582185057500,1.6460576171875,0.07616942375898361,-0.09679014980792999,0.284736692905426
1768416582195059500,1.6560595703125,0.03915121406316757,-0.05878550559282303,0.26490065455436707
1768416582205060600,1.666060546875,-0.000282814959064126,-0.015869637951254845,0.23005805909633636
1768416582215061800,1.676061767578125,-0.0334162674844265,0.023606931790709496,0.18645811080932617
1768416582225063700,1.686063720703125,-0.05557149648666382,0.06167864799499512,0.14363548159599304
1768416582235064600,1.696064697265625,-0.05439384654164314,0.08748574554920197,0.11113879084587097
1768416582245065500,1.7060654296875,-0.03007999248802662,0.11453069746494293,0.08565744012594223
1768416582255067600,1.716067626953125,0.009812560863792896,0.13716118037700653,0.05833527073264122
1768416582265068500,1.726068603515625,0.05440054088830948,0.16137653589248657,0.026044489815831184
1768416582275069400,1.7360693359375,0.06396661698818207,0.16601549088954926,-0.0011956528760492802
1768416582285071600,1.746071533203125,0.059670932590961456,0.1481017768383026,-0.004715199116617441
1768416582295072500,1.756072509765625,0.053583744913339615,0.14621758460998535,0.026208627969026566
1768416582305073000,1.766072998046875,0.04504198953509331,0.1175994798541069,0.050308406352996826
1768416582315074000,1.776073974609375,0.014516572467982769,0.07774580270051956,0.05487998574972153
1768416582325076000,1.786075927734375,-0.009370718151330948,0.0352758914232254,0.035349395126104355
1768416582335076900,1.796076904296875,-0.03743830695748329,-0.00034575024619698524,0.0010380272287875414
1768416582345078000,1.806078125,-0.05130990967154503,-0.022477351129055023,-0.03082922101020813
1768416582355080000,1.816079833984375,-0.06605370342731476,-0.03278990834951401,-0.05232945457100868
1768416582365080800,1.826080810546875,-0.06373116374015808,-0.032314401119947433,-0.05948936566710472
1768416582375082000,1.83608203125,-0.057561688125133514,-0.027826976031064987,-0.0702461376786232
1768416582385084000,1.846083984375,-0.03870490565896034,-0.01759147085249424,-0.08102626353502274
1768416582395084800,1.856084716796875,-0.025104939937591553,-0.0016439303290098906,-0.09588216990232468
1768416582405085700,1.866085693359375,-0.018232256174087524,0.004854215774685144,-0.10889405012130737
1768416582415087900,1.876087890625,-0.020657064393162727,-0.002372804330661893,-0.11515434086322784
1768416582425088800,1.8860888671875,-0.027390131726861,-0.02069767564535141,-0.12120342254638672
1768416582435090000,1.89608984375,-0.03570345416665077,-0.04676656424999237,-0.1324203908443451
1768416582445091000,1.906091064453125,-0.0372026152908802,-0.06397570669651031,-0.1386204957962036
1768416582455093000,1.916093017578125,-0.039201319217681885,-0.1001502200961113,-0.15290755033493042
1768416582465094000,1.926093994140625,-0.037869807332754135,-0.12184347957372665,-0.1518508344888687
1768416582475094800,1.9360947265625,-0.04416205734014511,-0.14339403808116913,-0.13923731446266174
1768416582485097000,1.946096923828125,-0.04790259897708893,-0.1557338535785675,-0.12449949979782104
1768416582495097900,1.956097900390625,-0.043673232197761536,-0.1594598889350891,-0.11343646049499512
1768416582505098800,1.9660986328125,-0.04118051379919052,-0.16082879900932312,-0.11414308100938797
1768416582515101000,1.976100830078125,-0.04061912000179291,-0.16278782486915588,-0.11679451912641525
1768416582525101800,1.986101806640625,-0.04126560315489769,-0.16479840874671936,-0.1168861985206604
1768416582535102700,1.996102783203125,-0.0412786528468132,-0.16039326786994934,-0.103802889585495
1768416582545105000,2.00610498046875,-0.035930488258600235,-0.1505853682756424,-0.09234672784805298
1768416582555106000,2.01610595703125,-0.03336772695183754,-0.1421133130788803,-0.08402220904827118
1768416582565107000,2.02610693359375,-0.026816289871931076,-0.13152024149894714,-0.08199578523635864
1768416582575107800,2.03610791015625,-0.0220313873142004,-0.12462104856967926,-0.08950190246105194
1768416582585110000,2.046110107421875,-0.01938707008957863,-0.12203539162874222,-0.09826730936765671
1768416582595111000,2.05611083984375,-0.017360137775540352,-0.12489189952611923,-0.09672427922487259
1768416582605111800,2.06611181640625,-0.014929800294339657,-0.1256369799375534,-0.08970283716917038
1768416582615114000,2.076114013671875,-0.013394220732152462,-0.12661568820476532,-0.08651477098464966
1768416582625115000,2.086114990234375,-0.01455669105052948,-0.12928375601768494,-0.0845988467335701
1768416582635115800,2.09611572265625,-0.01516043022274971,-0.13087500631809235,-0.08253329992294312
1768416582645118000,2.106117919921875,-0.015146050602197647,-0.12742391228675842,-0.07896355539560318
1768416582655118800,2.116118896484375,-0.014401696622371674,-0.1313488781452179,-0.0734044760465622
1768416582665120000,2.1261201171875,-0.01973174884915352,-0.13863235712051392,-0.06855618953704834
1768416582675121000,2.136120849609375,-0.023427948355674744,-0.14848339557647705,-0.06276887655258179
1768416582685123000,2.146123046875,-0.032193876802921295,-0.15660913288593292,-0.05637628585100174
1768416582695124000,2.1561240234375,-0.03474997729063034,-0.16015779972076416,-0.05239033326506615
1768416582705124900,2.166124755859375,-0.03321773186326027,-0.16111792623996735,-0.04553493484854698
1768416582715127000,2.176126953125,-0.027306044474244118,-0.1577942967414856,-0.04203927144408226
1768416582725128000,2.1861279296875,-0.02370465360581875,-0.15400271117687225,-0.043478354811668396
1768416582735128800,2.19612890625,-0.017591100186109543,-0.147282212972641,-0.045880258083343506
1768416582745131000,2.206131103515625,-0.01343576330691576,-0.13880956172943115,-0.048190634697675705
1768416582755132000,2.2161318359375,-0.006323259323835373,-0.12800590693950653,-0.05200508236885071
1768416582765132800,2.2261328125,-0.004661585669964552,-0.11882153898477554,-0.05114823207259178
1768416582775134700,2.236134765625,-0.004635220393538475,-0.10977904498577118,-0.04655640944838524
1768416582785135900,2.246135986328125,-0.0024732649326324463,-0.1056961938738823,-0.04222673177719116
1768416582795137000,2.256136962890625,-0.004450395703315735,-0.10258562117815018,-0.03907834365963936
1768416582805138000,2.266137939453125,-0.01126788929104805,-0.10217183083295822,-0.039213355630636215
1768416582815140000,2.27614013671875,-0.011962974444031715,-0.09483189135789871,-0.041503675282001495
1768416582825141000,2.28614111328125,-0.014910228550434113,-0.08702308684587479,-0.04357438534498215
1768416582835142000,2.296141845703125,-0.013676386326551437,-0.07592809200286865,-0.04563993215560913
1768416582845143800,2.306143798828125,-0.014028521254658699,-0.06460144370794296,-0.044249966740608215
1768416582855145000,2.31614501953125,-0.01409802958369255,-0.057569362223148346,-0.043596960604190826
1768416582865145900,2.326145751953125,-0.013102605007588863,-0.051870349794626236,-0.041775260120630264
1768416582875147800,2.336147705078125,-0.010947841219604015,-0.044579681009054184,-0.04016804322600365
1768416582885149000,2.34614892578125,-0.009162260219454765,-0.0380236841738224,-0.0415581576526165
1768416582895149800,2.35614990234375,-0.005925721023231745,-0.03161478415131569,-0.0463571734726429
1768416582905151000,2.36615087890625,-0.004044062457978725,-0.023271622136235237,-0.05294235050678253
1768416582915153000,2.37615283203125,0.004163799807429314,-0.007337396964430809,-0.05603747442364693
1768416582925154000,2.386154052734375,0.012747632339596748,0.015336163341999054,-0.0630389153957367
1768416582935155000,2.396155029296875,0.019046274945139885,0.035544492304325104,-0.07421300560235977
1768416582945156900,2.406156982421875,0.022889282554388046,0.05292800813913345,-0.08071206510066986
1768416582955158000,2.416157958984375,0.0278472900390625,0.06996078789234161,-0.0840013399720192
1768416582965159000,2.426158935546875,0.02661564201116562,0.0801587849855423,-0.08738777786493301
1768416582975160800,2.436160888671875,0.020561479032039642,0.0847703143954277,-0.09803429245948792
1768416582985161700,2.44616162109375,0.013570415787398815,0.08847477287054062,-0.10698624700307846
1768416582995163000,2.456162841796875,-0.0009422143921256065,0.08050978928804398,-0.10878680646419525
1768416583005164000,2.4661640625,-0.014758828096091747,0.068280428647995,-0.10455315560102463
1768416583015165700,2.476165771484375,-0.02600269578397274,0.05240532383322716,-0.09783666580915451
1768416583025167000,2.4861669921875,-0.03670094162225723,0.04493575915694237,-0.09714982658624649
1768416583035168000,2.49616796875,-0.044537827372550964,0.03574519231915474,-0.09607044607400894
1768416583045170000,2.506169921875,-0.04711064323782921,0.022239718586206436,-0.10130192339420319
1768416583055171000,2.516171142578125,-0.04923717677593231,0.006478866562247276,-0.10607244074344635
1768416583065172000,2.526171875,-0.04997893050312996,-0.00807290617376566,-0.1106065958738327
1768416583075174000,2.536173828125,-0.047734685242176056,-0.024969598278403282,-0.10607469826936722
1768416583085174800,2.5461748046875,-0.048451077193021774,-0.04110325127840042,-0.09604407846927643
1768416583095176000,2.556176025390625,-0.05304689332842827,-0.05529283732175827,-0.07914978265762329
1768416583105177900,2.566177734375,-0.06481839716434479,-0.07458572089672089,-0.07365825027227402
1768416583115178800,2.5761787109375,-0.07423587143421173,-0.09196843951940536,-0.06968002021312714
1768416583125180000,2.586179931640625,-0.08076693117618561,-0.10818974673748016,-0.0631585642695427
1768416583135181000,2.59618115234375,-0.08673267811536789,-0.11941923201084137,-0.056850600987672806
1768416583145182700,2.6061826171875,-0.08430907130241394,-0.12776997685432434,-0.04912559688091278
1768416583155183900,2.616183837890625,-0.08538339287042618,-0.13511843979358673,-0.04436146840453148
1768416583165185000,2.62618505859375,-0.08677256852388382,-0.14692167937755585,-0.043577779084444046
1768416583175187000,2.63618701171875,-0.0843067467212677,-0.15820816159248352,-0.0374746136367321
1768416583185187800,2.646187744140625,-0.08152560889720917,-0.1643955111503601,-0.032464493066072464
1768416583195189000,2.65618896484375,-0.07610207796096802,-0.16518168151378632,-0.027301693335175514
1768416583205191000,2.66619091796875,-0.0680285096168518,-0.1663193255662918,-0.026104900985956192
1768416583215191800,2.67619189453125,-0.06437518447637558,-0.1752915233373642,-0.02037271298468113
1768416583225192700,2.686192626953125,-0.06392357498407364,-0.1863115280866623,-0.020464401692152023
1768416583235193900,2.69619384765625,-0.06939983367919922,-0.19608399271965027,-0.022530481219291687
1768416583245195800,2.70619580078125,-0.07225627452135086,-0.20261241495609283,-0.01668725162744522
1768416583255197000,2.716197021484375,-0.07171804457902908,-0.21327143907546997,-0.008042363449931145
1768416583265198000,2.726197998046875,-0.07048334181308746,-0.21801191568374634,0.005653508473187685
1768416583275200000,2.736199951171875,-0.07147270441055298,-0.22681818902492523,0.01649896427989006
1768416583285201000,2.746200927734375,-0.07141171395778656,-0.23552201688289642,0.02263178490102291
1768416583295202000,2.7562021484375,-0.06565742194652557,-0.2403135746717453,0.02665155939757824
1768416583305204000,2.766203857421875,-0.05513494461774826,-0.2481601983308792,0.028553172945976257
1768416583315204900,2.776204833984375,-0.050708506256341934,-0.2575984597206116,0.03439135476946831
1768416583325205800,2.786205810546875,-0.04982859268784523,-0.27009114623069763,0.04254445061087608
1768416583335207000,2.79620703125,-0.042873214930295944,-0.28098881244659424,0.051456183195114136
1768416583345208800,2.806208740234375,-0.03757579252123833,-0.29583168029785156,0.06956219673156738
1768416583355209700,2.816209716796875,-0.03612809628248215,-0.3133459687232971,0.07678335160017014
1768416583365211100,2.826211181640625,-0.04146699234843254,-0.3367701470851898,0.06653627753257751
1768416583375212800,2.836212890625,-0.05314149335026741,-0.36628222465515137,0.04721797630190849
1768416583385214000,2.8462138671875,-0.06202161684632301,-0.39396512508392334,0.04291578009724617
1768416583395214800,2.85621484375,-0.06549064069986343,-0.4071267247200012,0.048664212226867676
1768416583405217000,2.866217041015625,-0.06091173365712166,-0.4072583019733429,0.06064358353614807
1768416583415218000,2.876218017578125,-0.06086859107017517,-0.4029373228549957,0.07589497417211533
1768416583425218800,2.88621875,-0.06324201077222824,-0.40334653854370117,0.10702066868543625
1768416583435221000,2.896220947265625,-0.06934091448783875,-0.40505388379096985,0.1464996337890625
1768416583445222000,2.906221923828125,-0.07721594721078873,-0.4070742726325989,0.18040798604488373
1768416583455222800,2.916222900390625,-0.08262589573860168,-0.4074689447879791,0.1997249573469162
1768416583465223700,2.9262236328125,-0.091263048350811,-0.4094805121421814,0.20805221796035767
1768416583475225900,2.936225830078125,-0.09864053875207901,-0.40600350499153137,0.21072815358638763
1768416583485226800,2.946226806640625,-0.10500496625900269,-0.39683908224105835,0.21845519542694092
1768416583495228000,2.956227783203125,-0.10933873057365417,-0.37681877613067627,0.22172023355960846
1768416583505229800,2.966229736328125,-0.11589330434799194,-0.35098958015441895,0.22776001691818237
1768416583515231000,2.97623095703125,-0.12106728553771973,-0.32335206866264343,0.23625576496124268
1768416583525231900,2.98623193359375,-0.12859125435352325,-0.2971670925617218,0.24000921845436096
1768416583535234000,2.996234130859375,-0.13746410608291626,-0.27361008524894714,0.23634392023086548
1768416583545235000,3.00623486328125,-0.1496240198612213,-0.25626638531684875,0.2239542156457901
1768416583555235800,3.01623583984375,-0.16219787299633026,-0.23774278163909912,0.21704277396202087
1768416583565236700,3.02623681640625,-0.17516154050827026,-0.224286749958992,0.21022365987300873
1768416583575239000,3.036239013671875,-0.18090465664863586,-0.20483821630477905,0.20815837383270264
1768416583585239800,3.04623974609375,-0.180745929479599,-0.18651863932609558,0.2081873118877411
1768416583595240700,3.05624072265625,-0.17113511264324188,-0.16456301510334015,0.19698205590248108
1768416583605243000,3.066242919921875,-0.15576420724391937,-0.13879480957984924,0.1791086196899414
1768416583615244000,3.076244140625,-0.1370144933462143,-0.11019512265920639,0.15709573030471802
1768416583625245000,3.086244873046875,-0.1197330504655838,-0.0840195044875145,0.135554239153862
1768416583635247000,3.0962470703125,-0.10892353951931,-0.06390358507633209,0.1118430346250534
1768416583645248000,3.106248046875,-0.10441853851079941,-0.04918593540787697,0.09190013259649277
1768416583655249000,3.116248779296875,-0.09937503933906555,-0.04451821371912956,0.08761244267225266
1768416583665249800,3.126249755859375,-0.0889771357178688,-0.04565928131341934,0.08619317412376404
1768416583675252000,3.136251953125,-0.07543815672397614,-0.049823399633169174,0.0862584263086319
1768416583685252900,3.1462529296875,-0.05593568831682205,-0.05641349032521248,0.08053190261125565
1768416583695253800,3.156253662109375,-0.03877054899930954,-0.06091396510601044,0.0736742615699768
1768416583705256000,3.166255859375,-0.022924868389964104,-0.0670137032866478,0.06521226465702057
1768416583715256800,3.1762568359375,-0.007454832084476948,-0.07288330793380737,0.05343044176697731
1768416583725258000,3.186258056640625,0.004370191600173712,-0.07511860132217407,0.034050025045871735
1768416583735260000,3.196260009765625,0.01592404954135418,-0.07292548567056656,0.011481868103146553
1768416583745261000,3.206260986328125,0.027988571673631668,-0.07646816223859787,-0.01410633698105812
1768416583755262000,3.216261962890625,0.03124268725514412,-0.08825638145208359,-0.04294198006391525
1768416583765262800,3.226262939453125,0.03748540207743645,-0.10210725665092468,-0.06842585653066635
1768416583775265000,3.23626513671875,0.041576020419597626,-0.12028812617063522,-0.0899876058101654
1768416583785266000,3.246265869140625,0.0457736998796463,-0.130625382065773,-0.10583621263504028
1768416583795266800,3.256266845703125,0.056976284831762314,-0.13443903625011444,-0.12259921431541443
1768416583805269000,3.26626904296875,0.0674639567732811,-0.1335267275571823,-0.1345202475786209
1768416583815270000,3.276269775390625,0.07993953675031662,-0.12356384843587875,-0.1484816074371338
1768416583825270800,3.286270751953125,0.09359581768512726,-0.11037040501832962,-0.16031241416931152
1768416583835272700,3.296272705078125,0.1058889701962471,-0.10650935769081116,-0.16877353191375732
1768416583845273900,3.30627392578125,0.11879803985357285,-0.09751063585281372,-0.1739870309829712
1768416583855275000,3.31627490234375,0.12704265117645264,-0.08640685677528381,-0.17850881814956665
1768416583865276000,3.32627587890625,0.1318487972021103,-0.07643844187259674,-0.18810123205184937
1768416583875278000,3.336278076171875,0.1333675980567932,-0.069471076130867,-0.19862337410449982
1768416583885279000,3.346279052734375,0.13350287079811096,-0.0733732059597969,-0.21207354962825775
1768416583895279900,3.35627978515625,0.13591782748699188,-0.07631520181894302,-0.2193375825881958
1768416583905281800,3.36628173828125,0.13971030712127686,-0.08610055595636368,-0.2303939014673233
1768416583915283000,3.376282958984375,0.1482611894607544,-0.09481894224882126,-0.23000188171863556
1768416583925283800,3.386283935546875,0.1565759927034378,-0.09546461701393127,-0.23723898828029633
1768416583935285800,3.39628564453125,0.16747763752937317,-0.09752030670642853,-0.2430577427148819
1768416583945287000,3.406286865234375,0.18445473909378052,-0.1012362390756607,-0.24048037827014923
1768416583955287800,3.416287841796875,0.19824299216270447,-0.10745232552289963,-0.24531401693820953
1768416583965289000,3.4262890625,0.2092609703540802,-0.10088902711868286,-0.25823459029197693
1768416583975291100,3.436291015625,0.22678695619106293,-0.08894501626491547,-0.2694507837295532
1768416583985292000,3.4462919921875,0.24681933224201202,-0.06489349901676178,-0.27360814809799194
1768416583995293000,3.45629296875,0.2623884379863739,-0.040854476392269135,-0.2767040729522705
1768416584005294800,3.466294921875,0.2736456096172333,-0.01782539114356041,-0.282868891954422
1768416584015296000,3.4762958984375,0.2841126322746277,0.0051771304570138454,-0.28668197989463806
1768416584025297000,3.486296875,0.28853902220726013,0.02773277834057808,-0.2900632619857788
1768416584035298800,3.496298828125,0.2901630103588104,0.045506712049245834,-0.2948460280895233
1768416584045300000,3.506300048828125,0.28704237937927246,0.046544209122657776,-0.30201980471611023
1768416584055300900,3.51630078125,0.28534621000289917,0.04227782413363457,-0.30538445711135864
1768416584065302000,3.526302001953125,0.2833801507949829,0.03233594819903374,-0.2985082268714905
1768416584075303700,3.5363037109375,0.27525243163108826,0.010947567410767078,-0.2719932794570923
1768416584085305000,3.54630517578125,0.25562816858291626,-0.01677616685628891,-0.246745765209198
1768416584095306000,3.556305908203125,0.22163480520248413,-0.05566604062914848,-0.22290779650211334
1768416584105308000,3.566307861328125,0.18859004974365234,-0.09722316265106201,-0.20199710130691528
1768416584115309000,3.57630908203125,0.15286746621131897,-0.11709993332624435,-0.18398401141166687
1768416584125310000,3.58631005859375,0.11894970387220383,-0.13339529931545258,-0.17336922883987427
1768416584135312000,3.596311767578125,0.07964038103818893,-0.14604052901268005,-0.16892895102500916
1768416584145312800,3.606312744140625,0.040574874728918076,-0.15546314418315887,-0.16350269317626953
1768416584155314000,3.61631396484375,0.014475096017122269,-0.1635461002588272,-0.15431052446365356
1768416584165314800,3.626314697265625,0.005229462869465351,-0.1573874056339264,-0.13452067971229553
1768416584175316700,3.636316650390625,0.024195164442062378,-0.12361904978752136,-0.11791986227035522
1768416584185318000,3.64631787109375,0.05142731964588165,-0.0614735446870327,-0.12499646097421646
1768416584195319000,3.656319091796875,0.08083207905292511,0.02240883745253086,-0.1347375065088272
1768416584205321000,3.666321044921875,0.09909696877002716,0.10377778857946396,-0.14660923182964325
1768416584215322000,3.676322021484375,0.1042613685131073,0.18913023173809052,-0.16206274926662445
1768416584225323000,3.686322998046875,0.09931287914514542,0.26790928840637207,-0.18610945343971252
1768416584235324000,3.696323974609375,0.08416961878538132,0.34918153285980225,-0.21304652094841003
1768416584245325800,3.706325927734375,0.055578988045454025,0.39918845891952515,-0.22919787466526031
1768416584255327000,3.716326904296875,0.01287866197526455,0.4037078320980072,-0.22905273735523224
1768416584265327900,3.726327880859375,-0.04871165752410889,0.3666207790374756,-0.21993368864059448
1768416584275329800,3.736329833984375,-0.12070382386445999,0.3195137083530426,-0.20160074532032013
1768416584285331000,3.7463310546875,-0.18327586352825165,0.2814110815525055,-0.19281254708766937
1768416584295331800,3.756331787109375,-0.19319400191307068,0.26294606924057007,-0.19439341127872467
1768416584305334000,3.766333984375,-0.1537032574415207,0.2635621726512909,-0.21009153127670288
1768416584315335000,3.7763349609375,-0.09193683415651321,0.27951982617378235,-0.24134932458400726
1768416584325336300,3.78633642578125,-0.019995853304862976,0.3129025101661682,-0.26766932010650635
1768416584335337200,3.796337158203125,0.037164635956287384,0.3337806463241577,-0.29788070917129517
1768416584345339100,3.806339111328125,0.0737968161702156,0.34439289569854736,-0.3222316801548004
1768416584355340300,3.81634033203125,0.0840664952993393,0.358502596616745,-0.3610645532608032
1768416584365341200,3.826341064453125,0.09075947850942612,0.3691166937351227,-0.41690731048583984
1768416584375343000,3.836343017578125,0.08702971786260605,0.37268081307411194,-0.4644937217235565
1768416584385344300,3.84634423828125,0.07187673449516296,0.3629592955112457,-0.46351301670074463
1768416584395345200,3.85634521484375,0.04768058657646179,0.3277411162853241,-0.4151255190372467
1768416584405347000,3.86634716796875,0.030351532623171806,0.27876511216163635,-0.3618147671222687
1768416584415348000,3.876347900390625,0.04094372317194939,0.22445552051067352,-0.3421182930469513
1768416584425349000,3.88634912109375,0.07948285341262817,0.17822016775608063,-0.33043837547302246
1768416584435350300,3.896350341796875,0.12644371390342712,0.1390479952096939,-0.30387282371520996
1768416584445352200,3.906352294921875,0.16794708371162415,0.11615649610757828,-0.27732595801353455
1768416584455353300,3.916353271484375,0.18878738582134247,0.1092972531914711,-0.26260560750961304
1768416584465354200,3.926354248046875,0.20398730039596558,0.12221170216798782,-0.2551688849925995
1768416584475356200,3.936356201171875,0.20909950137138367,0.13102038204669952,-0.24788008630275726
1768416584485357000,3.946357177734375,0.20908644795417786,0.14766541123390198,-0.23086300492286682
1768416584495358200,3.956358154296875,0.2026756852865219,0.16459086537361145,-0.2127537727355957
1768416584505359000,3.966359130859375,0.19330669939517975,0.1734638810157776,-0.1951720416545868
1768416584515361000,3.976361083984375,0.18163593113422394,0.19009877741336823,-0.18139497935771942
1768416584525362200,3.986362060546875,0.17187558114528656,0.20548850297927856,-0.1763390153646469
1768416584535363000,3.996363037109375,0.15711580216884613,0.2180120199918747,-0.16915301978588104
1768416584545365000,4.006364990234375,0.1431458741426468,0.235370934009552,-0.15450571477413177
1768416584555366100,4.0163662109375,0.12133217602968216,0.24951204657554626,-0.12291475385427475
1768416584565367300,4.0263671875,0.09996384382247925,0.2710779905319214,-0.08352258056402206
1768416584575369200,4.036369140625,0.08455798774957657,0.29833757877349854,-0.05096357315778732
1768416584585370000,4.0463701171875,0.08246566355228424,0.32877036929130554,-0.03893960267305374
1768416584595371300,4.056371337890625,0.0891597792506218,0.3727993369102478,-0.03363272547721863
1768416584605372200,4.0663720703125,0.08757847547531128,0.4026748239994049,-0.02598452940583229
1768416584615374000,4.0763740234375,0.06917310506105423,0.42771172523498535,-0.012447149492800236
1768416584625375000,4.086375,0.05467965453863144,0.45472943782806396,0.006588771939277649
1768416584635376000,4.096376220703125,0.047857433557510376,0.46796348690986633,0.021652676165103912
1768416584645378000,4.1063779296875,0.05159902945160866,0.4707801043987274,0.036182500422000885
1768416584655379000,4.11637890625,0.05979011207818985,0.4785589277744293,0.050618965178728104
1768416584665380400,4.12638037109375,0.06811688840389252,0.48619210720062256,0.0738673135638237
1768416584675382000,4.136382080078125,0.08035597950220108,0.5001547932624817,0.10124541074037552
1768416584685383200,4.146383056640625,0.07931748032569885,0.5015775561332703,0.128398135304451
1768416584695384300,4.15638427734375,0.06689942628145218,0.48100224137306213,0.15708330273628235
1768416584705385200,4.16638525390625,0.05042371153831482,0.46663743257522583,0.17973123490810394
1768416584715387100,4.17638720703125,0.02786567248404026,0.44511643052101135,0.18613161146640778
1768416584725388000,4.186387939453125,0.006231152452528477,0.4170600175857544,0.1914394348859787
1768416584735389200,4.19638916015625,-0.01071454118937254,0.3990890085697174,0.20471982657909393
1768416584745391000,4.20639111328125,-0.021717121824622154,0.3713690936565399,0.23094554245471954
1768416584755392000,4.21639208984375,-0.026184307411313057,0.35352563858032227,0.2626744210720062
1768416584765393200,4.22639306640625,-0.02185061015188694,0.3394143581390381,0.28836581110954285
1768416584775394300,4.236394287109375,-0.020800258964300156,0.3206755518913269,0.30136337876319885
1768416584785396200,4.246396240234375,-0.017473580315709114,0.3151109218597412,0.305665522813797
1768416584795397000,4.256397216796875,-0.015908973291516304,0.30251577496528625,0.30504631996154785
1768416584805398300,4.266398193359375,-0.017002137377858162,0.2771681547164917,0.2983890473842621
1768416584815400200,4.276400146484375,-0.01698642410337925,0.24923481047153473,0.2916240990161896
1768416584825401000,4.286401123046875,-0.012398522347211838,0.23292534053325653,0.28049543499946594
1768416584835402200,4.29640234375,-0.0003903282340615988,0.20210564136505127,0.2628922164440155
1768416584845404200,4.306404052734375,0.013866567984223366,0.16755719482898712,0.2407592087984085
1768416584855405000,4.316405029296875,0.0284471083432436,0.14652249217033386,0.21906857192516327
1768416584865406000,4.326406005859375,0.040722548961639404,0.12132079154253006,0.2108517587184906
1768416584875407000,4.336406982421875,0.052997324615716934,0.0921141654253006,0.2132057249546051
1768416584885409000,4.346408935546875,0.0482313297688961,0.06058648228645325,0.21903382241725922
1768416584895410200,4.35641015625,0.03257141262292862,0.0301180612295866,0.21330057084560394
1768416584905411300,4.366411376953125,0.010102588683366776,0.0030715293250977993,0.2009373903274536
1768416584915413200,4.376413330078125,-0.018965816125273705,-0.01348321232944727,0.18445907533168793
1768416584925414100,4.3864140625,-0.04275928810238838,-0.012284990400075912,0.17868095636367798
1768416584935415300,4.396415283203125,-0.06098010018467903,-0.0022992012090981007,0.1777307391166687
1768416584945416200,4.406416259765625,-0.07634688168764114,0.012615927495062351,0.17806075513362885
1768416584955418000,4.416418212890625,-0.09210293740034103,0.01380848977714777,0.18341024219989777
1768416584965419000,4.4264189453125,-0.11420844495296478,0.0023371404968202114,0.1920732706785202
1768416584975420200,4.436420166015625,-0.13851644098758698,-0.027294253930449486,0.2022619992494583
1768416584985422000,4.446422119140625,-0.15517926216125488,-0.054714277386665344,0.21211186051368713
1768416584995423000,4.456423095703125,-0.16778692603111267,-0.05464610084891319,0.22380633652210236
1768416585005424400,4.46642431640625,-0.16581504046916962,-0.04189131781458855,0.24000374972820282
1768416585015426000,4.476426025390625,-0.16324003040790558,-0.024191416800022125,0.2651626467704773
1768416585025427200,4.48642724609375,-0.17812436819076538,-0.018555663526058197,0.2771669328212738
1768416585035428000,4.496427978515625,-0.20573042333126068,0.002289963187649846,0.2625405788421631
1768416585045429200,4.50642919921875,-0.21983399987220764,0.010775748640298843,0.22789131104946136
1768416585055431200,4.51643115234375,-0.22612598538398743,-0.009538311511278152,0.1812087595462799
1768416585065432000,4.52643212890625,-0.23645806312561035,-0.05040368810296059,0.12913428246974945
1768416585075433200,4.53643310546875,-0.2703015208244324,-0.10719959437847137,0.07885805517435074
1768416585085435100,4.54643505859375,-0.3046981692314148,-0.12777963280677795,0.07390779256820679
1768416585095436000,4.55643603515625,-0.30795466899871826,-0.1471722275018692,0.10362014919519424
1768416585105437000,4.56643701171875,-0.288654625415802,-0.19132614135742188,0.13634584844112396
1768416585115438300,4.576438232421875,-0.2598956823348999,-0.3771625757217407,0.15956434607505798
1768416585125440000,4.58643994140625,-0.20352886617183685,-0.5511640310287476,0.18221312761306763
1768416585135441200,4.596441162109375,-0.15361323952674866,-0.8552277684211731,0.20058467984199524
1768416585145442300,4.6064423828125,-0.17582200467586517,-0.947175145149231,0.1481952965259552
1768416585155444200,4.6164443359375,-0.15635375678539276,-1.0699833631515503,-0.046555276960134506
1768416585165445000,4.626445068359375,-0.17874175310134888,-1.184829831123352,-0.34568944573402405
1768416585175446000,4.636446044921875,-0.23071147501468658,-1.213426947593689,-0.6161798238754272
1768416585185448200,4.6464482421875,-0.24600529670715332,-1.3108793497085571,-0.7927727103233337
1768416585195449000,4.656448974609375,-0.19127680361270905,-1.4111324548721313,-0.8723133206367493
1768416585205450000,4.666449951171875,-0.11669071018695831,-1.385321021080017,-0.8772710561752319
1768416585215451100,4.676451171875,-0.04278452694416046,-1.344310998916626,-0.8945096731185913
1768416585225453000,4.686453125,0.030158529058098793,-1.3089853525161743,-0.9620308876037598
1768416585235454200,4.6964541015625,0.12609757483005524,-1.293611764907837,-1.00640070438385
1768416585245455400,4.706455322265625,0.21556568145751953,-1.2551190853118896,-0.9918157458305359
1768416585255457300,4.716457275390625,0.2644250988960266,-1.2195183038711548,-0.9971846342086792
1768416585265458200,4.726458251953125,0.2863712012767792,-1.1934350728988647,-1.0127370357513428
1768416585275459000,4.736458984375,0.2966001331806183,-1.1684530973434448,-1.0222262144088745
1768416585285460200,4.746460205078125,0.3509142994880676,-1.0804170370101929,-1.0099661350250244
1768416585295462100,4.756462158203125,0.3973342776298523,-0.9365421533584595,-0.9362730979919434
1768416585305463000,4.766463134765625,0.5121366381645203,-0.7637395262718201,-0.7918221354484558
1768416585315464000,4.7764638671875,0.5876420140266418,-0.6137524247169495,-0.7027537822723389
1768416585325466000,4.786466064453125,0.6124765872955322,-0.4986098110675812,-0.6556302309036255
1768416585335467000,4.796467041015625,0.5792906880378723,-0.37019458413124084,-0.6380717754364014
1768416585345468200,4.80646826171875,0.5035209059715271,-0.2335052192211151,-0.6601682305335999
1768416585355469000,4.816468994140625,0.3844139277935028,-0.10231710970401764,-0.6981329321861267
1768416585365471200,4.82647119140625,0.2512052059173584,0.02485763095319271,-0.72834312915802
1768416585375472000,4.83647216796875,0.16247029602527618,0.08415450900793076,-0.7278187870979309
1768416585385473000,4.84647314453125,0.12797297537326813,0.08764480799436569,-0.6911453604698181
1768416585395475200,4.85647509765625,0.15443681180477142,0.13823288679122925,-0.5999709963798523
1768416585405476000,4.86647607421875,0.24934206902980804,0.21773536503314972,-0.4849855899810791
1768416585415477000,4.87647705078125,0.3653022348880768,0.3292842507362366,-0.3597184717655182
1768416585425479200,4.886479248046875,0.43055373430252075,0.4079034626483917,-0.25799694657325745
1768416585435480000,4.89647998046875,0.4376752972602844,0.44609081745147705,-0.18885304033756256
1768416585445481000,4.90648095703125,0.36343276500701904,0.4575745761394501,-0.11385931819677353
1768416585455482000,4.916482177734375,0.3890744745731354,0.39573943614959717,0.017365282401442528
1768416585465484000,4.926484130859375,0.35834959149360657,0.2598642110824585,0.1688380390405655
1768416585475485200,4.936485107421875,0.3293275237083435,0.12839250266551971,0.2817331552505493
1768416585485486000,4.946486083984375,0.35430529713630676,0.012354526668787003,0.3333533704280853
1768416585495488300,4.95648828125,0.5055792331695557,-0.10296674072742462,0.36927488446235657
1768416585505489200,4.9664892578125,0.7093756198883057,-0.08593045920133591,0.15434348583221436
1768416585515490000,4.976489990234375,0.8166171312332153,-0.19000600278377533,-0.08783799409866333
1768416585525491000,4.986490966796875,0.8858970999717712,-0.25422438979148865,-0.34034088253974915
1768416585535493000,4.9964931640625,1.0298430919647217,-0.2507798373699188,-0.5983165502548218
1768416585545494000,5.006493896484375,1.2268030643463135,-0.21071720123291016,-0.7865646481513977
1768416585555495000,5.016494873046875,1.3424949645996094,-0.35588985681533813,-0.8728997707366943
1768416585565497000,5.0264970703125,1.382653832435608,-0.518491268157959,-0.8879950642585754
1768416585575498000,5.036498046875,1.4809253215789795,-0.5682271718978882,-0.7903105616569519
1768416585585499100,5.0464990234375,1.6210423707962036,-0.4960061013698578,-0.7039141654968262
1768416585595501300,5.056501220703125,1.7307512760162354,-0.4286361038684845,-0.6893424391746521
1768416585605502200,5.066502197265625,1.697522759437561,-0.35379233956336975,-0.8917123675346375
1768416585615503000,5.076503173828125,1.5007870197296143,-0.19771964848041534,-1.1910895109176636
1768416585625504000,5.08650390625,1.2472527027130127,-0.07391630113124847,-1.433593511581421
1768416585635506200,5.096506103515625,1.056759238243103,-0.12326041609048843,-1.6099259853363037
1768416585645507000,5.106507080078125,0.9957518577575684,-0.003212737152352929,-1.6236114501953125
1768416585655508000,5.116508056640625,1.145499587059021,0.4321097135543823,-1.5709607601165771
1768416585665510100,5.12651025390625,1.419130802154541,0.8485478758811951,-1.552638053894043
1768416585675511000,5.136510986328125,1.6345291137695312,1.076531171798706,-1.6478255987167358
1768416585685512200,5.14651220703125,1.6270345449447632,1.0692722797393799,-1.7278532981872559
1768416585695513900,5.156513916015625,1.325087547302246,0.8708785772323608,-1.7504661083221436
1768416585705515300,5.166515380859375,0.899418830871582,0.6443443298339844,-1.9171773195266724
1768416585715516200,5.17651611328125,0.5570337772369385,0.3878616690635681,-2.3465659618377686
1768416585725517000,5.18651708984375,0.6180300712585449,0.40725812315940857,-2.7549099922180176
1768416585735519200,5.196519287109375,0.9256896376609802,0.5146186351776123,-3.017760753631592
1768416585745520000,5.20652001953125,1.1434118747711182,0.5797839164733887,-3.1013081073760986
1768416585755521000,5.21652099609375,1.1990898847579956,0.6770625114440918,-3.26029634475708
1768416585765523000,5.22652294921875,1.1941020488739014,0.8637142181396484,-3.5916123390197754
1768416585775524000,5.236524169921875,1.185454249382019,1.1168100833892822,-3.8009846210479736
1768416585785525000,5.24652490234375,1.1340759992599487,1.224912166595459,-3.699828624725342
1768416585795526100,5.256526123046875,0.9737064838409424,1.0229324102401733,-3.3704943656921387
1768416585805528000,5.266528076171875,0.8467822074890137,0.8502180576324463,-3.208246946334839
1768416585815529200,5.276529296875,1.0241559743881226,1.0717356204986572,-1.971193790435791
1768416585825530000,5.286530029296875,1.0635679960250854,1.8979368209838867,-1.0900051593780518
1768416585835532000,5.296531982421875,1.0638734102249146,1.9725090265274048,-2.117734909057617
1768416585845533200,5.306533203125,1.1597179174423218,1.5187205076217651,-3.3241443634033203
1768416585855534000,5.3165341796875,0.8576624393463135,1.7688558101654053,-4.0449419021606445
1768416585865536000,5.326535888671875,0.23194663226604462,2.657121181488037,-4.149295330047607
1768416585875537200,5.336537109375,-0.32833316922187805,3.191169500350952,-3.9927268028259277
1768416585885538000,5.3465380859375,-0.6144729256629944,3.386260747909546,-4.0611395835876465
1768416585895539000,5.3565390625,-0.7071200609207153,3.078800678253174,-4.5156354904174805
1768416585905541000,5.366541015625,-0.7228697538375854,2.7003822326660156,-5.137185096740723
1768416585915542000,5.3765419921875,-1.096339464187622,2.035587787628174,-5.017871856689453
1768416585925543200,5.386543212890625,-1.6583843231201172,1.476760745048523,-4.299569606781006
1768416585935545000,5.396545166015625,-1.6081056594848633,2.33626389503479,-4.429269313812256
1768416585945546200,5.406546142578125,-0.7902004718780518,3.102969169616699,-4.869424343109131
1768416585955547100,5.416547119140625,0.09768009930849075,4.546976089477539,-3.7218916416168213
1768416585965548000,5.426548095703125,-0.8493069410324097,6.341460227966309,-2.2902560234069824
1768416585975550200,5.43655029296875,-2.1375889778137207,4.622329235076904,-2.1031949520111084
1768416585985551000,5.446551025390625,-2.4911904335021973,2.27497935295105,-2.4968478679656982
1768416585995552000,5.456552001953125,-1.9024171829223633,2.458343982696533,-2.9869508743286133
1768416586005554000,5.466553955078125,-1.031844139099121,4.5812225341796875,-2.6329891681671143
1768416586015555000,5.47655517578125,-0.8694190382957458,4.101457595825195,-0.8525466322898865
1768416586025556000,5.486555908203125,-1.513178825378418,2.434570789337158,0.055079758167266846
1768416586035558000,5.496557861328125,-2.2835347652435303,1.9620901346206665,0.04973612725734711
1768416586045559000,5.50655908203125,-2.502868175506592,2.4174537658691406,0.2742549479007721
1768416586055560200,5.516560302734375,-2.335207939147949,2.213801860809326,0.5670625567436218
1768416586065561000,5.52656103515625,-1.9601305723190308,1.3047574758529663,0.4739759564399719
1768416586075563000,5.53656298828125,-1.455093264579773,0.6924815773963928,0.23586967587471008
1768416586085564200,5.546564208984375,-1.0243698358535767,0.6890044212341309,0.07785891741514206
1768416586095565000,5.55656494140625,-0.7082455158233643,1.099771499633789,-0.01293596625328064
1768416586105567000,5.56656689453125,-0.523455023765564,1.4340137243270874,-0.021652162075042725
1768416586115568000,5.576568115234375,-0.5370624661445618,1.322280764579773,-0.08162868022918701
1768416586125569000,5.586569091796875,-0.7314600348472595,0.9021517634391785,-0.004735250491648912
1768416586135571000,5.596571044921875,-0.9891853332519531,0.48296594619750977,0.07789411395788193
1768416586145571800,5.60657177734375,-1.0832889080047607,0.15343891084194183,0.03725401312112808
1768416586155573200,5.6165732421875,-0.9886454939842224,0.09742198884487152,0.05070111155509949
1768416586165574100,5.62657421875,-0.8046917915344238,0.1805724799633026,0.09402651339769363
1768416586175576000,5.636576171875,-0.6441740393638611,0.2091202288866043,0.11053145676851273
1768416586185577200,5.6465771484375,-0.551074206829071,0.18692204356193542,0.09975425899028778
1768416586195578000,5.656578125,-0.5072617530822754,0.15107083320617676,0.05906249210238457
1768416586205580000,5.666580078125,-0.46665486693382263,0.03369849920272827,0.05718104541301727
1768416586215581200,5.676581298828125,-0.4547574520111084,-0.012184838764369488,0.11360384523868561
1768416586225582000,5.68658203125,-0.4983939528465271,0.12095746397972107,0.18926137685775757
1768416586235584000,5.696583984375,-0.533071756362915,0.11287769675254822,0.2416345775127411
1768416586245585000,5.7065849609375,-0.5174157619476318,-0.018848421052098274,0.24112194776535034
1768416586255586000,5.7165859375,-0.4722975492477417,-0.16850422322750092,0.2507149279117584
1768416586265587200,5.726587158203125,-0.43127015233039856,-0.1908554583787918,0.2826269268989563
1768416586275588900,5.7365888671875,-0.3858177065849304,-0.1170898899435997,0.31301599740982056
1768416586285590300,5.74659033203125,-0.3938843011856079,0.048480335623025894,0.341203510761261
1768416586295591200,5.756591064453125,-0.46720993518829346,0.2418186366558075,0.35577499866485596
1768416586305593000,5.766593017578125,-0.5554128885269165,0.2852745056152344,0.31062185764312744
1768416586315593700,5.77659375,-0.626442551612854,0.13800859451293945,0.2283770740032196
1768416586325594600,5.7865947265625,-0.6477680802345276,-0.06545832008123398,0.14256638288497925
1768416586335596500,5.796596435546875,-0.6282897591590881,-0.2506433427333832,0.10208206623792648
1768416586345597700,5.80659765625,-0.5964831113815308,-0.41018280386924744,0.10290476679801941
1768416586355598600,5.8165986328125,-0.573078453540802,-0.49771663546562195,0.13064716756343842
1768416586365599700,5.826599853515625,-0.5519798398017883,-0.4708617329597473,0.1372600644826889
1768416586375601700,5.8366015625,-0.5259564518928528,-0.3790833353996277,0.08363252878189087
1768416586385602800,5.846602783203125,-0.5146317481994629,-0.36006808280944824,-0.012614358216524124
1768416586395603700,5.856603759765625,-0.5492368936538696,-0.4313603639602661,-0.0947616919875145
1768416586405605600,5.866605712890625,-0.5851455330848694,-0.5244735479354858,-0.123478963971138
1768416586415606800,5.876606689453125,-0.5681095719337463,-0.5706474184989929,-0.096028171479702
1768416586425607700,5.886607666015625,-0.4999832510948181,-0.57368403673172,-0.05603139102458954
1768416586435609600,5.896609619140625,-0.4114168882369995,-0.5829529166221619,-0.02054876834154129
1768416586445610800,5.90661083984375,-0.32070204615592957,-0.5780521631240845,-0.002517011947929859
1768416586455611600,5.916611572265625,-0.24463948607444763,-0.5332833528518677,-0.015355844981968403
1768416586465613600,5.926613525390625,-0.20134276151657104,-0.46792420744895935,-0.04116696119308472
1768416586475614500,5.936614501953125,-0.184274822473526,-0.43543869256973267,-0.05026485025882721
1768416586485615600,5.94661572265625,-0.17668621242046356,-0.4105393588542938,-0.02698899246752262
1768416586495616800,5.95661669921875,-0.14650194346904755,-0.39147618412971497,0.00014249421656131744
1768416586505618700,5.96661865234375,-0.11243751645088196,-0.3829098641872406,0.021548595279455185
1768416586515619800,5.976619873046875,-0.07825744152069092,-0.38541242480278015,0.05008942633867264
1768416586525620700,5.986620849609375,-0.04354893043637276,-0.38387802243232727,0.07713373005390167
1768416586535622700,5.99662255859375,-0.01155371405184269,-0.3524301052093506,0.09545920789241791
1768416586545623600,6.00662353515625,0.025846589356660843,-0.32229354977607727,0.09341897070407867
1768416586555624700,6.016624755859375,0.06120457872748375,-0.30170172452926636,0.08614639937877655
1768416586565626600,6.026626708984375,0.07999724894762039,-0.2732403874397278,0.10136756300926208
1768416586575627500,6.03662744140625,0.09267202764749527,-0.25201180577278137,0.13464295864105225
1768416586585628700,6.046628662109375,0.10110046714544296,-0.2318224310874939,0.16565977036952972
1768416586595629600,6.056629638671875,0.11591216921806335,-0.19429849088191986,0.18207070231437683
1768416586605631500,6.066631591796875,0.139211967587471,-0.14667221903800964,0.19312170147895813
1768416586615632600,6.076632568359375,0.16439960896968842,-0.1125752255320549,0.20381934940814972
1768416586625633800,6.0866337890625,0.19385205209255219,-0.08757917582988739,0.20102280378341675
1768416586635635700,6.0966357421875,0.2186812311410904,-0.052476052194833755,0.1884249895811081
1768416586645636600,6.10663671875,0.23700344562530518,-0.0194875355809927,0.18368244171142578
1768416586655637800,6.1166376953125,0.24451835453510284,0.01677699387073517,0.19026604294776917
1768416586665639700,6.1266396484375,0.24637264013290405,0.05677619203925133,0.20707547664642334
1768416586675640600,6.136640625,0.24815243482589722,0.08479717373847961,0.23558010160923004
1768416586685641700,6.146641845703125,0.253288209438324,0.1067918986082077,0.26596853137016296
1768416586695642600,6.156642578125,0.2535281479358673,0.12540553510189056,0.28560107946395874
1768416586705644500,6.16664453125,0.24426327645778656,0.1338767111301422,0.30151253938674927
1768416586715645400,6.1766455078125,0.2295767366886139,0.14724524319171906,0.3021058738231659
1768416586725646800,6.186646728515625,0.21409699320793152,0.16657745838165283,0.294780433177948
1768416586735648500,6.1966484375,0.19243963062763214,0.16891756653785706,0.2903449535369873
1768416586745649700,6.206649658203125,0.18302129209041595,0.17255933582782745,0.2875746488571167
1768416586755650800,6.21665087890625,0.18507778644561768,0.1898094266653061,0.27508121728897095
1768416586765652700,6.22665283203125,0.18849296867847443,0.19898255169391632,0.26686468720436096
1768416586775653600,6.236653564453125,0.1850028932094574,0.18131008744239807,0.24362406134605408
1768416586785654500,6.246654541015625,0.1733454316854477,0.17629846930503845,0.21281461417675018
1768416586795655700,6.25665576171875,0.14102743566036224,0.17501401901245117,0.20657803118228912
1768416586805657600,6.26665771484375,0.08614335209131241,0.1546560823917389,0.20254942774772644
1768416586815658500,6.276658447265625,0.03133869171142578,0.11881418526172638,0.17444828152656555
1768416586825659600,6.28665966796875,-0.009040222503244877,0.11131338030099869,0.13325193524360657
1768416586835661600,6.29666162109375,-0.04013422504067421,0.15945827960968018,0.09680205583572388
1768416586845662700,6.306662841796875,-0.06928704679012299,0.24514314532279968,0.059768807142972946
1768416586855663600,6.31666357421875,-0.09569575637578964,0.33883634209632874,0.018047459423542023
1768416586865665800,6.326665771484375,-0.11078182607889175,0.37903469800949097,-0.014900937676429749
1768416586875666700,6.336666748046875,-0.13365626335144043,0.2962937355041504,-0.004984657280147076
1768416586885667600,6.34666748046875,-0.16229142248630524,0.15898506343364716,0.07181102782487869
1768416586895669800,6.356669677734375,-0.14868612587451935,0.07193990796804428,0.14443862438201904
1768416586905670700,6.366670654296875,-0.0705828070640564,0.033415310084819794,0.14205992221832275
1768416586915671600,6.376671630859375,0.03221680596470833,0.028207765892148018,0.06988746672868729
1768416586925672400,6.38667236328125,0.1005258858203888,0.041125357151031494,0.014004746451973915
1768416586935674600,6.396674560546875,0.11703348904848099,0.05560283362865448,-0.013995196670293808
1768416586945675500,6.406675537109375,0.10171032696962357,0.08547429740428925,-0.026477985084056854
1768416586955676700,6.4166767578125,0.0691172331571579,0.1464444398880005,-0.038932256400585175
1768416586965678600,6.4266787109375,0.02603607252240181,0.11370906978845596,-0.004800521768629551
1768416586975679700,6.4366796875,-0.0065538277849555016,0.009978942573070526,0.07582854479551315
1768416586985680600,6.4466806640625,-0.004748331382870674,-0.08322495967149734,0.10648062825202942
1768416586995682800,6.456682861328125,0.04943554475903511,-0.12673701345920563,0.08441393077373505
1768416587005683700,6.46668359375,0.12273532152175903,-0.10501527041196823,0.05943361669778824
1768416587015684600,6.4766845703125,0.19306275248527527,-0.07167436182498932,0.051832422614097595
1768416587025685500,6.486685546875,0.24672643840312958,-0.024433808401226997,0.08884318172931671
1768416587035687700,6.496687744140625,0.28081223368644714,0.019975733011960983,0.14830970764160156
1768416587045688600,6.5066884765625,0.2824406325817108,0.04514952003955841,0.20062774419784546
1768416587055689500,6.516689453125,0.24309615790843964,-0.055189333856105804,0.22229470312595367
1768416587065691600,6.526691650390625,0.20880018174648285,-0.21482054889202118,0.1769191026687622
1768416587075692500,6.536692626953125,0.2026703804731369,-0.25432878732681274,0.07230880856513977
1768416587085693700,6.546693603515625,0.21204182505607605,-0.15468920767307281,-0.03159066662192345
1768416587095695600,6.556695556640625,0.2286738008260727,-0.018585963174700737,-0.0745738223195076
1768416587105696800,6.56669677734375,0.2165706604719162,0.05138823017477989,-0.02465679496526718
1768416587115697700,6.57669775390625,0.15030376613140106,0.03073541447520256,0.011349143460392952
1768416587125698600,6.586698486328125,0.06220199912786484,-0.08187123388051987,0.012607332319021225
1768416587135700700,6.59670068359375,-0.03193594887852669,-0.23063062131404877,0.00914575532078743
1768416587145701600,6.60670166015625,-0.10747656971216202,-0.366856187582016,0.028947392478585243
1768416587155702500,6.61670263671875,-0.14635366201400757,-0.46939322352409363,0.06665296107530594
1768416587165704700,6.62670458984375,-0.13368932902812958,-0.4872669279575348,0.1293632686138153
1768416587175705600,6.63670556640625,-0.038847777992486954,-0.4027267396450043,0.17493315041065216
1768416587185706500,6.64670654296875,0.10652153193950653,-0.23089155554771423,0.10563275218009949
1768416587195708700,6.656708740234375,0.1252337098121643,-0.37714648246765137,0.0678185224533081
1768416587205709600,6.66670947265625,0.15325568616390228,-0.3986097276210785,0.21133024990558624
1768416587215710700,6.676710693359375,0.17393192648887634,-0.32310378551483154,0.1490631401538849
1768416587225711600,6.686711669921875,0.15615984797477722,-0.18243378400802612,0.01932530105113983
1768416587235713800,6.6967138671875,0.16589531302452087,-0.09374706447124481,0.07808342576026917
1768416587245714700,6.706714599609375,0.16942040622234344,-0.10744177550077438,0.15951767563819885
1768416587255715600,6.716715576171875,0.08969520777463913,-0.13198360800743103,0.1847950667142868
1768416587265717800,6.7267177734375,-0.035186462104320526,-0.17681147158145905,0.12184245884418488
1768416587275718700,6.73671875,-0.13418547809123993,-0.2263377457857132,0.013270173221826553
1768416587285719600,6.746719482421875,-0.2001418024301529,-0.20836573839187622,-0.03936056047677994
1768416587295720700,6.756720703125,-0.21927368640899658,-0.251564621925354,-0.10544317215681076
1768416587305722600,6.76672265625,-0.23924659192562103,-0.08943444490432739,-0.020913954824209213
1768416587315724000,6.77672412109375,-0.10071773827075958,0.0016746849287301302,-0.08827302604913712
1768416587325725200,6.78672509765625,-0.01848585344851017,0.004050057847052813,-0.2624049186706543
1768416587335727000,6.79672705078125,-0.07343991845846176,0.1679210215806961,-0.3360743522644043
1768416587345728000,6.80672802734375,-0.15507285296916962,0.273812472820282,-0.39731529355049133
1768416587355729200,6.816729248046875,-0.18079499900341034,0.18593239784240723,-0.450350821018219
1768416587365731000,6.82673095703125,-0.16252797842025757,0.08945854753255844,-0.5303109884262085
1768416587375732000,6.83673193359375,-0.10988820344209671,0.07860243320465088,-0.5865985155105591
1768416587385733000,6.846733154296875,-0.05172343924641609,0.09635286778211594,-0.5799468755722046
1768416587395735000,6.856735107421875,-0.018035249784588814,0.0977315902709961,-0.5513455867767334
1768416587405736000,6.86673583984375,-0.028555795550346375,0.08701398968696594,-0.5566912889480591
1768416587415736800,6.87673681640625,-0.05722019821405411,0.045978132635354996,-0.5709309577941895
1768416587425738000,6.886738037109375,-0.0834406241774559,0.016509391367435455,-0.5689936280250549
1768416587435740000,6.896739990234375,-0.08666197955608368,0.04337882250547409,-0.5373121500015259
1768416587445741000,6.906740966796875,-0.08730167150497437,0.09823562949895859,-0.47822919487953186
1768416587455742200,6.9167421875,-0.09691354632377625,0.12930460274219513,-0.4053347408771515
1768416587465744100,6.926744140625,-0.11789373308420181,0.15769021213054657,-0.33500203490257263
1768416587475745000,6.9367451171875,-0.1499352902173996,0.19231344759464264,-0.29691481590270996
1768416587485746000,6.946745849609375,-0.18611939251422882,0.20653951168060303,-0.291862815618515
1768416587495748000,6.956748046875,-0.2091408222913742,0.2001471370458603,-0.29217228293418884
1768416587505749000,6.9667490234375,-0.205275297164917,0.18518424034118652,-0.2746816873550415
1768416587515750000,6.97675,-0.16306179761886597,0.1663154661655426,-0.21310487389564514
1768416587525751000,6.9867509765625,-0.09580207616090775,0.11603439599275589,-0.13659906387329102
1768416587535753000,6.9967529296875,-0.041709817945957184,0.05352254956960678,-0.05844965577125549
1768416587545753900,7.00675390625,-0.007948389276862144,0.010239521972835064,-0.000779434572905302
1768416587555755300,7.01675537109375,-0.013859008438885212,-0.025762153789401054,0.028728390112519264
1768416587565757000,7.0267568359375,-0.04691256955265999,-0.018002303317189217,0.11004868149757385
1768416587575758000,7.036758056640625,-0.03295254707336426,-0.04042452201247215,0.17627696692943573
1768416587585759000,7.046759033203125,-0.024530425667762756,-0.010677045211195946,0.2246372401714325
1768416587595760000,7.056760009765625,-0.040109120309352875,0.09243389219045639,0.2571618854999542
1768416587605762000,7.066761962890625,-0.055364638566970825,0.15584374964237213,0.2680746912956238
1768416587615763000,7.076762939453125,-0.06088510528206825,0.12785471975803375,0.2634139060974121
1768416587625764000,7.08676416015625,-0.05953341722488403,0.10323221236467361,0.22237782180309296
1768416587635766000,7.09676611328125,-0.04514382407069206,0.05972335487604141,0.19267931580543518
1768416587645767000,7.106766845703125,-0.020320704206824303,0.01598549820482731,0.16996382176876068
1768416587655767800,7.116767822265625,0.012071855366230011,-0.012935899198055267,0.1405060738325119
1768416587665770000,7.12677001953125,0.05488657206296921,0.0035375826992094517,0.12280716001987457
1768416587675771000,7.13677099609375,0.09076734632253647,0.07044577598571777,0.10156126320362091
1768416587685772000,7.14677197265625,0.10003973543643951,0.1319030076265335,0.05931699275970459
1768416587695773200,7.156773193359375,0.08655188977718353,0.16838112473487854,0.01737433671951294
1768416587705775000,7.166775146484375,0.05473816767334938,0.18788479268550873,-0.02203749306499958
1768416587715776000,7.17677587890625,0.018200397491455078,0.2099730521440506,-0.06436870992183685
1768416587725777000,7.18677685546875,-0.012419765815138817,0.24930155277252197,-0.11448528617620468
1768416587735779000,7.196779052734375,-0.039430342614650726,0.27756112813949585,-0.16721214354038239
1768416587745780000,7.206780029296875,-0.062199581414461136,0.27175894379615784,-0.19573508203029633
1768416587755780900,7.21678076171875,-0.06957466900348663,0.23656685650348663,-0.1989995837211609
1768416587765782000,7.226781982421875,-0.07367527484893799,0.20172736048698425,-0.1879960149526596
1768416587775784000,7.236783935546875,-0.06018529459834099,0.16500982642173767,-0.19491755962371826
1768416587785784800,7.246784912109375,-0.02696855366230011,0.12020751088857651,-0.1938169151544571
1768416587795786200,7.2567861328125,0.0031254333443939686,0.08000416308641434,-0.18152615427970886
1768416587805788200,7.2667880859375,-0.00048268353566527367,0.051096245646476746,-0.18688583374023438
1768416587815789000,7.2767890625,-0.009323579259216785,0.019482126459479332,-0.18789277970790863
1768416587825790000,7.2867900390625,-0.020167961716651917,0.005901093129068613,-0.16873182356357574
1768416587835792100,7.296792236328125,-0.03614852577447891,0.0007255063392221928,-0.13072851300239563
1768416587845793000,7.30679296875,-0.05567769333720207,0.0038810139521956444,-0.08243849873542786
1768416587855794000,7.3167939453125,-0.07116051763296127,0.019331876188516617,-0.04822912812232971
1768416587865795000,7.326795166015625,-0.08344653248786926,0.02239367365837097,-0.03831998258829117
1768416587875797000,7.336796875,-0.08276929706335068,0.022177690640091896,-0.04042574763298035
1768416587885798000,7.3467978515625,-0.07344962656497955,0.005286108702421188,-0.04654891788959503
1768416587895799000,7.356799072265625,-0.06282707303762436,-0.03430124744772911,-0.0349990539252758
1768416587905801000,7.366801025390625,-0.045023851096630096,-0.06081126630306244,-0.013722484931349754
1768416587915802000,7.376802001953125,-0.04041524976491928,-0.0675157681107521,0.004124688915908337
1768416587925803000,7.386802978515625,-0.050439245998859406,-0.07393652945756912,0.008921023458242416
1768416587935805200,7.39680517578125,-0.05462866649031639,-0.06302475929260254,0.018017848953604698
1768416587945806000,7.40680615234375,-0.04497724771499634,-0.05274461582303047,0.04549383372068405
1768416587955807000,7.416806884765625,-0.0282113179564476,-0.05809277668595314,0.06040247529745102
1768416587965807900,7.426807861328125,-0.02471006102859974,-0.06677813827991486,0.06819088757038116
1768416587975810000,7.43681005859375,-0.02645469643175602,-0.06980215758085251,0.056094810366630554
1768416587985811000,7.44681103515625,-0.02908356301486492,-0.08749373257160187,0.03162303566932678
1768416587995811800,7.456811767578125,-0.025505073368549347,-0.08711370080709457,0.010539324022829533
1768416588005814000,7.46681396484375,-0.019296780228614807,-0.09956899285316467,0.011764077469706535
1768416588015815000,7.47681494140625,-0.008760250173509121,-0.11556579917669296,0.023201556876301765
1768416588025816000,7.486816162109375,-0.00010517961345613003,-0.10231615602970123,0.03421389311552048
1768416588035817000,7.49681689453125,0.01083988044410944,-0.0921519324183464,0.05295882001519203
1768416588045819100,7.506819091796875,0.018909860402345657,-0.09322991967201233,0.06735026836395264
1768416588055820000,7.516820068359375,0.020810026675462723,-0.0917915478348732,0.06867146492004395
1768416588065821000,7.526821044921875,0.019780585542321205,-0.08285397291183472,0.05965588241815567
1768416588075823000,7.536822998046875,0.011723191477358341,-0.055462293326854706,0.038507454097270966
1768416588085824000,7.546823974609375,0.007642430253326893,-0.03443983197212219,0.02312769927084446
1768416588095825000,7.556824951171875,0.003683108603581786,-0.019182847812771797,0.024410277605056763
1768416588105827000,7.5668271484375,-0.0026463628746569157,-0.007237511686980724,0.02565569244325161
1768416588115828000,7.576827880859375,-0.011435326188802719,-0.009600267745554447,0.034409768879413605
1768416588125828900,7.586828857421875,-0.009831170551478863,-0.019910108298063278,0.04763780161738396
1768416588135830000,7.596830078125,-0.004478217102587223,-0.0072323959320783615,0.05312684178352356
1768416588145832000,7.60683203125,0.001347774756141007,0.0002548538614064455,0.04737569019198418
1768416588155833000,7.6168330078125,0.008163869380950928,-0.008906153962016106,0.027868300676345825
1768416588165834000,7.626833984375,0.009704315103590488,-0.012706201523542404,0.007244683802127838
1768416588175836200,7.636836181640625,0.0014301403425633907,-0.005454148165881634,-0.006985118146985769
1768416588185837000,7.646837158203125,-0.008091659285128117,0.012624559924006462,-0.005449728574603796
1768416588195838000,7.656837890625,-0.013393746688961983,0.021913133561611176,0.01798262633383274
1768416588205840100,7.666840087890625,-0.015275802463293076,0.023717157542705536,0.037818118929862976
1768416588215841000,7.676841064453125,-0.010708748362958431,0.019208693876862526,0.03819895163178444
1768416588225842000,7.686842041015625,-0.005132430233061314,0.011820690706372261,0.027628738433122635
1768416588235842800,7.6968427734375,0.0015529030933976173,-0.0003736575599759817,0.013426098972558975
1768416588245845000,7.706844970703125,0.0040643298998475075,-0.009142542257905006,0.002284842077642679
1768416588255846100,7.71684619140625,0.0020246151834726334,-0.009063180536031723,-0.004515539389103651
1768416588265847000,7.726846923828125,-0.0056044673547148705,-0.022769011557102203,-0.002686088904738426
1768416588275849200,7.73684912109375,-0.009323571808636189,-0.03201577439904213,0.00717373238876462
1768416588285850000,7.74685009765625,-0.017324376851320267,-0.02328849397599697,0.008662903681397438
1768416588295851000,7.75685107421875,-0.023391058668494225,-0.013253970071673393,-0.002494675572961569
1768416588305852000,7.766851806640625,-0.023144647479057312,-0.014431136660277843,-0.00997972209006548
1768416588315854000,7.77685400390625,-0.019975485280156136,-0.0185965858399868,-0.002328460570424795
1768416588325855200,7.786855224609375,-0.017786704003810883,-0.018358295783400536,-0.008201519027352333
1768416588335856000,7.796856201171875,-0.014019129797816277,-0.025315269827842712,-0.02075166627764702
1768416588345858000,7.806858154296875,-0.015425662510097027,-0.027022700756788254,-0.029117602854967117
1768416588355859000,7.81685888671875,-0.020124277099967003,-0.02145669423043728,-0.031204987317323685
1768416588365860000,7.826860107421875,-0.02376115880906582,-0.02429184503853321,-0.020332399755716324
1768416588375861200,7.836861328125,-0.024173149839043617,-0.03488963097333908,-0.008904777467250824
1768416588385863200,7.84686328125,-0.021907206624746323,-0.04031902924180031,-0.00742355128750205
1768416588395864300,7.8568642578125,-0.01623227633535862,-0.05206356942653656,0.0008450306486338377
1768416588405865200,7.866865234375,-0.009773649275302887,-0.058924466371536255,0.0050749387592077255
1768416588415867100,7.8768671875,-0.009540621191263199,-0.056805387139320374,-0.002771532628685236
1768416588425868000,7.886867919921875,-0.013345670886337757,-0.06112927943468094,-0.00518764927983284
1768416588435869200,7.896869140625,-0.020955920219421387,-0.05874015763401985,0.0015754485502839088
1768416588445871000,7.90687109375,-0.03352358937263489,-0.03726471588015556,0.017351288348436356
1768416588455872000,7.9168720703125,-0.03805043175816536,-0.023981669917702675,0.03249349072575569
1768416588465873200,7.926873046875,-0.037928447127342224,-0.015590027906000614,0.031909506767988205
1768416588475874300,7.936874267578125,-0.04426943510770798,-0.012353754602372646,0.028607986867427826
1768416588485876000,7.9468759765625,-0.053051818162202835,-0.028172103688120842,0.03059515357017517
1768416588495877400,7.95687744140625,-0.06910508871078491,-0.05056023597717285,0.03306124359369278
1768416588505878300,7.966878173828125,-0.08409854769706726,-0.06455513834953308,0.027503514662384987
1768416588515880200,7.976880126953125,-0.09441430121660233,-0.06830086559057236,0.0261375792324543
1768416588525881000,7.986881103515625,-0.09678071737289429,-0.06496793031692505,0.03469976410269737
1768416588535882200,7.99688232421875,-0.09713119268417358,-0.06879755854606628,0.03281371295452118
1768416588545883100,8.006883056640625,-0.10453331470489502,-0.07645557075738907,0.016847863793373108
1768416588555885000,8.016885009765625,-0.11926592141389847,-0.08763392269611359,-0.0008475105278193951
1768416588565886200,8.02688623046875,-0.13620568811893463,-0.09483835846185684,-0.015508177690207958
1768416588575887000,8.03688720703125,-0.15364938974380493,-0.09225323051214218,-0.012050063349306583
1768416588585889000,8.046888916015625,-0.16894233226776123,-0.08300700038671494,-0.004729033447802067
1768416588595890000,8.056889892578125,-0.18328770995140076,-0.06836067885160446,-0.005603083409368992
1768416588605891300,8.066891357421875,-0.19781632721424103,-0.05555109679698944,-0.0072174035012722015
1768416588615892200,8.076892333984375,-0.20808574557304382,-0.041065096855163574,-0.014089957810938358
1768416588625894100,8.08689404296875,-0.20736542344093323,-0.029237041249871254,-0.02647746168076992
1768416588635895300,8.096895263671875,-0.20137250423431396,-0.022374873980879784,-0.030410418286919594
1768416588645896200,8.106896240234375,-0.18486563861370087,-0.030101865530014038,-0.019295502454042435
1768416588655898000,8.116898193359376,-0.16067028045654297,-0.04203149303793907,-0.0076974364928901196
1768416588665899000,8.12689892578125,-0.13892649114131927,-0.048224132508039474,-0.0020070355385541916
1768416588675900200,8.136900146484376,-0.11646459996700287,-0.05752841755747795,-0.0025005191564559937
1768416588685902000,8.146902099609376,-0.09816975146532059,-0.055681049823760986,-0.0032556611113250256
1768416588695903000,8.156903076171876,-0.0729655995965004,-0.05143410339951515,-0.001553368754684925
1768416588705904000,8.166904052734376,-0.05802313610911369,-0.04807981103658676,0.000444888137280941
1768416588715905300,8.1769052734375,-0.04773667827248573,-0.04752054810523987,0.006389596499502659
1768416588725907200,8.1869072265625,-0.0568540133535862,-0.028691310435533524,0.015035592019557953
1768416588735908000,8.196908203125,-0.06191188469529152,-0.019420314580202103,0.008142532780766487
1768416588745909200,8.2069091796875,-0.067549929022789,-0.017054084688425064,0.011154858395457268
1768416588755911200,8.2169111328125,-0.0664076954126358,-0.024647820740938187,0.014487271197140217
1768416588765912000,8.226912109375,-0.06067231297492981,-0.03849375247955322,0.01478763297200203
1768416588775913200,8.236913330078124,-0.0494135357439518,-0.04167623072862625,0.011052548885345459
1768416588785914000,8.2469140625,-0.03945110738277435,-0.04013115540146828,0.01153186522424221
1768416588795916000,8.256916015625,-0.033687490969896317,-0.042360223829746246,0.01946595497429371
1768416588805917200,8.266917236328124,-0.02577497996389866,-0.046038802713155746,0.008117780089378357
1768416588815918000,8.27691796875,-0.023807169869542122,-0.06619786471128464,0.0024468442425131798
1768416588825920000,8.286919921875,-0.017103396356105804,-0.08232294023036957,-0.0007446100935339928
1768416588835921200,8.296921142578125,-0.010606614872813225,-0.07697877287864685,-0.013626586645841599
1768416588845922300,8.30692236328125,-0.0062857759185135365,-0.0605839379131794,-0.021697010844945908
1768416588855923200,8.316923095703125,-0.00996546633541584,-0.04403319209814072,-0.0246611088514328
1768416588865925000,8.326925048828125,-0.005905935540795326,-0.03988690301775932,-0.036783650517463684
1768416588875926300,8.33692626953125,-0.0017231744714081287,-0.04240784794092178,-0.06259394437074661
1768416588885927200,8.34692724609375,-0.0006871386431157589,-0.04668131843209267,-0.07403027266263962
1768416588895929000,8.35692919921875,0.00127294787671417,-0.047154828906059265,-0.0671478658914566
1768416588905930000,8.366929931640625,0.00825515016913414,-0.031432874500751495,-0.07066953182220459
1768416588915931100,8.37693115234375,0.015921857208013535,-0.016390541568398476,-0.07736311852931976
1768416588925932300,8.386932373046875,0.02384050562977791,-0.012437012046575546,-0.08634743094444275
1768416588935934000,8.396933837890625,0.022985897958278656,-0.0010274969972670078,-0.09922754019498825
1768416588945935400,8.406935302734375,0.01955781690776348,0.021844910457730293,-0.09590142220258713
1768416588955936300,8.416936279296875,0.019705355167388916,0.028713202103972435,-0.08775108307600021
1768416588965938200,8.426938232421875,0.018362052738666534,0.0245366133749485,-0.08798029273748398
1768416588975939000,8.43693896484375,0.017176944762468338,0.012979026883840561,-0.09086795896291733
1768416588985940200,8.446940185546875,0.01758149079978466,0.012235648930072784,-0.08000589907169342
1768416588995942100,8.456942138671875,0.023013273254036903,0.02460390143096447,-0.06984727084636688
1768416589005943000,8.466943115234375,0.02816961146891117,0.019952252507209778,-0.06554647535085678
1768416589015944200,8.476944091796875,0.02563375048339367,0.006030844524502754,-0.06591293215751648
1768416589025945000,8.486945068359375,0.020417358726263046,-0.006871410645544529,-0.06613284349441528
1768416589035947000,8.496947021484376,0.01732330024242401,-0.011655513197183609,-0.0629064291715622
1768416589045948200,8.5069482421875,0.014221632853150368,-0.007851798087358475,-0.05765696242451668
1768416589055949300,8.51694921875,0.012941984459757805,0.0066352663561701775,-0.052098680287599564
1768416589065951200,8.526951171875,0.013888945803046227,0.017681218683719635,-0.0471762977540493
1768416589075952000,8.5369521484375,0.011624460108578205,0.024301040917634964,-0.039072565734386444
1768416589085953300,8.546953369140626,0.006811060011386871,0.026813620701432228,-0.03533797338604927
1768416589095954200,8.5569541015625,0.0014013806357979774,0.02218877524137497,-0.03420532867312431
1768416589105956000,8.5669560546875,-0.001059316797181964,0.015364419668912888,-0.036395926028490067
1768416589115957200,8.576957275390624,-0.002591166878119111,0.007501703687012196,-0.03465688228607178
1768416589125958100,8.586958251953124,-0.0035083619877696037,0.013481986708939075,-0.035017430782318115
1768416589135960000,8.5969599609375,-0.006052479613572359,0.023371368646621704,-0.026291050016880035
1768416589145961000,8.6069609375,-0.004164496436715126,0.02989073656499386,-0.026978645473718643
1768416589155962000,8.616962158203124,-0.006604750640690327,0.032271068543195724,-0.02431308664381504
1768416589165963300,8.62696337890625,-0.006911078002303839,0.03493237495422363,-0.02629060484468937
1768416589175965200,8.636965087890625,-0.012664305046200752,0.035422928631305695,-0.031433701515197754
1768416589185966300,8.64696630859375,-0.01887786202132702,0.02962292917072773,-0.029816165566444397
1768416589195967200,8.65696728515625,-0.0230393186211586,0.027772298082709312,-0.026867780834436417
1768416589205969200,8.66696923828125,-0.020847667008638382,0.02731866016983986,-0.027954014018177986
1768416589215970000,8.676969970703125,-0.02191159874200821,0.01855047047138214,-0.02810767851769924
1768416589225971200,8.68697119140625,-0.025034694001078606,0.014505861327052116,-0.029863372445106506
1768416589235972000,8.69697216796875,-0.016902998089790344,0.015771130099892616,-0.027563996613025665
1768416589245974000,8.70697412109375,-0.013842098414897919,0.024635450914502144,-0.024274485185742378
1768416589255975200,8.71697509765625,-0.012785356491804123,0.02455129474401474,-0.026722995564341545
1768416589265976000,8.72697607421875,-0.017500797286629677,0.02270543947815895,-0.0266584400087595
1768416589275978000,8.73697802734375,-0.022823391482234,0.015405980870127678,-0.03167450428009033
1768416589285979100,8.746979248046875,-0.023893659934401512,-0.0011299231555312872,-0.035340894013643265
1768416589295980300,8.756980224609375,-0.02261481061577797,-0.010513571090996265,-0.04234261065721512
1768416589305981200,8.766981201171875,-0.016819827258586884,-0.012430975213646889,-0.05011609569191933
1768416589315983000,8.776983154296875,-0.012633603997528553,-0.016810543835163116,-0.05325889214873314
1768416589325984000,8.78698388671875,-0.012750585563480854,-0.018675506114959717,-0.056874435395002365
1768416589335985000,8.79698486328125,-0.020080404356122017,-0.009534205310046673,-0.054596368223428726
1768416589345987000,8.806987060546875,-0.02716880850493908,-0.000037694815546274185,-0.05572192743420601
1768416589355988000,8.816988037109375,-0.02729477547109127,-0.0009602138306945562,-0.05332774668931961
1768416589365988900,8.82698876953125,-0.025718381628394127,-0.003468428971245885,-0.05677863955497742
1768416589375991000,8.836990966796876,-0.023417677730321884,-0.008494080044329166,-0.051224082708358765
1768416589385992000,8.846991943359376,-0.018290633335709572,-0.012257298454642296,-0.03965339437127113
1768416589395993000,8.8569931640625,-0.012191195972263813,-0.02045264281332493,-0.03043486177921295
1768416589405994000,8.866993896484376,-0.002782452153041959,-0.02286798134446144,-0.021155178546905518
1768416589415996200,8.87699609375,0.00585231464356184,-0.02153240703046322,-0.024146707728505135
1768416589425997000,8.8869970703125,0.004924209788441658,-0.01630881428718567,-0.02750295400619507
1768416589435998000,8.896998046875,0.0035412306897342205,-0.004932323936372995,-0.01950734481215477
1768416589446000000,8.907000244140624,0.005551714450120926,0.0063384342938661575,-0.011550232768058777
1768416589456001000,8.9170009765625,0.004735988099128008,0.007957370020449162,-0.007027651648968458
1768416589466002000,8.927001953125,0.00028657668735831976,-0.0008512514177709818,-0.018710440024733543
1768416589476002800,8.9370029296875,0.0018213563598692417,-0.011022662743926048,-0.021388249471783638
1768416589486005000,8.9470048828125,0.004887922666966915,-0.005861184559762478,-0.015817835927009583
1768416589496006000,8.957005859375,0.004799239337444305,-0.0014672349207103252,-0.029837246984243393
1768416589506007000,8.967007080078124,0.007991106249392033,-0.0035469476133584976,-0.05144024267792702
1768416589516009200,8.97700927734375,0.008416146971285343,0.011652511544525623,-0.037824299186468124
1768416589526010000,8.987010009765624,0.007986510172486305,0.02448580227792263,-0.021299686282873154
1768416589536011000,8.997010986328124,0.00509857852011919,0.023749439045786858,-0.0009137210436165333
1768416589546012000,9.007011962890624,0.003076978726312518,0.017363399267196655,0.012404394336044788
1768416589556014000,9.01701416015625,0.0007429843535646796,0.0019207936711609364,0.005906547419726849
1768416589566015000,9.027014892578125,0.005160295404493809,-0.010393568314611912,-0.006423835176974535
1768416589576016000,9.037015869140625,0.010959595441818237,-0.012388275936245918,-0.018146004527807236
1768416589586018000,9.04701806640625,0.008729062974452972,-0.008931281976401806,-0.022810643538832664
1768416589596019000,9.05701904296875,0.0014719496248289943,-0.014461868442595005,-0.023190144449472427
1768416589606020000,9.06702001953125,-0.0012875497341156006,-0.027120988816022873,-0.01631489396095276
1768416589616021000,9.07702099609375,0.0007598885567858815,-0.022792287170886993,-0.011224260553717613
1768416589626023200,9.087023193359375,0.004079596139490604,-0.002027869690209627,-0.004450073931366205
1768416589636024000,9.097024169921875,0.006271909922361374,0.014904774725437164,-0.001865210011601448
1768416589646025000,9.10702490234375,0.001286930637434125,0.02053745463490486,-0.001392978709191084
1768416589656027100,9.117027099609375,0.0033474182710051537,0.017603449523448944,-0.003929639235138893
1768416589666028000,9.127028076171875,0.006472179666161537,0.0066447146236896515,-0.004255929496139288
1768416589676029000,9.13702880859375,0.0059275636449456215,0.009473524056375027,0.0014381750952452421
1768416589686029800,9.14702978515625,0.009212955832481384,0.021286586299538612,-0.0009784940630197525
1768416589696032000,9.157031982421875,0.011075836606323719,0.033565886318683624,-0.0020264480262994766
1768416589706033000,9.167032958984375,0.016579609364271164,0.038587626069784164,-0.00037018908187747
1768416589716034000,9.177033935546875,0.022785307839512825,0.03939616307616234,-0.0002918918617069721
1768416589726036000,9.187035888671875,0.02193215861916542,0.036549344658851624,-0.004851558245718479
1768416589736037000,9.197037109375,0.019869273528456688,0.04021944850683212,-0.003951942548155785
1768416589746038000,9.2070380859375,0.015733789652585983,0.04373205453157425,0.006991587113589048
1768416589756039200,9.2170390625,0.015224060043692589,0.04043186828494072,0.00936899147927761
1768416589766041000,9.227041015625,0.013681488111615181,0.04661977291107178,0.016402099281549454
1768416589776042000,9.2370419921875,0.012070808559656143,0.046719107776880264,0.02125038392841816
1768416589786043000,9.24704296875,0.011632177978754044,0.040600962936878204,0.02211391180753708
1768416589796045000,9.257045166015626,0.01344978529959917,0.03568503260612488,0.022810062393546104
1768416589806046000,9.2670458984375,0.0185087937861681,0.027218792587518692,0.027450652793049812
1768416589816046800,9.277046875,0.020070204511284828,0.0045076217502355576,0.03672537952661514
1768416589826048300,9.28704833984375,0.020273003727197647,-0.01764114573597908,0.03514787554740906
1768416589836050000,9.2970498046875,0.01925887167453766,-0.025837289169430733,0.030937951058149338
1768416589846051000,9.307051025390624,0.016048377379775047,-0.022773517295718193,0.026937631890177727
1768416589856052000,9.317052001953124,0.012805446982383728,-0.006365249864757061,0.022050730884075165
1768416589866054100,9.32705419921875,0.011082428507506847,0.005514441058039665,0.024675125256180763
1768416589876055000,9.337054931640624,0.01214875839650631,0.015467207878828049,0.02616436593234539
1768416589886056000,9.347055908203124,0.00983421690762043,0.01968301273882389,0.02380458638072014
1768416589896057000,9.35705712890625,0.010862729512155056,0.026268478482961655,0.02002609521150589
1768416589906059000,9.36705908203125,0.007951638661324978,0.036300137639045715,0.017376653850078583
1768416589916060000,9.377059814453125,0.0032165381126105785,0.03525564447045326,0.015403250232338905
1768416589926060800,9.387060791015625,-0.00010057352483272552,0.02549823559820652,0.016831787303090096
1768416589936063000,9.39706298828125,-0.003191704396158457,0.006114417687058449,0.02198607102036476
1768416589946064000,9.40706396484375,-0.0037512974813580513,-0.017582915723323822,0.019647426903247833
1768416589956065000,9.41706494140625,-0.007142034359276295,-0.02544563263654709,0.012394573539495468
1768416589966066200,9.427066162109375,-0.010585297830402851,-0.01395062543451786,0.0134000638499856
1768416589976068000,9.437068115234375,-0.006372709292918444,-0.004952603485435247,0.01950482651591301
1768416589986069000,9.447069091796875,-0.007756427861750126,-0.014833047054708004,0.025586053729057312
1768416589996070000,9.45706982421875,-0.005261579528450966,-0.022436372935771942,0.025740250945091248
1768416590006072000,9.467072021484375,0.0027350918389856815,-0.025004036724567413,0.022893108427524567
1768416590016073000,9.477072998046875,0.007575387135148048,-0.02593800611793995,0.026376258581876755
1768416590026073900,9.487073974609375,0.010806945152580738,-0.02326391078531742,0.034791216254234314
1768416590036075000,9.497074951171875,0.009005582891404629,-0.023165639489889145,0.032153356820344925
1768416590046077000,9.507076904296875,0.0026113330386579037,-0.0294048935174942,0.019402673467993736
1768416590056078000,9.517078125,-0.0006305328570306301,-0.03666999563574791,0.014359179884195328
1768416590066079200,9.527079345703125,-0.002476774388924241,-0.032485537230968475,0.02575317956507206
1768416590076081200,9.5370810546875,-0.0068321083672344685,-0.024982083588838577,0.027820857241749763
1768416590086082000,9.54708203125,-0.006660875864326954,-0.01944064162671566,0.02486993931233883
1768416590096083000,9.5570830078125,-0.006445691920816898,-0.016867762431502342,0.019374506548047066
1768416590106084000,9.567083984375,-0.0041119554080069065,-0.023599635809659958,0.022732354700565338
1768416590116086000,9.5770859375,-0.006428638938814402,-0.03556255251169205,0.02576409839093685
1768416590126087000,9.5870869140625,-0.010295216925442219,-0.0419902540743351,0.026098402217030525
1768416590136088000,9.597088134765626,-0.009812652133405209,-0.05415450781583786,0.020870618522167206
1768416590146090000,9.607090087890626,-0.007996711879968643,-0.07065699994564056,0.01670726388692856
1768416590156091000,9.6170908203125,-0.0068121375516057014,-0.06653789430856705,0.021564338356256485
1768416590166092000,9.627092041015626,-0.011515549384057522,-0.057644378393888474,0.016369618475437164
1768416590176093200,9.63709326171875,-0.01677236333489418,-0.04984770715236664,0.010013451799750328
1768416590186095000,9.64709521484375,-0.019004805013537407,-0.04407000541687012,0.008080613799393177
1768416590196096000,9.657095947265624,-0.017950724810361862,-0.033305246382951736,0.007534665986895561
1768416590206097200,9.66709716796875,-0.017506444826722145,-0.024487413465976715,0.008913461118936539
1768416590216099000,9.67709912109375,-0.014913324266672134,-0.015324540436267853,0.021663345396518707
1768416590226100000,9.687099853515624,-0.011657150462269783,-0.006663468666374683,0.024091623723506927
1768416590236100900,9.697100830078124,-0.010142344981431961,-0.00591884832829237,0.02128278836607933
1768416590246102000,9.70710205078125,-0.005851328372955322,-0.005009434185922146,0.02437647059559822
1768416590256104000,9.71710400390625,0.0004755434929393232,-0.00855623185634613,0.027957888320088387
1768416590266104800,9.727104736328124,-0.002800554735586047,-0.0059531135484576225,0.023014549165964127
1768416590276106200,9.737106201171875,-0.005205655470490456,0.004491005092859268,0.016185671091079712
1768416590286108000,9.74710791015625,-0.008386310189962387,0.023040859028697014,0.011751394718885422
1768416590296109000,9.757109130859375,-0.006950333248823881,0.03564612939953804,0.009251484647393227
1768416590306110000,9.76710986328125,-0.0023332959972321987,0.04134277254343033,0.008310728706419468
1768416590316111000,9.777111083984375,-0.004347977228462696,0.03779491037130356,0.01334463618695736
1768416590326113000,9.787113037109375,-0.0026173924561589956,0.03478579968214035,0.01640845648944378
1768416590336114000,9.797114013671875,-0.0038752031978219748,0.04368555173277855,0.020116377621889114
1768416590346115000,9.807114990234375,-0.004870489239692688,0.06121022254228592,0.012637566775083542
1768416590356117000,9.817116943359375,-0.013274626806378365,0.06772883981466293,0.0016008943784981966
1768416590366118000,9.827117919921875,-0.020389597862958908,0.05615852028131485,-0.011989249847829342
1768416590376119000,9.837119140625,-0.030708815902471542,0.020696667954325676,-0.020087655633687973
1768416590386120200,9.8471201171875,-0.03228720277547836,-0.027342235669493675,-0.010470861569046974
1768416590396121900,9.857121826171875,-0.02434432879090309,-0.06442596018314362,-0.0004110373556613922
1768416590406123000,9.867123046875,-0.019583191722631454,-0.07391532510519028,0.005598797928541899
1768416590416124200,9.877124267578125,-0.0053691016510128975,-0.06863746792078018,0.01215336937457323
1768416590426126000,9.8871259765625,0.0007406630320474505,-0.04397488385438919,0.025710292160511017
1768416590436127000,9.897126953125,-0.001179476035758853,-0.026738910004496574,0.03215647488832474
1768416590446128000,9.907128173828125,-0.008518951013684273,-0.01689235307276249,0.02942936308681965
1768416590456129000,9.91712890625,-0.018414992839097977,-0.006705229636281729,0.02167503722012043
1768416590466131000,9.927130859375,-0.024554047733545303,-0.0032716214191168547,0.008940987288951874
1768416590476131800,9.9371318359375,-0.02622384950518608,0.0067173633724451065,0.008840586058795452
1768416590486133000,9.947133056640626,-0.02297339215874672,0.00316092767752707,0.013895299285650253
1768416590496135000,9.957135009765626,-0.023506024852395058,0.013009296730160713,0.01529479119926691
1768416590506136000,9.967135986328126,-0.026749808341264725,0.01121135801076889,0.018375862389802933
1768416590516137200,9.97713720703125,-0.027488570660352707,0.006750296801328659,0.017960408702492714
1768416590526138000,9.98713818359375,-0.022445356473326683,-0.001049213344231248,0.01717175357043743
1768416590536140000,9.99714013671875,-0.016788270324468613,-0.0015866393223404884,0.016474004834890366
1768416590546141000,10.007140869140626,-0.01047038659453392,-0.002854465041309595,0.015778731554746628
1768416590556142000,10.01714208984375,-0.009331885725259781,-0.00017106393352150917,0.014474048279225826
1768416590566143000,10.02714306640625,-0.009020145982503891,-0.006327793933451176,0.012623089365661144
1768416590576145000,10.037144775390624,-0.014511583372950554,-0.008235416375100613,0.009233951568603516
1768416590586146000,10.04714599609375,-0.013206192292273045,-0.010309567674994469,0.0041456748731434345
1768416590596147000,10.05714697265625,-0.011551570147275925,-0.00950555969029665,-0.004505603574216366
1768416590606148900,10.06714892578125,-0.015767551958560944,-0.0032527735456824303,-0.00982976146042347
1768416590616150000,10.07714990234375,-0.014678851701319218,-0.00875353254377842,-0.0027982168830931187
1768416590626151200,10.087151123046874,-0.01538005005568266,-0.01436383742839098,-0.0019906535744667053
1768416590636152000,10.097152099609374,-0.012561625801026821,-0.026994679123163223,-0.01664736121892929
1768416590646154000,10.107154052734375,-0.012040109373629093,-0.030631009489297867,-0.030707750469446182
1768416590656155100,10.117155029296875,-0.007421921938657761,-0.03345875442028046,-0.01973872445523739
1768416590666156000,10.127156005859375,-0.005937752779573202,-0.018694253638386726,-0.013512123376131058
1768416590676158000,10.137157958984375,-0.009529824368655682,-0.0014990214258432388,-0.02622498944401741
1768416590686159000,10.1471591796875,-0.010685304179787636,-0.00020834826864302158,-0.03323142230510712
1768416590696160000,10.157159912109375,-0.012229670770466328,-0.009717164561152458,-0.0274190753698349
1768416590706161000,10.167160888671875,-0.01408341433852911,-0.01621142402291298,-0.02035278081893921
1768416590716162800,10.177162841796875,-0.011266854591667652,-0.016953378915786743,-0.005953867919743061
1768416590726164200,10.187164306640625,-0.004379935562610626,-0.019094204530119896,0.00040620029903948307
1768416590736165000,10.1971650390625,-0.0006336665246635675,-0.019884364679455757,-0.004552606027573347
1768416590746167000,10.2071669921875,0.009875645861029625,-0.012741540558636189,-0.01647019200026989
1768416590756168200,10.217168212890625,0.015043776482343674,0.0002373747993260622,-0.027703139930963516
1768416590766169000,10.227169189453125,0.01612773723900318,0.003142657456919551,-0.03582077845931053
1768416590776170000,10.237169921875,0.01935522072017193,0.004479298368096352,-0.03786848485469818
1768416590786172000,10.247171875,0.022051941603422165,0.003211477305740118,-0.034561146050691605
1768416590796173000,10.257173095703125,0.021736091002821922,0.01575176976621151,-0.027583668008446693
1768416590806174000,10.267174072265625,0.025217832997441292,0.036962080746889114,-0.018070269376039505
1768416590816175900,10.27717578125,0.029307115823030472,0.046770770102739334,-0.013637702912092209
1768416590826177000,10.287177001953125,0.028165291994810104,0.05687374621629715,-0.011968942359089851
1768416590836178200,10.29717822265625,0.023160681128501892,0.060455963015556335,-0.014323709532618523
1768416590846179000,10.307178955078125,0.02315555140376091,0.06558366119861603,-0.017295032739639282
1768416590856181000,10.317180908203126,0.02291639894247055,0.06414129585027695,-0.02300112135708332
1768416590866182100,10.32718212890625,0.01984231360256672,0.05924028158187866,-0.022608570754528046
1768416590876183000,10.33718310546875,0.01554157491773367,0.05061456561088562,-0.02094276435673237
1768416590886185000,10.34718505859375,0.013238021172583103,0.04116595536470413,-0.028509698808193207
1768416590896186000,10.35718603515625,0.009242746978998184,0.037697456777095795,-0.03330179303884506
1768416590906187000,10.36718701171875,0.005175618454813957,0.03603610396385193,-0.03545577451586723
1768416590916188000,10.37718798828125,0.0008232141262851655,0.03087702766060829,-0.03796420618891716
1768416590926190000,10.387190185546874,-0.002075166441500187,0.02702903188765049,-0.03313974291086197
1768416590936191000,10.39719091796875,-0.001834683120250702,0.020433979108929634,-0.023487646132707596
1768416590946192100,10.407192138671874,-0.005289528518915176,0.017518144100904465,-0.023314550518989563
1768416590956194000,10.417194091796874,-0.011617199517786503,0.01312392856925726,-0.03240391984581947
1768416590966195200,10.4271953125,-0.01706364005804062,0.007082216441631317,-0.04222526401281357
1768416590976196000,10.437196044921874,-0.019454626366496086,0.0058382535353302956,-0.0433318056166172
1768416590986197000,10.447197021484374,-0.020922832190990448,0.0011387285776436329,-0.0368213951587677
1768416590996199200,10.45719921875,-0.014503014273941517,-0.002604876644909382,-0.03110971488058567
1768416591006200000,10.467199951171875,-0.006092356517910957,0.003046451136469841,-0.023839086294174194
1768416591016201000,10.477200927734375,0.002883561421185732,0.00797329843044281,-0.013247962109744549
1768416591026203000,10.487202880859375,0.004381927661597729,0.010738519951701164,-0.010253247804939747
1768416591036204000,10.4972041015625,0.0033347727730870247,0.021705416962504387,-0.012520928867161274
1768416591046205000,10.507204833984375,0.0010945872636511922,0.03809701278805733,-0.014366688206791878
1768416591056206000,10.5172060546875,-0.01037005428224802,0.07314953953027725,-0.013343501836061478
1768416591066208000,10.5272080078125,-0.008001172915101051,0.06266893446445465,-0.021821675822138786
1768416591076209200,10.537209228515625,-0.00092275720089674,0.054502882063388824,-0.024835042655467987
1768416591086210000,10.5472099609375,0.0005401894450187683,0.041301921010017395,-0.026844672858715057
1768416591096211000,10.5572109375,0.00479538831859827,0.025006305426359177,-0.03354278951883316
1768416591106213000,10.567213134765625,0.009147738106548786,0.02287813276052475,-0.03975348919630051
1768416591116214000,10.577214111328125,0.008306711912155151,0.03655586391687393,-0.0442638173699379
1768416591126215000,10.58721484375,0.011456755921244621,0.0516984798014164,-0.04911406710743904
1768416591136217000,10.597217041015625,0.012699387036263943,0.05623437836766243,-0.055999137461185455
1768416591146218000,10.607218017578125,0.011401096358895302,0.06805587559938431,-0.06221548840403557
1768416591156219000,10.617218994140625,0.010223712772130966,0.0737992525100708,-0.06330952048301697
1768416591166220000,10.627219970703125,0.0068842400796711445,0.07498510926961899,-0.057778775691986084
1768416591176222200,10.63722216796875,0.002693756017833948,0.07536434382200241,-0.04688405245542526
1768416591186223000,10.64722314453125,0.0022903389763087034,0.06811343878507614,-0.04035767912864685
1768416591196224000,10.65722412109375,0.006844877265393734,0.05612334981560707,-0.03655468299984932
1768416591206226200,10.66722607421875,0.015957117080688477,0.040707312524318695,-0.027111627161502838
1768416591216227000,10.67722705078125,0.022452834993600845,0.019164204597473145,-0.017040081322193146
1768416591226228000,10.68722802734375,0.023576052859425545,0.0035508982837200165,-0.005162785295397043
1768416591236228900,10.697228759765625,0.019444957375526428,-0.013224619440734386,0.000152618158608675
1768416591246231000,10.70723095703125,0.006716188043355942,-0.022937949746847153,-0.0007436322048306465
1768416591256232000,10.71723193359375,-0.003049889812245965,-0.029232332482933998,0.00907757319509983
1768416591266233000,10.727233154296876,-0.011121662333607674,-0.027412481606006622,0.026872506365180016
1768416591276235000,10.737235107421874,-0.01951115019619465,-0.015589113347232342,0.027242951095104218
1768416591286236200,10.747236083984374,-0.021336477249860764,-0.0049142539501190186,0.01848350465297699
1768416591296237000,10.757237060546874,-0.022901616990566254,-0.006591512821614742,0.017178822308778763
1768416591306238000,10.767238037109376,-0.03436440974473953,-0.012485531158745289,0.025675011798739433
1768416591316240000,10.777239990234374,-0.04011177644133568,-0.018704544752836227,0.041569288820028305
1768416591326241000,10.787240966796874,-0.043754301965236664,-0.03661194071173668,0.05083782970905304
1768416591336242000,10.797241943359374,-0.0333075188100338,-0.061857376247644424,0.0513659343123436
1768416591346243800,10.807243896484374,-0.020341401919722557,-0.07214492559432983,0.05226976051926613
1768416591356245000,10.817244873046874,-0.008991807699203491,-0.06599967926740646,0.046843305230140686
1768416591366246000,10.827245849609374,-0.006328713148832321,-0.07309790700674057,0.04100664332509041
1768416591376247000,10.8372470703125,-0.007297038100659847,-0.08325786888599396,0.038460660725831985
1768416591386248700,10.847248779296875,-0.010053591802716255,-0.08783160895109177,0.038487907499074936
1768416591396250000,10.85725,-0.010106855072081089,-0.0852145180106163,0.039506834000349045
1768416591406251000,10.8672509765625,-0.010521378368139267,-0.08540259301662445,0.0407155305147171
1768416591416253000,10.8772529296875,-0.00741027295589447,-0.08508514612913132,0.04684346169233322
1768416591426254000,10.887254150390625,-0.010087752714753151,-0.09704620391130447,0.04310210794210434
1768416591436255000,10.8972548828125,-0.008331398479640484,-0.10219329595565796,0.03334695100784302
1768416591446255900,10.907255859375,-0.008613554760813713,-0.09312746673822403,0.023459501564502716
1768416591456258000,10.917258056640625,-0.008617282845079899,-0.07904546707868576,0.00969948060810566
1768416591466259000,10.927259033203125,-0.004655651748180389,-0.06669806689023972,0.003247666172683239
1768416591476259800,10.937259765625,0.004401226527988911,-0.06805628538131714,0.00043430295772850513
1768416591486261800,10.94726171875,0.011611275374889374,-0.06675861775875092,-0.00150985736399889
1768416591496263000,10.957262939453125,0.016573810949921608,-0.05607987567782402,-0.006891306955367327
1768416591506264000,10.96726416015625,0.022248873487114906,-0.03910110518336296,-0.011668907478451729
1768416591516265000,10.977264892578125,0.02539273537695408,-0.036180946975946426,-0.009112006053328514
1768416591526267100,10.98726708984375,0.0246075801551342,-0.034171897917985916,-0.006629347801208496
1768416591536268000,10.99726806640625,0.024680551141500473,-0.022069960832595825,-0.008481842465698719
1768416591546269000,11.00726904296875,0.02476649545133114,-0.012259047478437424,-0.011680513620376587
1768416591556270800,11.017270751953125,0.021428490057587624,-0.01111814845353365,-0.018302462995052338
1768416591566272000,11.02727197265625,0.017958253622055054,-0.013326341286301613,-0.018333956599235535
1768416591576273000,11.03727294921875,0.01655663177371025,-0.014241935685276985,-0.012228659354150295
1768416591586273800,11.047273681640625,0.011637789197266102,-0.019129082560539246,-0.009055985137820244
1768416591596276000,11.05727587890625,0.01568925566971302,-0.025333981961011887,-0.0022785072214901447
1768416591606276900,11.06727685546875,0.018916798755526543,-0.03160344436764717,0.007088259793817997
1768416591616278000,11.077278076171876,0.019053952768445015,-0.0359494574368,0.013190094381570816
1768416591626280000,11.087280029296876,0.01861945353448391,-0.03284411132335663,0.011581210419535637
1768416591636281000,11.097281005859376,0.014425506815314293,-0.03575468063354492,0.013177509419620037
1768416591646282000,11.107281982421876,0.009659435600042343,-0.03225408121943474,0.012151800096035004
1768416591656283000,11.117282958984376,0.004530720412731171,-0.027375169098377228,0.011889745481312275
1768416591666285000,11.12728515625,0.0038264060858637094,-0.025684025138616562,0.01014932245016098
1768416591676286000,11.137285888671874,0.005424835719168186,-0.024268554523587227,0.009689660742878914
1768416591686286800,11.147286865234374,0.008044776506721973,-0.026130009442567825,0.015959594398736954
1768416591696288800,11.157288818359374,0.010455204173922539,-0.027673844248056412,0.01160239614546299
1768416591706290000,11.1672900390625,0.014898158609867096,-0.030716927722096443,0.0064957402646541595
1768416591716291000,11.177291015625,0.016863038763403893,-0.029272163286805153,0.005535404663532972
1768416591726292000,11.1872919921875,0.019165873527526855,-0.025123758241534233,0.006503197364509106
1768416591736294100,11.197294189453125,0.02184368297457695,-0.02124299854040146,0.0028797006234526634
1768416591746295000,11.207294921875,0.02405938319861889,-0.015591435134410858,-0.0010005086660385132
1768416591756296000,11.2172958984375,0.027640270069241524,-0.008881334215402603,0.0011459991801530123
1768416591766296800,11.227296875,0.038432106375694275,0.00021514436230063438,-0.0016468986868858337
1768416591776299000,11.237299072265625,0.04120472073554993,0.003585374914109707,0.005044826306402683
1768416591786300000,11.2472998046875,0.045047663152217865,0.00006653997115790844,0.017343835905194283
1768416591796300800,11.25730078125,0.048178475350141525,0.0007043671794235706,0.022525815293192863
1768416591806303000,11.267302978515625,0.04853487387299538,0.0047406041994690895,0.016604576259851456
1768416591816303900,11.277303955078125,0.042499884963035583,0.01193646527826786,0.014713998883962631
1768416591826305000,11.287304931640625,0.0401361919939518,0.019989430904388428,0.0056623793207108974
1768416591836306000,11.297305908203125,0.031047891825437546,0.018176883459091187,0.004680738318711519
1768416591846308000,11.30730810546875,0.025779424235224724,0.015706375241279602,0.012933152727782726
1768416591856309000,11.31730908203125,0.02178574912250042,0.009752079844474792,0.015288186259567738
1768416591866310000,11.327309814453125,0.022533969953656197,0.0010318357963114977,0.006338391453027725
1768416591876312000,11.33731201171875,0.01569763571023941,-0.020831383764743805,-0.0016617444343864918
1768416591886313000,11.34731298828125,0.011503566056489944,-0.03300122171640396,0.004991389811038971
1768416591896313900,11.35731396484375,0.01042605098336935,-0.026118282228708267,0.012273004278540611
1768416591906314800,11.367314697265625,0.005387686192989349,-0.014360209926962852,0.006767219863831997
1768416591916317000,11.37731689453125,0.0035884545650333166,-0.011115680448710918,-0.0031786211766302586
1768416591926317800,11.38731787109375,-0.0031933654099702835,-0.011045122519135475,-0.006583909969776869
1768416591936319000,11.397319091796875,-0.007485316134989262,-0.008931637741625309,-0.002852821722626686
1768416591946321000,11.40732080078125,-0.008702844381332397,-0.007208090275526047,-0.0012181391939520836
1768416591956322000,11.417322021484376,-0.007497231010347605,-0.009869652800261974,-0.006324750371277332
1768416591966323000,11.427322998046876,-0.005387000739574432,-0.011589939706027508,-0.011352961882948875
1768416591976323800,11.43732373046875,-0.0038628734182566404,-0.004269974771887064,-0.013568446040153503
1768416591986326000,11.447325927734376,-0.005181819200515747,-0.005217759404331446,-0.02387348748743534
1768416591996327000,11.457326904296876,-0.008850057609379292,-0.007897431962192059,-0.030950836837291718
1768416592006327800,11.467327880859376,-0.011361251585185528,-0.00863977987319231,-0.0341857448220253
1768416592016330000,11.477330078125,-0.01017268281430006,-0.011727714911103249,-0.029727879911661148
1768416592026331000,11.487330810546876,-0.009808585047721863,-0.004074237775057554,-0.022405758500099182
1768416592036331800,11.497331787109376,-0.01177266612648964,0.009306016378104687,-0.01812366209924221
1768416592046333000,11.5073330078125,-0.0144405672326684,0.01446635089814663,-0.0172102153301239
1768416592056334800,11.5173349609375,-0.013936963863670826,0.01590792089700699,-0.020468592643737793
1768416592066336000,11.5273359375,-0.011703035794198513,0.013277200050652027,-0.023052621632814407
1768416592076337000,11.5373369140625,-0.011195969767868519,0.011872383765876293,-0.023835591971874237
1768416592086339000,11.547339111328125,-0.007814347743988037,0.00765671581029892,-0.030616428703069687
1768416592096340000,11.557340087890625,-0.0076471008360385895,0.005820998921990395,-0.03100258857011795
1768416592106340900,11.5673408203125,-0.006646362133324146,0.006529649719595909,-0.029596345499157906
1768416592116341800,11.577341796875,-0.005863392725586891,0.010381645523011684,-0.028247451409697533
1768416592126344000,11.587343994140625,-0.006611988879740238,0.01257968507707119,-0.023741377517580986
1768416592136344800,11.5973447265625,-0.006466580554842949,0.01769055612385273,-0.02364257350564003
1768416592146345700,11.607345703125,-0.003696286352351308,0.01705438643693924,-0.022753886878490448
1768416592156347100,11.61734716796875,-0.002268565818667412,0.012253773398697376,-0.018415063619613647
1768416592166349000,11.62734912109375,-0.0008422639220952988,0.010184526443481445,-0.016674239188432693
1768416592176350000,11.637349853515625,-0.000503776129335165,0.009937118738889694,-0.0184516329318285
1768416592186350800,11.647350830078125,-0.002234682207927108,0.010978114791214466,-0.017607206478714943
1768416592196353000,11.65735302734375,-0.005967634730041027,0.0142801683396101,-0.020648270845413208
1768416592206354000,11.66735400390625,-0.007846834138035774,0.019230922684073448,-0.016881488263607025
1768416592216354800,11.677354736328125,-0.00782792642712593,0.017542213201522827,-0.00766002619639039
1768416592226356000,11.68735595703125,-0.003917412832379341,0.015160220675170422,0.0012533178087323904
1768416592236358000,11.69735791015625,-0.002438826020807028,0.018345097079873085,-0.0036652740091085434
1768416592246358800,11.70735888671875,-0.0018456676043570042,0.025419311597943306,-0.0035201418213546276
1768416592256360000,11.71735986328125,-0.004769818391650915,0.029632166028022766,-0.008088529109954834
1768416592266361900,11.72736181640625,-0.007527465000748634,0.03329218551516533,-0.013296397402882576
1768416592276363000,11.737363037109375,-0.009882232174277306,0.03391669690608978,-0.01675025187432766
1768416592286364000,11.747364013671875,-0.00803723931312561,0.031464751809835434,-0.019981801509857178
1768416592296365000,11.757364990234375,-0.008824469521641731,0.020590800791978836,-0.029589952901005745
1768416592306367000,11.767366943359375,-0.005764647386968136,0.013223998248577118,-0.0448351614177227
1768416592316368400,11.777368408203126,-0.004585932474583387,0.009412748739123344,-0.05582922324538231
1768416592326369300,11.787369384765626,-0.002397882053628564,0.009494396857917309,-0.0549793615937233
1768416592336370200,11.7973701171875,0.004054157994687557,0.012358625419437885,-0.04117166996002197
1768416592346372400,11.807372314453126,0.006367270834743977,0.015509599819779396,-0.03225342184305191
1768416592356373200,11.817373291015626,0.009347082115709782,0.009384861215949059,-0.03382069617509842
1768416592366374100,11.8273740234375,0.00975586473941803,0.0059636980295181274,-0.038823045790195465
1768416592376376300,11.837376220703124,0.011164677329361439,-0.0007698377594351768,-0.0388113297522068
1768416592386377200,11.847377197265626,0.011713706888258457,-0.0003389734774827957,-0.03932191804051399
1768416592396378400,11.85737841796875,0.013822398148477077,0.0006192319560796022,-0.04154645651578903
1768416592406379300,11.867379150390626,0.013163789175450802,0.0015628351829946041,-0.04443643242120743
1768416592416381400,11.87738134765625,0.01531881932169199,-0.0008883380796760321,-0.04738641530275345
1768416592426382300,11.88738232421875,0.017835842445492744,-0.004163011442869902,-0.046793028712272644
1768416592436383200,11.89738330078125,0.02369719371199608,-0.003887107828631997,-0.044202305376529694
1768416592446385400,11.907385498046875,0.02935580350458622,0.0060786474496126175,-0.0408557690680027
1768416592456386300,11.91738623046875,0.03252682834863663,0.0070267328992486,-0.03314565122127533
1768416592466387200,11.92738720703125,0.03781413659453392,0.010660293512046337,-0.024778379127383232
1768416592476388000,11.93738818359375,0.03943546861410141,0.011874162591993809,-0.02212267369031906
1768416592486390300,11.947390380859375,0.03777066618204117,0.01433492824435234,-0.02415478602051735
1768416592496391400,11.957391357421875,0.03435489535331726,0.017671870067715645,-0.023761436343193054
1768416592506392300,11.967392333984375,0.033190205693244934,0.024993838742375374,-0.012589337304234505
1768416592516394500,11.97739453125,0.03288900852203369,0.03159048780798912,-0.006473388988524675
1768416592526395400,11.9873955078125,0.03167501464486122,0.03388838469982147,-0.016746018081903458
1768416592536396300,11.997396240234375,0.030123990029096603,0.03843466937541962,-0.028536366298794746
1768416592546397200,12.007397216796875,0.028564775362610817,0.0339963473379612,-0.02660682611167431
1768416592556399400,12.0173994140625,0.028684351593255997,0.031818680465221405,-0.01885170117020607
1768416592566400300,12.027400146484375,0.020575404167175293,0.04058961570262909,-0.0225679948925972
1768416592576401200,12.037401123046875,0.012141440063714981,0.04518836364150047,-0.03459136560559273
1768416592586402300,12.04740234375,0.009343460202217102,0.04813195765018463,-0.03732602298259735
1768416592596404200,12.057404296875,0.004784394055604935,0.045974001288414,-0.030112318694591522
1768416592606405400,12.0674052734375,0.0013356955023482442,0.041166387498378754,-0.01597626321017742
1768416592616406300,12.07740625,0.011234132573008537,0.03379635512828827,-0.012333324179053307
1768416592626408400,12.087408447265625,0.004467110149562359,0.031428489834070206,-0.02063542790710926
1768416592636409300,12.097409423828125,0.003533938666805625,0.04017724096775055,-0.02195102907717228
1768416592646410200,12.10741015625,0.0007666963501833379,0.05255500599741936,-0.023110318928956985
1768416592656411100,12.1174111328125,-0.007217460311949253,0.0481695793569088,-0.02782677672803402
1768416592666413300,12.127413330078125,-0.016294319182634354,0.04077562689781189,-0.034334391355514526
