time,seconds_elapsed,z,y,x
1768416580584848600,0.0458486328125,-0.01267078798264265,-0.00446905056014657,-0.01577257178723812
1768416580594849500,0.055849609375,-0.007161506451666355,-0.00031664984999224544,-0.01492142491042614
1768416580604850400,0.065850341796875,-0.005813414230942726,0.0034650389570742846,-0.018565163016319275
1768416580614852400,0.075852294921875,-0.004597414750605822,0.010338657535612583,-0.021759090945124626
1768416580624853500,0.085853515625,-0.007689611054956913,0.013734720647335052,-0.030161896720528603
1768416580634854700,0.095854736328125,-0.007553257513791323,0.014846856705844402,-0.03075604885816574
1768416580644856600,0.105856689453125,-0.007665909361094236,0.017533186823129654,-0.027058782055974007
1768416580654857700,0.115857666015625,-0.0059899818152189255,0.020127905532717705,-0.023150593042373657
1768416580664858600,0.125858642578125,-0.005334045272320509,0.025604162365198135,-0.021744975820183754
1768416580674859500,0.135859619140625,-0.004881574306637049,0.030583208426833153,-0.027728300541639328
1768416580684861400,0.145861328125,-0.007396130822598934,0.037158019840717316,-0.03503042086958885
1768416580694862600,0.155862548828125,-0.012182097882032394,0.038964178413152695,-0.03507862612605095
1768416580704863500,0.165863525390625,-0.013038037344813347,0.044021252542734146,-0.028743764385581017
1768416580714865400,0.175865478515625,-0.013148026540875435,0.05115000158548355,-0.02467871457338333
1768416580724866600,0.185866455078125,-0.00971787516027689,0.05663185566663742,-0.028292357921600342
1768416580734867500,0.195867431640625,-0.008268049918115139,0.06543280184268951,-0.03964141756296158
1768416580744869400,0.205869384765625,-0.004299407359212637,0.07132238149642944,-0.05011696368455887
1768416580754870500,0.21587060546875,-0.0005643238546326756,0.08122082054615021,-0.0573253408074379
1768416580764871700,0.22587158203125,0.0043739755637943745,0.0922822579741478,-0.07339645177125931
1768416580774872600,0.23587255859375,0.0070733558386564255,0.10134073346853256,-0.09570442140102386
1768416580784874500,0.24587451171875,0.0067569720558822155,0.11268793046474457,-0.12084359675645828
1768416580794875600,0.255875732421875,0.00755112711340189,0.12397414445877075,-0.13886919617652893
1768416580804876500,0.26587646484375,0.009170062839984894,0.13133378326892853,-0.15810760855674744
1768416580814878500,0.27587841796875,0.009295230731368065,0.14251480996608734,-0.177191823720932
1768416580824879400,0.28587939453125,0.0036485306918621063,0.13915522396564484,-0.2045067995786667
1768416580834880500,0.295880615234375,-0.006829410325735807,0.12835663557052612,-0.22904197871685028
1768416580844882400,0.30588232421875,-0.015786420553922653,0.11582726985216141,-0.24828384816646576
1768416580854883300,0.31588330078125,-0.02809768170118332,0.10236525535583496,-0.26111069321632385
1768416580864884700,0.325884765625,-0.03476011008024216,0.09165108948945999,-0.2748992145061493
1768416580874885600,0.3358857421875,-0.048045821487903595,0.08285067230463028,-0.2864101827144623
1768416580884887600,0.345887451171875,-0.06009875610470772,0.06552094966173172,-0.2955131530761719
1768416580894888700,0.355888671875,-0.07095859199762344,0.05217105895280838,-0.29520633816719055
1768416580904889600,0.3658896484375,-0.07796750217676163,0.033065807074308395,-0.2896440625190735
1768416580914891500,0.3758916015625,-0.08488186448812485,0.02522279880940914,-0.28769463300704956
1768416580924892400,0.385892333984375,-0.09074028581380844,0.012359464541077614,-0.296962171792984
1768416580934893600,0.3958935546875,-0.09185881912708282,-0.0010367685463279486,-0.30646032094955444
1768416580944895500,0.4058955078125,-0.09035519510507584,-0.006479204632341862,-0.3042765259742737
1768416580954896400,0.415896484375,-0.0817185640335083,-0.006870689336210489,-0.2899996042251587
1768416580964897500,0.4258974609375,-0.08090683072805405,-0.006388124544173479,-0.2660125195980072
1768416580974899500,0.4358994140625,-0.09069608151912689,-0.0018245317041873932,-0.23914973437786102
1768416580984900400,0.445900390625,-0.1029823049902916,0.00016005597717594355,-0.21256285905838013
1768416580994901500,0.455901611328125,-0.11365998536348343,0.0029318740125745535,-0.1913374662399292
1768416581004902700,0.465902587890625,-0.13090315461158752,0.010549047030508518,-0.17047825455665588
1768416581014904600,0.475904541015625,-0.14133982360363007,0.005261607468128204,-0.14363466203212738
1768416581024905500,0.485905517578125,-0.1497759073972702,0.0004087952256668359,-0.12295068800449371
1768416581034906600,0.49590673828125,-0.1594618260860443,-0.013042831793427467,-0.10632244497537613
1768416581044908500,0.505908447265625,-0.16667073965072632,-0.028200212866067886,-0.10176604241132736
1768416581054909400,0.515909423828125,-0.18654324114322662,-0.03244688734412193,-0.0836019515991211
1768416581064910300,0.525910400390625,-0.2091905027627945,-0.04224678874015808,-0.042511772364377975
1768416581074912500,0.53591259765625,-0.22366026043891907,-0.052313003689050674,0.024353010579943657
1768416581084913400,0.545913330078125,-0.24019262194633484,-0.06274194270372391,0.08622410148382187
1768416581094914600,0.55591455078125,-0.24880528450012207,-0.09325937181711197,0.1407400667667389
1768416581104915700,0.565915771484375,-0.2535065710544586,-0.11826219409704208,0.20138424634933472
1768416581114917600,0.575917724609375,-0.2455170899629593,-0.13042272627353668,0.2383587807416916
1768416581124918500,0.58591845703125,-0.23021429777145386,-0.13087092339992523,0.22881613671779633
1768416581134919700,0.595919677734375,-0.2201150506734848,-0.1193184033036232,0.18660344183444977
1768416581144921600,0.605921630859375,-0.2054663449525833,-0.09815053641796112,0.14207564294338226
1768416581154922500,0.615922607421875,-0.19377852976322174,-0.06354036182165146,0.1145462840795517
1768416581164923400,0.62592333984375,-0.1878252923488617,-0.01978888548910618,0.0990365669131279
1768416581174925600,0.635925537109375,-0.18988391757011414,0.03778732568025589,0.10445050895214081
1768416581184926500,0.645926513671875,-0.18574562668800354,0.11140003055334091,0.1340446174144745
1768416581194927400,0.65592724609375,-0.18051384389400482,0.18098630011081696,0.17260585725307465
1768416581204928500,0.665928466796875,-0.1792222112417221,0.2357744425535202,0.20846186578273773
1768416581214930400,0.675930419921875,-0.1789575070142746,0.2732754647731781,0.24409149587154388
1768416581224931600,0.685931640625,-0.18537172675132751,0.2961336672306061,0.2755575478076935
1768416581234932500,0.695932373046875,-0.19265760481357574,0.31194883584976196,0.29222679138183594
1768416581244934700,0.7059345703125,-0.1904735416173935,0.3201090395450592,0.29024407267570496
1768416581254935600,0.715935546875,-0.16761057078838348,0.32550114393234253,0.2644263207912445
1768416581264936400,0.7259365234375,-0.1344747245311737,0.33448556065559387,0.22917486727237701
1768416581274938600,0.735938720703125,-0.0964285358786583,0.34170621633529663,0.2076868861913681
1768416581284939500,0.745939453125,-0.058338940143585205,0.3373063802719116,0.20623652637004852
1768416581294940400,0.7559404296875,-0.01817873679101467,0.3359585702419281,0.21551071107387543
1768416581304943600,0.765943603515625,0.02267521806061268,0.32963037490844727,0.22015313804149628
1768416581314944500,0.775944580078125,0.05814612656831741,0.32383638620376587,0.20871086418628693
1768416581324945400,0.7859453125,0.07819600403308868,0.30742520093917847,0.1741318553686142
1768416581334946600,0.795946533203125,0.09310171753168106,0.28503361344337463,0.12320981174707413
1768416581344948500,0.805948486328125,0.10983222723007202,0.2644404470920563,0.07292480766773224
1768416581354949400,0.815949462890625,0.13073989748954773,0.2479778528213501,0.024291757494211197
1768416581364950800,0.82595068359375,0.15134824812412262,0.23892123997211456,-0.01630866527557373
1768416581374952400,0.835952392578125,0.1691512018442154,0.23680029809474945,-0.04694194346666336
1768416581384953600,0.84595361328125,0.18252746760845184,0.23914174735546112,-0.0662626400589943
1768416581394954800,0.855954833984375,0.19305068254470825,0.24613919854164124,-0.0888526439666748
1768416581404956700,0.865956787109375,0.2027328759431839,0.26185211539268494,-0.10074631869792938
1768416581414957600,0.87595751953125,0.2123231738805771,0.2840290665626526,-0.10439910739660263
1768416581424958500,0.88595849609375,0.2235523909330368,0.3191348612308502,-0.11185809224843979
1768416581434960600,0.895960693359375,0.23242898285388947,0.36591246724128723,-0.13646116852760315
1768416581444961500,0.90596142578125,0.24185124039649963,0.41414791345596313,-0.17517447471618652
1768416581454962400,0.91596240234375,0.2478441596031189,0.467023640871048,-0.22028470039367676
1768416581464963600,0.925963623046875,0.25251907110214233,0.5191723108291626,-0.2513488829135895
1768416581474965500,0.935965576171875,0.2626055181026459,0.5716181993484497,-0.2636350989341736
1768416581484966400,0.94596630859375,0.2523323893547058,0.6196792125701904,-0.2564943730831146
1768416581494967600,0.955967529296875,0.22156435251235962,0.6600924134254456,-0.2297879308462143
1768416581504969500,0.965969482421875,0.19971364736557007,0.6983346343040466,-0.20646075904369354
1768416581514970600,0.975970703125,0.18994437158107758,0.7448147535324097,-0.1764938086271286
1768416581524971500,0.985971435546875,0.16598230600357056,0.7516724467277527,-0.13398043811321259
1768416581534973700,0.9959736328125,0.09497365355491638,0.700321614742279,-0.06811753660440445
1768416581544974600,1.005974609375,-0.0009060074225999415,0.6126937866210938,0.013369068503379822
1768416581554975500,1.0159755859375,-0.09064415097236633,0.5196508765220642,0.0749855637550354
1768416581564976400,1.025976318359375,-0.12894439697265625,0.45666393637657166,0.09564103931188583
1768416581574978600,1.035978515625,-0.10493520647287369,0.4400346279144287,0.07280523329973221
1768416581584979500,1.0459794921875,-0.044740039855241776,0.4500851333141327,0.030714502558112144
1768416581594980400,1.05598046875,0.027176760137081146,0.4723353087902069,0.004983573220670223
1768416581604982500,1.065982421875,0.10528221726417542,0.5092965364456177,0.02129330486059189
1768416581614983700,1.075983642578125,0.18783408403396606,0.5615102052688599,0.05977145582437515
1768416581624984600,1.085984619140625,0.25134435296058655,0.6270732283592224,0.08504485338926315
1768416581634986800,1.09598681640625,0.2890736162662506,0.7078818082809448,0.07373414188623428
1768416581644987600,1.105987548828125,0.3083932399749756,0.785959005355835,0.04060468450188637
1768416581654988500,1.115988525390625,0.3061141073703766,0.8414331674575806,-0.004881574306637049
1768416581664990700,1.12599072265625,0.29013940691947937,0.8705921769142151,-0.0429658442735672
1768416581674991600,1.13599169921875,0.25925925374031067,0.8775078654289246,-0.06589512526988983
1768416581684992500,1.145992431640625,0.2128715217113495,0.860673725605011,-0.061348579823970795
1768416581694993400,1.155993408203125,0.1584508866071701,0.8245620727539062,-0.022709839046001434
1768416581704995600,1.16599560546875,0.11212494224309921,0.7728605270385742,0.030607709661126137
1768416581714996500,1.17599658203125,0.08769256621599197,0.7209911942481995,0.07362175732851028
1768416581724997600,1.18599755859375,0.08177448809146881,0.6696845889091492,0.09958171844482422
1768416581734999600,1.19599951171875,0.09513397514820099,0.6209021806716919,0.12481330335140228
1768416581745000700,1.206000732421875,0.11095155030488968,0.5827174782752991,0.15519943833351135
1768416581755001600,1.216001708984375,0.11876686662435532,0.5486606955528259,0.17993195354938507
1768416581765003800,1.226003662109375,0.11077311635017395,0.5201691389083862,0.18870386481285095
1768416581775004700,1.236004638671875,0.0967547744512558,0.4962158799171448,0.1899678111076355
1768416581785005600,1.246005615234375,0.07559968531131744,0.46751686930656433,0.19279901683330536
1768416581795007500,1.256007568359375,0.05867236852645874,0.443966805934906,0.18192826211452484
1768416581805008600,1.266008544921875,0.04610970616340637,0.4000816345214844,0.14836789667606354
1768416581815009500,1.276009521484375,0.02851393260061741,0.3412928879261017,0.11656629294157028
1768416581825010400,1.286010498046875,0.008237423375248909,0.27717888355255127,0.09885014593601227
1768416581835012600,1.2960126953125,-0.006411560345441103,0.22377024590969086,0.09438002854585648
1768416581845013500,1.306013427734375,-0.014279869385063648,0.17454570531845093,0.08805476129055023
1768416581855014700,1.3160146484375,-0.01619734615087509,0.11969976872205734,0.0785137191414833
1768416581865016600,1.3260166015625,-0.019282618537545204,0.05877409875392914,0.07569342851638794
1768416581875017700,1.336017822265625,-0.010759969241917133,0.025977538898587227,0.09355178475379944
1768416581885018600,1.3460185546875,0.0025947177782654762,0.03897376358509064,0.11535642296075821
1768416581895020500,1.3560205078125,0.011010839603841305,0.08620412647724152,0.11588186025619507
1768416581905021700,1.366021728515625,0.012808739207684994,0.1445462554693222,0.10456289350986481
1768416581915022600,1.376022705078125,0.003704190719872713,0.18990682065486908,0.09889781475067139
1768416581925024500,1.3860244140625,-0.017560884356498718,0.21894140541553497,0.08849391341209412
1768416581935025400,1.396025390625,-0.03176858276128769,0.24994193017482758,0.08743477612733841
1768416581945026600,1.406026611328125,-0.04794968292117119,0.2772878110408783,0.09868396818637848
1768416581955027500,1.41602734375,-0.07370804250240326,0.29255783557891846,0.12955613434314728
1768416581965029400,1.426029296875,-0.1062856912612915,0.29055753350257874,0.17595425248146057
1768416581975030800,1.43603076171875,-0.1285340040922165,0.2849276065826416,0.22431565821170807
1768416581985031700,1.44603173828125,-0.15934064984321594,0.26528945565223694,0.2612539827823639
1768416581995033600,1.45603369140625,-0.19057899713516235,0.23549453914165497,0.28900089859962463
1768416582005034500,1.466034423828125,-0.20535607635974884,0.2142675518989563,0.3145044147968292
1768416582015035600,1.47603564453125,-0.2208026796579361,0.176367849111557,0.33360087871551514
1768416582025037600,1.48603759765625,-0.22335265576839447,0.12991991639137268,0.38459986448287964
1768416582035038500,1.49603857421875,-0.17751246690750122,0.08353244513273239,0.4968619644641876
1768416582045039600,1.50603955078125,-0.1650179773569107,-0.02502545900642872,0.6203674077987671
1768416582055041500,1.51604150390625,-0.15022093057632446,-0.06982115656137466,0.7243225574493408
1768416582065042400,1.52604248046875,-0.09609270840883255,-0.003910585772246122,0.7713891267776489
1768416582075043600,1.536043701171875,-0.026080602779984474,0.12224069237709045,0.6680914759635925
1768416582085044700,1.546044677734375,0.04308249056339264,0.21174927055835724,0.40330377221107483
1768416582095046400,1.55604638671875,0.08462060987949371,0.23413313925266266,0.12107981741428375
1768416582105047600,1.566047607421875,0.1086612343788147,0.2371041625738144,-0.01696540042757988
1768416582115048700,1.576048583984375,0.13139984011650085,0.20743148028850555,-0.019237076863646507
1768416582125050600,1.586050537109375,0.1520896703004837,0.15737444162368774,0.04297356680035591
1768416582135051500,1.596051513671875,0.1723960041999817,0.0951736569404602,0.11667148768901825
1768416582145052700,1.606052734375,0.1670268028974533,0.027089940384030342,0.18315544724464417
1768416582155054600,1.6160546875,0.14922064542770386,-0.03680914640426636,0.232406347990036
1768416582165055500,1.626055419921875,0.12916943430900574,-0.07804979383945465,0.2612893879413605
1768416582175056400,1.636056396484375,0.10411308705806732,-0.09801071882247925,0.279631644487381
1768416582185057500,1.6460576171875,0.07484175264835358,-0.09328041225671768,0.2805461883544922
1768416582195059500,1.6560595703125,0.037823546677827835,-0.055275771766901016,0.2607101500034332
1768416582205060600,1.666060546875,-0.0016112125013023615,-0.01236106175929308,0.22586669027805328
1768416582215061800,1.676061767578125,-0.034744665026664734,0.027115507051348686,0.1822667419910431
1768416582225063700,1.686063720703125,-0.056898701936006546,0.06518912315368652,0.13944551348686218
1768416582235064600,1.696064697265625,-0.05572105199098587,0.09099622070789337,0.10694882273674011
1768416582245065500,1.7060654296875,-0.03140905499458313,0.11803822219371796,0.08146529644727707
1768416582255067600,1.716067626953125,0.00848349928855896,0.14066870510578156,0.05414313077926636
1768416582265068500,1.726068603515625,0.05307280644774437,0.16488616168498993,0.021853899583220482
1768416582275069400,1.7360693359375,0.06263887882232666,0.1695251166820526,-0.005386243108659983
1768416582285071600,1.746071533203125,0.058342669159173965,0.1516105681657791,-0.00890640914440155
1768416582295072500,1.756072509765625,0.052255481481552124,0.14972637593746185,0.02201741747558117
1768416582305073000,1.766072998046875,0.043713923543691635,0.12110858410596848,0.046117428690195084
1768416582315074000,1.776073974609375,0.013188506476581097,0.08125490695238113,0.050689008086919785
1768416582325076000,1.786075927734375,-0.010698983445763588,0.038784679025411606,0.031158186495304108
1768416582335076900,1.796076904296875,-0.03876657038927078,0.003163036424666643,-0.0031531827989965677
1768416582345078000,1.806078125,-0.05263737961649895,-0.018967298790812492,-0.03501950204372406
1768416582355080000,1.816079833984375,-0.06738117337226868,-0.029279857873916626,-0.05651973560452461
1768416582365080800,1.826080810546875,-0.06506022810935974,-0.028806880116462708,-0.06368150562047958
1768416582375082000,1.83608203125,-0.058890748769044876,-0.02431945502758026,-0.07443828135728836
1768416582385084000,1.846083984375,-0.04003290459513664,-0.014082263223826885,-0.08521716296672821
1768416582395084800,1.856084716796875,-0.026432938873767853,0.001865277998149395,-0.10007306933403015
1768416582405085700,1.866085693359375,-0.01956145092844963,0.008361526764929295,-0.11308634281158447
1768416582415087900,1.876087890625,-0.021986259147524834,0.0011345066595822573,-0.11934663355350494
1768416582425088800,1.8860888671875,-0.028718197718262672,-0.017188573256134987,-0.12539440393447876
1768416582435090000,1.89608984375,-0.037031520158052444,-0.0432574599981308,-0.13661137223243713
1768416582445091000,1.906091064453125,-0.03853114694356918,-0.06046734005212784,-0.14281201362609863
1768416582455093000,1.916093017578125,-0.040529850870370865,-0.09664185345172882,-0.15709906816482544
1768416582465094000,1.926093994140625,-0.039198536425828934,-0.11833543330430984,-0.15604259073734283
1768416582475094800,1.9360947265625,-0.04549078643321991,-0.13988599181175232,-0.14342907071113586
1768416582485097000,1.946096923828125,-0.04923146218061447,-0.1522260159254074,-0.1286914050579071
1768416582495097900,1.956097900390625,-0.04500209540128708,-0.15595205128192902,-0.11762836575508118
1768416582505098800,1.9660986328125,-0.042508844286203384,-0.15732011198997498,-0.11833436787128448
1768416582515101000,1.976100830078125,-0.04194745048880577,-0.15927913784980774,-0.12098580598831177
1768416582525101800,1.986101806640625,-0.04259433224797249,-0.16129036247730255,-0.12107795476913452
1768416582535102700,1.996102783203125,-0.042607381939888,-0.15688522160053253,-0.10799464583396912
1768416582545105000,2.00610498046875,-0.03725789114832878,-0.14707520604133606,-0.09653692692518234
1768416582555106000,2.01610595703125,-0.034695129841566086,-0.13860315084457397,-0.08821241557598114
1768416582565107000,2.02610693359375,-0.028145086020231247,-0.1280122995376587,-0.08618761599063873
1768416582575107800,2.03610791015625,-0.023360183462500572,-0.12111310660839081,-0.09369373321533203
1768416582585110000,2.046110107421875,-0.020716197788715363,-0.11852797865867615,-0.10245952755212784
1768416582595111000,2.05611083984375,-0.018689265474677086,-0.12138448655605316,-0.10091649740934372
1768416582605111800,2.06611181640625,-0.01625780016183853,-0.12212777137756348,-0.09389373660087585
1768416582615114000,2.076114013671875,-0.014722220599651337,-0.12310648709535599,-0.09070567041635513
1768416582625115000,2.086114990234375,-0.01588495634496212,-0.12577496469020844,-0.08879005908966064
1768416582635115800,2.09611572265625,-0.01648869551718235,-0.12736621499061584,-0.08672451227903366
1768416582645118000,2.106117919921875,-0.016474580392241478,-0.12391555309295654,-0.0831550732254982
1768416582655118800,2.116118896484375,-0.015730226412415504,-0.12784051895141602,-0.07759599387645721
1768416582665120000,2.1261201171875,-0.02106027863919735,-0.13512399792671204,-0.07274770736694336
1768416582675121000,2.136120849609375,-0.024756478145718575,-0.14497503638267517,-0.0669603943824768
1768416582685123000,2.146123046875,-0.03352280706167221,-0.15310139954090118,-0.060568273067474365
1768416582695124000,2.1561240234375,-0.036078907549381256,-0.15665006637573242,-0.05658232048153877
1768416582705124900,2.166124755859375,-0.03454679250717163,-0.15761040151119232,-0.049727074801921844
1768416582715127000,2.176126953125,-0.02863510698080063,-0.15428677201271057,-0.04623141139745712
1768416582725128000,2.1861279296875,-0.02503424696624279,-0.15049603581428528,-0.0476711168885231
1768416582735128800,2.19612890625,-0.018920693546533585,-0.14377553761005402,-0.05007302016019821
1768416582745131000,2.206131103515625,-0.014763233251869678,-0.13529950380325317,-0.052380915731191635
1768416582755132000,2.2161318359375,-0.007650729268789291,-0.12449585646390915,-0.05619536340236664
1768416582765132800,2.2261328125,-0.0059905145317316055,-0.1153138056397438,-0.05534021928906441
1768416582775134700,2.236134765625,-0.005964149255305529,-0.10627131164073944,-0.050748396664857864
1768416582785135900,2.246135986328125,-0.0038016624748706818,-0.1021876186132431,-0.046418096870183945
1768416582795137000,2.256136962890625,-0.00577879324555397,-0.09907704591751099,-0.04326970875263214
1768416582805138000,2.266137939453125,-0.012596751563251019,-0.09866399317979813,-0.04340526461601257
1768416582815140000,2.27614013671875,-0.013291836716234684,-0.09132405370473862,-0.04569558426737785
1768416582825141000,2.28614111328125,-0.01623968966305256,-0.0835161954164505,-0.04776699095964432
1768416582835142000,2.296141845703125,-0.015005847439169884,-0.07242120057344437,-0.0498325377702713
1768416582845143800,2.306143798828125,-0.015357118099927902,-0.06109318137168884,-0.0484415665268898
1768416582855145000,2.31614501953125,-0.015426626428961754,-0.054061103612184525,-0.04778856039047241
1768416582865145900,2.326145751953125,-0.014430604875087738,-0.04836114123463631,-0.04596615955233574
1768416582875147800,2.336147705078125,-0.01227584108710289,-0.041070472449064255,-0.04435894265770912
1768416582885149000,2.34614892578125,-0.010490990243852139,-0.034515634179115295,-0.045749910175800323
1768416582895149800,2.35614990234375,-0.007254450581967831,-0.02810673601925373,-0.05054892599582672
1768416582905151000,2.36615087890625,-0.005372128449380398,-0.019762519747018814,-0.057133328169584274
1768416582915153000,2.37615283203125,0.0028357338160276413,-0.0038282941095530987,-0.06022845208644867
1768416582925154000,2.386154052734375,0.011419101618230343,0.01884452812373638,-0.06723043322563171
1768416582935155000,2.396155029296875,0.017717745155096054,0.03905285894870758,-0.07840452343225479
1768416582945156900,2.406156982421875,0.021560419350862503,0.05643584579229355,-0.08490397036075592
1768416582955158000,2.416157958984375,0.026518426835536957,0.07346862554550171,-0.08819324523210526
1768416582965159000,2.426158935546875,0.025286979973316193,0.08366693556308746,-0.09157945215702057
1768416582975160800,2.436160888671875,0.019232816994190216,0.08827846497297287,-0.10222596675157547
1768416582985161700,2.44616162109375,0.012241752818226814,0.09198292344808578,-0.11117792129516602
1768416582995163000,2.456162841796875,-0.0022708773612976074,0.08401793986558914,-0.1129784807562828
1768416583005164000,2.4661640625,-0.016088422387838364,0.07178710401058197,-0.10874591767787933
1768416583015165700,2.476165771484375,-0.027332289144396782,0.05591200292110443,-0.10202942788600922
1768416583025167000,2.4861669921875,-0.03802940621972084,0.0484442301094532,-0.10134126991033554
1768416583035168000,2.49616796875,-0.04586629197001457,0.03925366327166557,-0.10026188939809799
1768416583045170000,2.506169921875,-0.0484389066696167,0.02574850618839264,-0.10549313575029373
1768416583055171000,2.516171142578125,-0.0505654402077198,0.009987653233110905,-0.1102636530995369
1768416583065172000,2.526171875,-0.05130686238408089,-0.004563592839986086,-0.11479742079973221
1768416583075174000,2.536173828125,-0.049062617123126984,-0.021460285410284996,-0.11026552319526672
1768416583085174800,2.5461748046875,-0.04977954179048538,-0.03759478032588959,-0.10023552179336548
1768416583095176000,2.556176025390625,-0.054375357925891876,-0.051784366369247437,-0.08334122598171234
1768416583105177900,2.566177734375,-0.06614626199007034,-0.07107630372047424,-0.07784899324178696
1768416583115178800,2.5761787109375,-0.07556373625993729,-0.08845902234315872,-0.07387076318264008
1768416583125180000,2.586179931640625,-0.08209380507469177,-0.10467874258756638,-0.06734814494848251
1768416583135181000,2.59618115234375,-0.08805955201387405,-0.11590822786092758,-0.061040185391902924
1768416583145182700,2.6061826171875,-0.08563820272684097,-0.12426256388425827,-0.05331781506538391
1768416583155183900,2.616183837890625,-0.08671252429485321,-0.13161101937294006,-0.04855368658900261
1768416583165185000,2.62618505859375,-0.08810163289308548,-0.14341415464878082,-0.04776991903781891
1768416583175187000,2.63618701171875,-0.08563581109046936,-0.1547006368637085,-0.041666753590106964
1768416583185187800,2.646187744140625,-0.08285413682460785,-0.16088715195655823,-0.03665601462125778
1768416583195189000,2.65618896484375,-0.0774306058883667,-0.16167332231998444,-0.03149321302771568
1768416583205191000,2.66619091796875,-0.0693572387099266,-0.162811279296875,-0.030296653509140015
1768416583215191800,2.67619189453125,-0.06570391356945038,-0.1717834770679474,-0.024564465507864952
1768416583225192700,2.686192626953125,-0.06525223702192307,-0.18280337750911713,-0.024656077846884727
1768416583235193900,2.69619384765625,-0.07072849571704865,-0.1925758421421051,-0.02672215737402439
1768416583245195800,2.70619580078125,-0.07358447462320328,-0.19910351932048798,-0.02087838388979435
1768416583255197000,2.716197021484375,-0.0730462446808815,-0.2097625434398651,-0.012233496643602848
1768416583265198000,2.726197998046875,-0.07181134074926376,-0.2145027071237564,0.0014626081101596355
1768416583275200000,2.736199951171875,-0.07280070334672928,-0.2233089804649353,0.012308064848184586
1768416583285201000,2.746200927734375,-0.0727386549115181,-0.2320111244916916,0.018442124128341675
1768416583295202000,2.7562021484375,-0.06698436290025711,-0.23680268228054047,0.022461898624897003
1768416583305204000,2.766203857421875,-0.056463807821273804,-0.24465236067771912,0.02436126582324505
1768416583315204900,2.776204833984375,-0.05203736945986748,-0.2540906071662903,0.0301994476467371
1768416583325205800,2.786205810546875,-0.05115639418363571,-0.26658162474632263,0.03835378214716911
1768416583335207000,2.79620703125,-0.044201016426086426,-0.27747929096221924,0.047265514731407166
1768416583345208800,2.806208740234375,-0.038904257118701935,-0.29232320189476013,0.06537075340747833
1768416583355209700,2.816209716796875,-0.037456560879945755,-0.3098374903202057,0.07259190827608109
1768416583365211100,2.826211181640625,-0.04279406741261482,-0.3332594633102417,0.06234646588563919
1768416583375212800,2.836212890625,-0.05446856841444969,-0.36277154088020325,0.04302816092967987
1768416583385214000,2.8462138671875,-0.06334994733333588,-0.3904564380645752,0.038724493235349655
1768416583395214800,2.85621484375,-0.0668189749121666,-0.4036180377006531,0.04447292536497116
1768416583405217000,2.866217041015625,-0.062238872051239014,-0.4037477374076843,0.05645368993282318
1768416583415218000,2.876218017578125,-0.062195729464292526,-0.39942675828933716,0.07170508056879044
1768416583425218800,2.88621875,-0.06457073986530304,-0.39983847737312317,0.10282891243696213
1768416583435221000,2.896220947265625,-0.07066964358091354,-0.40154582262039185,0.14230787754058838
1768416583445222000,2.906221923828125,-0.07854460924863815,-0.4035661220550537,0.17621630430221558
1768416583455222800,2.916222900390625,-0.08395455777645111,-0.40396079421043396,0.19553327560424805
1768416583465223700,2.9262236328125,-0.09259065240621567,-0.40597066283226013,0.2038617879152298
1768416583475225900,2.936225830078125,-0.09996814280748367,-0.4024936556816101,0.20653772354125977
1768416583485226800,2.946226806640625,-0.10633336007595062,-0.39333051443099976,0.21426382660865784
1768416583495228000,2.956227783203125,-0.11066712439060211,-0.3733102083206177,0.21752886474132538
1768416583505229800,2.966229736328125,-0.11722169816493988,-0.34748101234436035,0.2235686480998993
1768416583515231000,2.97623095703125,-0.12239568680524826,-0.31984350085258484,0.2320643961429596
1768416583525231900,2.98623193359375,-0.1299196481704712,-0.2936585247516632,0.23581784963607788
1768416583535234000,2.996234130859375,-0.1387924998998642,-0.27010151743888855,0.2321525514125824
1768416583545235000,3.00623486328125,-0.15095116198062897,-0.2527558207511902,0.2197643220424652
1768416583555235800,3.01623583984375,-0.16352501511573792,-0.23423220217227936,0.21285288035869598
1768416583565236700,3.02623681640625,-0.17648927867412567,-0.22077712416648865,0.20603306591510773
1768416583575239000,3.036239013671875,-0.18223239481449127,-0.2013285905122757,0.20396777987480164
1768416583585239800,3.04623974609375,-0.18207313120365143,-0.18300816416740417,0.20399734377861023
1768416583595240700,3.05624072265625,-0.1724623143672943,-0.16105253994464874,0.19279208779335022
1768416583605243000,3.066242919921875,-0.1570924073457718,-0.13528591394424438,0.17491748929023743
1768416583615244000,3.076244140625,-0.1383426934480667,-0.10668623447418213,0.15290459990501404
1768416583625245000,3.086244873046875,-0.12106171250343323,-0.08051135390996933,0.13136255741119385
1768416583635247000,3.0962470703125,-0.11025220155715942,-0.060395434498786926,0.10765136033296585
1768416583645248000,3.106248046875,-0.10574667155742645,-0.04567693918943405,0.08770907670259476
1768416583655249000,3.116248779296875,-0.1007031723856926,-0.041009217500686646,0.08342138677835464
1768416583665249800,3.126249755859375,-0.09030566364526749,-0.042150914669036865,0.08200165629386902
1768416583675252000,3.136251953125,-0.07676668465137482,-0.0463150329887867,0.08206690847873688
1768416583685252900,3.1462529296875,-0.0572638213634491,-0.05290449410676956,0.07634084671735764
1768416583695253800,3.156253662109375,-0.040098682045936584,-0.05740496888756752,0.0694832056760788
1768416583705256000,3.166255859375,-0.02425180934369564,-0.06350281089544296,0.06102260574698448
1768416583715256800,3.1762568359375,-0.00878177396953106,-0.06937241554260254,0.04924078285694122
1768416583725258000,3.186258056640625,0.003040797309949994,-0.07161160558462143,0.029857497662305832
1768416583735260000,3.196260009765625,0.014594655483961105,-0.06941848993301392,0.007289338391274214
1768416583745261000,3.206260986328125,0.02666010707616806,-0.07295969128608704,-0.01829778030514717
1768416583755262000,3.216261962890625,0.02991422265768051,-0.08474791049957275,-0.0471334233880043
1768416583765262800,3.226262939453125,0.03615747019648552,-0.0985979437828064,-0.07261668145656586
1768416583775265000,3.23626513671875,0.0402480885386467,-0.11677881330251694,-0.09417843073606491
1768416583785266000,3.246265869140625,0.044446561485528946,-0.12711480259895325,-0.11002610623836517
1768416583795266800,3.256266845703125,0.05564914643764496,-0.13092845678329468,-0.12678910791873932
1768416583805269000,3.26626904296875,0.06613720953464508,-0.1300155222415924,-0.1387096792459488
1768416583815270000,3.276269775390625,0.0786127895116806,-0.12005263566970825,-0.15267103910446167
1768416583825270800,3.286270751953125,0.09226814657449722,-0.10686066746711731,-0.16450293362140656
1768416583835272700,3.296272705078125,0.10456129908561707,-0.10299962013959885,-0.17296405136585236
1768416583845273900,3.30627392578125,0.11747043579816818,-0.09400079399347305,-0.17817746102809906
1768416583855275000,3.31627490234375,0.12571504712104797,-0.08289701491594315,-0.18269924819469452
1768416583865276000,3.32627587890625,0.13052073121070862,-0.07292933762073517,-0.1922922134399414
1768416583875278000,3.336278076171875,0.13203953206539154,-0.06596197187900543,-0.20281435549259186
1768416583885279000,3.346279052734375,0.13217401504516602,-0.06986536830663681,-0.2162654548883438
1768416583895279900,3.35627978515625,0.13458897173404694,-0.07280736416578293,-0.22352948784828186
1768416583905281800,3.36628173828125,0.13838183879852295,-0.08259208500385284,-0.23458534479141235
1768416583915283000,3.376282958984375,0.1469327211380005,-0.09131047129631042,-0.2341933250427246
1768416583925283800,3.386283935546875,0.15524977445602417,-0.09195256233215332,-0.24142779409885406
1768416583935285800,3.39628564453125,0.16615141928195953,-0.09400825202465057,-0.24724654853343964
1768416583945287000,3.406286865234375,0.18312720954418182,-0.09772629290819168,-0.24467073380947113
1768416583955287800,3.416287841796875,0.19691546261310577,-0.1039423793554306,-0.24950437247753143
1768416583965289000,3.4262890625,0.2079329639673233,-0.09737981855869293,-0.2624254822731018
1768416583975291100,3.436291015625,0.22545894980430603,-0.08543580770492554,-0.2736416757106781
1768416583985292000,3.4462919921875,0.2454928457736969,-0.06138186901807785,-0.27779725193977356
1768416583995293000,3.45629296875,0.26106196641921997,-0.03734284266829491,-0.2808931767940521
1768416584005294800,3.466294921875,0.2723183333873749,-0.014315023086965084,-0.28705894947052
1768416584015296000,3.4762958984375,0.2827853560447693,0.008687498047947884,-0.2908720374107361
1768416584025297000,3.486296875,0.287212073802948,0.031243672594428062,-0.2942529320716858
1768416584035298800,3.496298828125,0.2888360619544983,0.04901760816574097,-0.2990356981754303
1768416584045300000,3.506300048828125,0.2857142984867096,0.05005331337451935,-0.30621078610420227
1768416584055300900,3.51630078125,0.2840181291103363,0.04578692838549614,-0.3095754384994507
1768416584065302000,3.526302001953125,0.28205326199531555,0.03584694862365723,-0.3026978075504303
1768416584075303700,3.5363037109375,0.2739255428314209,0.014458567835390568,-0.2761828601360321
1768416584085305000,3.54630517578125,0.25430044531822205,-0.01326653640717268,-0.250936359167099
1768416584095306000,3.556305908203125,0.22030706703662872,-0.05215641111135483,-0.22709839046001434
1768416584105308000,3.566307861328125,0.1872633695602417,-0.09371184557676315,-0.2061864584684372
1768416584115309000,3.57630908203125,0.15154078602790833,-0.1135886162519455,-0.18817336857318878
1768416584125310000,3.58631005859375,0.11762170493602753,-0.12988609075546265,-0.17756013572216034
1768416584135312000,3.596311767578125,0.07831238210201263,-0.14253132045269012,-0.17311985790729523
1768416584145312800,3.606312744140625,0.03924727067351341,-0.1519533097743988,-0.1676931232213974
1768416584155314000,3.61631396484375,0.013147493824362755,-0.16003626585006714,-0.15850095450878143
1768416584165314800,3.626314697265625,0.0039012646302580833,-0.15387850999832153,-0.1387118101119995
1768416584175316700,3.636316650390625,0.02286696620285511,-0.1201101616024971,-0.1221109926700592
1768416584185318000,3.64631787109375,0.050099387764930725,-0.05796423181891441,-0.12918728590011597
1768416584195319000,3.656319091796875,0.07950414717197418,0.025918150320649147,-0.13892832398414612
1768416584205321000,3.666321044921875,0.09776917099952698,0.10728731006383896,-0.15079990029335022
1768416584215322000,3.676322021484375,0.10293357074260712,0.19263975322246552,-0.16625341773033142
1768416584225323000,3.686322998046875,0.09798435121774673,0.27141764760017395,-0.19030097126960754
1768416584235324000,3.696323974609375,0.08284109085798264,0.3526898920536041,-0.21723803877830505
1768416584245325800,3.706325927734375,0.054250989109277725,0.4026976525783539,-0.2333887815475464
1768416584255327000,3.716326904296875,0.011550662107765675,0.40721702575683594,-0.2332436442375183
1768416584265327900,3.726327880859375,-0.050038401037454605,0.3701319992542267,-0.22412312030792236
1768416584275329800,3.736329833984375,-0.12203057110309601,0.3230249285697937,-0.205790176987648
1768416584285331000,3.7463310546875,-0.1846044659614563,0.2849193513393402,-0.19700413942337036
1768416584295331800,3.756331787109375,-0.19452260434627533,0.2664543390274048,-0.19858500361442566
1768416584305334000,3.766333984375,-0.15503059327602386,0.2670724391937256,-0.21428166329860687
1768416584315335000,3.7763349609375,-0.09326416999101639,0.28303009271621704,-0.24553945660591125
1768416584325336300,3.78633642578125,-0.021322332322597504,0.31641414761543274,-0.27185842394828796
1768416584335337200,3.796337158203125,0.035838156938552856,0.33729228377342224,-0.30206984281539917
1768416584345339100,3.806339111328125,0.07246994227170944,0.34790390729904175,-0.32642126083374023
1768416584355340300,3.81634033203125,0.08273962140083313,0.3620136082172394,-0.36525413393974304
1768416584365341200,3.826341064453125,0.0894305482506752,0.3726244270801544,-0.42109930515289307
1768416584375343000,3.836343017578125,0.08570078760385513,0.3761885464191437,-0.46868571639060974
1768416584385344300,3.84634423828125,0.07054926455020905,0.3664693534374237,-0.46770328283309937
1768416584395345200,3.85634521484375,0.046353116631507874,0.3312511742115021,-0.41931578516960144
1768416584405347000,3.86634716796875,0.029024194926023483,0.28227537870407104,-0.3660048842430115
1768416584415348000,3.876347900390625,0.039616383612155914,0.22796578705310822,-0.3463084101676941
1768416584425349000,3.88634912109375,0.07815498858690262,0.18172958493232727,-0.3346291184425354
1768416584435350300,3.896350341796875,0.12511584162712097,0.14255741238594055,-0.3080635666847229
1768416584445352200,3.906352294921875,0.1666204035282135,0.11966781318187714,-0.28151530027389526
1768416584455353300,3.916353271484375,0.18746070563793182,0.11280857026576996,-0.26679494976997375
1768416584465354200,3.926354248046875,0.20265963673591614,0.12572143971920013,-0.2593593895435333
1768416584475356200,3.936356201171875,0.20777183771133423,0.13453011214733124,-0.2520706057548523
1768416584485357000,3.946357177734375,0.20775878429412842,0.1511751413345337,-0.23505352437496185
1768416584495358200,3.956358154296875,0.20134802162647247,0.16810059547424316,-0.21694429218769073
1768416584505359000,3.966359130859375,0.19198009371757507,0.1769753098487854,-0.19936130940914154
1768416584515361000,3.976361083984375,0.18030932545661926,0.19361020624637604,-0.18558424711227417
1768416584525362200,3.986362060546875,0.17054857313632965,0.20899929106235504,-0.18052875995635986
1768416584535363000,3.996363037109375,0.15578879415988922,0.22152280807495117,-0.173342764377594
1768416584545365000,4.006364990234375,0.14181892573833466,0.23888182640075684,-0.15869536995887756
1768416584555366100,4.0163662109375,0.12000523507595062,0.2530229389667511,-0.12710441648960114
1768416584565367300,4.0263671875,0.09863709658384323,0.2745892107486725,-0.08771201223134995
1768416584575369200,4.036369140625,0.08323124051094055,0.30184879899024963,-0.055153001099824905
1768416584585370000,4.0463701171875,0.08113773167133331,0.33227968215942383,-0.04313042759895325
1768416584595371300,4.056371337890625,0.08783184736967087,0.3763086497783661,-0.037823546677827835
1768416584605372200,4.0663720703125,0.08625179529190063,0.40618613362312317,-0.030173880979418755
1768416584615374000,4.0763740234375,0.06784642487764359,0.4312230348587036,-0.016636500135064125
1768416584625375000,4.086375,0.053353503346443176,0.45824161171913147,0.0024000408593565226
1768416584635376000,4.096376220703125,0.04653128236532211,0.47147566080093384,0.017463944852352142
1768416584645378000,4.1063779296875,0.050271160900592804,0.47428953647613525,0.03199175372719765
1768416584655379000,4.11637890625,0.058462243527173996,0.48206835985183716,0.046428218483924866
1768416584665380400,4.12638037109375,0.06678967922925949,0.48970258235931396,0.06967734545469284
1768416584675382000,4.136382080078125,0.07902877032756805,0.5036652684211731,0.09705544263124466
1768416584685383200,4.146383056640625,0.07798987627029419,0.5050873756408691,0.12420770525932312
1768416584695384300,4.15638427734375,0.06557182222604752,0.4845120906829834,0.15289287269115448
1768416584705385200,4.16638525390625,0.04909643903374672,0.4701477885246277,0.17554119229316711
1768416584715387100,4.17638720703125,0.02653839997947216,0.4486267864704132,0.18194156885147095
1768416584725388000,4.186387939453125,0.0049042110331356525,0.42057090997695923,0.1872497797012329
1768416584735389200,4.19638916015625,-0.012041483074426651,0.40259990096092224,0.20053017139434814
1768416584745391000,4.20639111328125,-0.02304380014538765,0.3748804032802582,0.22675618529319763
1768416584755392000,4.21639208984375,-0.027510985732078552,0.3570369482040405,0.2584850788116455
1768416584765393200,4.22639306640625,-0.02317695878446102,0.3429262042045593,0.28417685627937317
1768416584775394300,4.236394287109375,-0.022126607596874237,0.32418739795684814,0.2971744239330292
1768416584785396200,4.246396240234375,-0.018801117315888405,0.31862086057662964,0.3014751672744751
1768416584795397000,4.256397216796875,-0.017236510291695595,0.3060257136821747,0.30085596442222595
1768416584805398300,4.266398193359375,-0.018329739570617676,0.28067800402641296,0.294198602437973
1768416584815400200,4.276400146484375,-0.018314026296138763,0.2527446448802948,0.2874336540699005
1768416584825401000,4.286401123046875,-0.01372513361275196,0.23643676936626434,0.27630615234375
1768416584835402200,4.29640234375,-0.001716939965263009,0.20561707019805908,0.25870293378829956
1768416584845404200,4.306404052734375,0.012539493851363659,0.17106787860393524,0.2365693897008896
1768416584855405000,4.316405029296875,0.027120035141706467,0.15003317594528198,0.21487875282764435
1768416584865406000,4.326406005859375,0.03939560800790787,0.1248316839337349,0.2066621035337448
1768416584875407000,4.336406982421875,0.0516703836619854,0.09562505781650543,0.20901606976985931
1768416584885409000,4.346408935546875,0.046904124319553375,0.06409695744514465,0.21484385430812836
1768416584895410200,4.35641015625,0.031244205310940742,0.03362853452563286,0.20911060273647308
1768416584905411300,4.366411376953125,0.008775382302701473,0.006582002621144056,0.19674742221832275
1768416584915413200,4.376413330078125,-0.020293021574616432,-0.009972739033401012,0.18026910722255707
1768416584925414100,4.3864140625,-0.044085703790187836,-0.008773251436650753,0.17449191212654114
1768416584935415300,4.396415283203125,-0.062306515872478485,0.0012125372886657715,0.17354169487953186
1768416584945416200,4.406416259765625,-0.0776740238070488,0.01612650603055954,0.17387086153030396
1768416584955418000,4.416418212890625,-0.09343007951974869,0.01731906831264496,0.17922034859657288
1768416584965419000,4.4264189453125,-0.11553538590669632,0.005848035216331482,0.18788361549377441
1768416584975420200,4.436420166015625,-0.1398433893918991,-0.023783359676599503,0.19807234406471252
1768416584985422000,4.446422119140625,-0.15650679171085358,-0.05120433121919632,0.20792150497436523
1768416584995423000,4.456423095703125,-0.16911445558071136,-0.05113615468144417,0.21961598098278046
1768416585005424400,4.46642431640625,-0.16714264452457428,-0.03838147595524788,0.23581331968307495
1768416585015426000,4.476426025390625,-0.16456763446331024,-0.020681576803326607,0.26097220182418823
1768416585025427200,4.48642724609375,-0.17945045232772827,-0.01504339836537838,0.272978276014328
1768416585035428000,4.496427978515625,-0.20705650746822357,0.005802229046821594,0.2583519220352173
1768416585045429200,4.50642919921875,-0.22116035223007202,0.014287592843174934,0.2237023413181305
1768416585055431200,4.51643115234375,-0.2274523377418518,-0.0060264673084020615,0.17701978981494904
1768416585065432000,4.52643212890625,-0.2377859354019165,-0.046894270926713943,0.12494353204965591
1768416585075433200,4.53643310546875,-0.2716293931007385,-0.10369017720222473,0.0746673122048378
1768416585085435100,4.54643505859375,-0.3060249090194702,-0.12426842004060745,0.0697183609008789
1768416585095436000,4.55643603515625,-0.3092814087867737,-0.1436610221862793,0.09943071752786636
1768416585105437000,4.56643701171875,-0.28998202085494995,-0.18781597912311554,0.132155641913414
1768416585115438300,4.576438232421875,-0.26122307777404785,-0.3736524283885956,0.15537413954734802
1768416585125440000,4.58643994140625,-0.20485620200634003,-0.5476537942886353,0.17802299559116364
1768416585135441200,4.596441162109375,-0.15494057536125183,-0.8517175316810608,0.19639454782009125
1768416585145442300,4.6064423828125,-0.1771489530801773,-0.9436642527580261,0.1440056413412094
1768416585155444200,4.6164443359375,-0.1576807051897049,-1.0664724111557007,-0.05074493587017059
1768416585165445000,4.626445068359375,-0.18006829917430878,-1.1813182830810547,-0.3498786389827728
1768416585175446000,4.636446044921875,-0.23203802108764648,-1.2099153995513916,-0.620369017124176
1768416585185448200,4.6464482421875,-0.24733203649520874,-1.3073681592941284,-0.7969621419906616
1768416585195449000,4.656448974609375,-0.19260354340076447,-1.4076212644577026,-0.8765027523040771
1768416585205450000,4.666449951171875,-0.11801771819591522,-1.381810188293457,-0.8814607858657837
1768416585215451100,4.676451171875,-0.04411153495311737,-1.340800166130066,-0.8986994028091431
1768416585225453000,4.686453125,0.02883218042552471,-1.3054735660552979,-0.9662198424339294
1768416585235454200,4.6964541015625,0.12477122992277145,-1.2900999784469604,-1.0105897188186646
1768416585245455400,4.706455322265625,0.21423959732055664,-1.251606822013855,-0.9960044026374817
1768416585255457300,4.716457275390625,0.2630990147590637,-1.2160060405731201,-1.001373291015625
1768416585265458200,4.726458251953125,0.28504452109336853,-1.1899237632751465,-1.0169264078140259
1768416585275459000,4.736458984375,0.29527345299720764,-1.1649417877197266,-1.0264155864715576
1768416585285460200,4.746460205078125,0.34958702325820923,-1.076906681060791,-1.0141562223434448
1768416585295462100,4.756462158203125,0.3960070013999939,-0.9330317974090576,-0.940463125705719
1768416585305463000,4.766463134765625,0.5108100175857544,-0.7602280974388123,-0.7960113883018494
1768416585315464000,4.7764638671875,0.586315393447876,-0.6102409958839417,-0.7069430351257324
1768416585325466000,4.786466064453125,0.6111491322517395,-0.4950997531414032,-0.6598204970359802
1768416585335467000,4.796467041015625,0.5779632329940796,-0.36668452620506287,-0.6422620415687561
1768416585345468200,4.80646826171875,0.5021936297416687,-0.22999484837055206,-0.6643582582473755
1768416585355469000,4.816468994140625,0.3830866515636444,-0.09880673885345459,-0.7023229598999023
1768416585365471200,4.82647119140625,0.24987827241420746,0.028368525207042694,-0.732532799243927
1768416585375472000,4.83647216796875,0.16114334762096405,0.08766540139913559,-0.7320084571838379
1768416585385473000,4.84647314453125,0.12664689123630524,0.09115707129240036,-0.6953340172767639
1768416585395475200,4.85647509765625,0.15311072766780853,0.14174515008926392,-0.6041596531867981
1768416585405476000,4.86647607421875,0.24801486730575562,0.22124584019184113,-0.48917555809020996
1768416585415477000,4.87647705078125,0.36397501826286316,0.332794725894928,-0.36390843987464905
1768416585425479200,4.886479248046875,0.4292256534099579,0.4114125669002533,-0.2621879279613495
1768416585435480000,4.89647998046875,0.43634721636772156,0.4495999217033386,-0.1930440217256546
1768416585445481000,4.90648095703125,0.36210522055625916,0.4610845148563385,-0.11804967373609543
1768416585455482000,4.916482177734375,0.3877469301223755,0.3992493748664856,0.013174924068152905
1768416585465484000,4.926484130859375,0.35702285170555115,0.2633754312992096,0.1646486073732376
1768416585475485200,4.936485107421875,0.3280007839202881,0.13190370798110962,0.27754372358322144
1768416585485486000,4.946486083984375,0.3529790937900543,0.015866581350564957,0.3291645646095276
1768416585495488300,4.95648828125,0.5042530298233032,-0.09945468604564667,0.36508607864379883
1768416585505489200,4.9664892578125,0.7080482244491577,-0.08242030441761017,0.1501532793045044
1768416585515490000,4.976489990234375,0.8152897357940674,-0.186495840549469,-0.0920281931757927
1768416585525491000,4.986490966796875,0.884571373462677,-0.250711590051651,-0.3445291519165039
1768416585535493000,4.9964931640625,1.0285173654556274,-0.24726705253124237,-0.6025047898292542
1768416585545494000,5.006493896484375,1.2254751920700073,-0.2072077840566635,-0.7907553911209106
1768416585555495000,5.016494873046875,1.3411670923233032,-0.3523804247379303,-0.8770905137062073
1768416585565497000,5.0264970703125,1.3813267946243286,-0.5149804949760437,-0.8921847939491272
1768416585575498000,5.036498046875,1.4795982837677002,-0.5647163987159729,-0.7945002913475037
1768416585585499100,5.0464990234375,1.619714379310608,-0.4924967885017395,-0.7081049680709839
1768416585595501300,5.056501220703125,1.7294232845306396,-0.4251267910003662,-0.6935332417488098
1768416585605502200,5.066502197265625,1.6961941719055176,-0.35028398036956787,-0.8959038853645325
1768416585615503000,5.076503173828125,1.4994584321975708,-0.19421128928661346,-1.1952810287475586
1768416585625504000,5.08650390625,1.2459255456924438,-0.07040572166442871,-1.4377833604812622
1768416585635506200,5.096506103515625,1.0554320812225342,-0.11974983662366867,-1.614115834236145
1768416585645507000,5.106507080078125,0.9944243431091309,0.0002972087822854519,-1.627801775932312
1768416585655508000,5.116508056640625,1.1441720724105835,0.43561965227127075,-1.5751510858535767
1768416585665510100,5.12651025390625,1.4178043603897095,0.8520594835281372,-1.556827187538147
1768416585675511000,5.136510986328125,1.6332026720046997,1.080042839050293,-1.6520147323608398
1768416585685512200,5.14651220703125,1.625706672668457,1.0727816820144653,-1.7320441007614136
1768416585695513900,5.156513916015625,1.32375967502594,0.8743879795074463,-1.7546569108963013
1768416585705515300,5.166515380859375,0.8980922102928162,0.6478557586669922,-1.921366572380066
1768416585715516200,5.17651611328125,0.5557071566581726,0.3913730978965759,-2.350755214691162
1768416585725517000,5.18651708984375,0.6167033910751343,0.41076943278312683,-2.759099245071411
1768416585735519200,5.196519287109375,0.9243629574775696,0.5181299448013306,-3.0219500064849854
1768416585745520000,5.20652001953125,1.1420835256576538,0.5832924842834473,-3.105499505996704
1768416585755521000,5.21652099609375,1.1977615356445312,0.6805710792541504,-3.2644877433776855
1768416585765523000,5.22652294921875,1.1927744150161743,0.8672240376472473,-3.5958027839660645
1768416585775524000,5.236524169921875,1.184126615524292,1.1203199625015259,-3.8051750659942627
1768416585785525000,5.24652490234375,1.1327489614486694,1.228422999382019,-3.7040183544158936
1768416585795526100,5.256526123046875,0.9723795056343079,1.0264432430267334,-3.3746840953826904
1768416585805528000,5.266528076171875,0.8454548120498657,0.8537282347679138,-3.212437152862549
1768416585815529200,5.276529296875,1.0228285789489746,1.07524573802948,-1.975383996963501
1768416585825530000,5.286530029296875,1.0622398853302002,1.9014458656311035,-1.0941962003707886
1768416585835532000,5.296531982421875,1.0625452995300293,1.9760180711746216,-2.1219260692596436
1768416585845533200,5.306533203125,1.1583898067474365,1.522229552268982,-3.3283352851867676
1768416585855534000,5.3165341796875,0.856334388256073,1.772364854812622,-4.049132823944092
1768416585865536000,5.326535888671875,0.23061883449554443,2.660630702972412,-4.1534857749938965
1768416585875537200,5.336537109375,-0.32966098189353943,3.194679021835327,-3.996917486190796
1768416585885538000,5.3465380859375,-0.6158003211021423,3.389770984649658,-4.065329551696777
1768416585895539000,5.3565390625,-0.7084474563598633,3.082310914993286,-4.519825458526611
1768416585905541000,5.366541015625,-0.7241976261138916,2.7038917541503906,-5.14137601852417
1768416585915542000,5.3765419921875,-1.0976673364639282,2.039097309112549,-5.0220627784729
1768416585925543200,5.386543212890625,-1.6597110033035278,1.4802720546722412,-4.3037590980529785
1768416585935545000,5.396545166015625,-1.609432339668274,2.339775323867798,-4.4334588050842285
1768416585945546200,5.406546142578125,-0.7915289998054504,3.1064774990081787,-4.873615741729736
1768416585955547100,5.416547119140625,0.09635157138109207,4.550484657287598,-3.726083278656006
1768416585965548000,5.426548095703125,-0.8506341576576233,6.344970703125,-2.2944459915161133
1768416585975550200,5.43655029296875,-2.138916254043579,4.625839710235596,-2.1073849201202393
1768416585985551000,5.446551025390625,-2.492518663406372,2.2784883975982666,-2.5010390281677246
1768416585995552000,5.456552001953125,-1.9037452936172485,2.46185302734375,-2.9911420345306396
1768416586005554000,5.466553955078125,-1.0331735610961914,4.5847296714782715,-2.6371817588806152
1768416586015555000,5.47655517578125,-0.8707484602928162,4.104964733123779,-0.8567391633987427
1768416586025556000,5.486555908203125,-1.5145066976547241,2.438080310821533,0.05088901147246361
1768416586035558000,5.496557861328125,-2.284862518310547,1.965599536895752,0.04554538056254387
1768416586045559000,5.50655908203125,-2.5041956901550293,2.4209635257720947,0.27006450295448303
1768416586055560200,5.516560302734375,-2.3365354537963867,2.2173116207122803,0.5628721117973328
1768416586065561000,5.52656103515625,-1.9614585638046265,1.3082666397094727,0.46978506445884705
1768416586075563000,5.53656298828125,-1.4564212560653687,0.695990800857544,0.231678768992424
1768416586085564200,5.546564208984375,-1.0256978273391724,0.6925137639045715,0.07366809248924255
1768416586095565000,5.55656494140625,-0.7095734477043152,1.103280782699585,-0.017126789316534996
1768416586105567000,5.56656689453125,-0.5247841477394104,1.4375211000442505,-0.025844380259513855
1768416586115568000,5.576568115234375,-0.5383915901184082,1.325788140296936,-0.08582089841365814
1768416586125569000,5.586569091796875,-0.7327882051467896,0.9056606292724609,-0.008926383219659328
1768416586135571000,5.596571044921875,-0.9905135035514832,0.4864748418331146,0.07370298355817795
1768416586145571800,5.60657177734375,-1.0846171379089355,0.1569478064775467,0.033062878996133804
1768416586155573200,5.6165732421875,-0.9899736642837524,0.10093087702989578,0.04650997743010521
1768416586165574100,5.62657421875,-0.8060197830200195,0.18408168852329254,0.08983561396598816
1768416586175576000,5.636576171875,-0.6455020308494568,0.21262943744659424,0.10634055733680725
1768416586185577200,5.6465771484375,-0.5524027347564697,0.1904304027557373,0.09556274116039276
1768416586195578000,5.656578125,-0.5085902810096741,0.15457919239997864,0.05487097054719925
1768416586205580000,5.666580078125,-0.4679834544658661,0.03720675781369209,0.052989449352025986
1768416586215581200,5.676581298828125,-0.45608603954315186,-0.008676579222083092,0.10941224545240402
1768416586225582000,5.68658203125,-0.4997216761112213,0.12446709722280502,0.18507078289985657
1768416586235584000,5.696583984375,-0.5343995094299316,0.11638732999563217,0.2374439835548401
1768416586245585000,5.7065849609375,-0.5187432765960693,-0.015338475815951824,0.23693159222602844
1768416586255586000,5.7165859375,-0.4736250936985016,-0.1649942845106125,0.24652455747127533
1768416586265587200,5.726587158203125,-0.4325982928276062,-0.1873464584350586,0.2784358859062195
1768416586275588900,5.7365888671875,-0.38714584708213806,-0.11358088999986649,0.30882495641708374
1768416586285590300,5.74659033203125,-0.3952120244503021,0.05198996514081955,0.33701291680336
1768416586295591200,5.756591064453125,-0.46853765845298767,0.24532826244831085,0.35158440470695496
1768416586305593000,5.766593017578125,-0.5567412972450256,0.28878307342529297,0.30643048882484436
1768416586315593700,5.77659375,-0.6277709603309631,0.14151717722415924,0.22418570518493652
1768416586325594600,5.7865947265625,-0.6490954160690308,-0.061948057264089584,0.13837625086307526
1768416586335596500,5.796596435546875,-0.6296170949935913,-0.24713309109210968,0.09789194166660309
1768416586345597700,5.80659765625,-0.597810685634613,-0.40667295455932617,0.09871432930231094
1768416586355598600,5.8165986328125,-0.5744060277938843,-0.4942067861557007,0.12645673751831055
1768416586365599700,5.826599853515625,-0.5533090233802795,-0.467354416847229,0.1330677717924118
1768416586375601700,5.8366015625,-0.527285635471344,-0.3755760192871094,0.07944022864103317
1768416586385602800,5.846602783203125,-0.5159602761268616,-0.35655972361564636,-0.016805877909064293
1768416586395603700,5.856603759765625,-0.5505654215812683,-0.42785200476646423,-0.09895320981740952
1768416586405605600,5.866605712890625,-0.5864744186401367,-0.5209656953811646,-0.12767086923122406
1768416586415606800,5.876606689453125,-0.5694384574890137,-0.5671395659446716,-0.10022007673978806
1768416586425607700,5.886607666015625,-0.5013110637664795,-0.570174515247345,-0.06022205948829651
1768416586435609600,5.896609619140625,-0.4127447009086609,-0.5794433951377869,-0.02473943494260311
1768416586445610800,5.90661083984375,-0.322029173374176,-0.5745415687561035,-0.006706904619932175
1768416586455611600,5.916611572265625,-0.24596662819385529,-0.5297727584838867,-0.01954573765397072
1768416586465613600,5.926613525390625,-0.20267215371131897,-0.4644172191619873,-0.04535949230194092
1768416586475614500,5.936614501953125,-0.18560421466827393,-0.4319317042827606,-0.05445738136768341
1768416586485615600,5.94661572265625,-0.17801500856876373,-0.40703141689300537,-0.03118082322180271
1768416586495616800,5.95661669921875,-0.14783073961734772,-0.3879682421684265,-0.004049336537718773
1768416586505618700,5.96661865234375,-0.11376597732305527,-0.37940138578414917,0.017357151955366135
1768416586515619800,5.976619873046875,-0.07958590239286423,-0.3819039463996887,0.04589798301458359
1768416586525620700,5.986620849609375,-0.04487799108028412,-0.38037049770355225,0.07294158637523651
1768416586535622700,5.99662255859375,-0.012882775627076626,-0.34892258048057556,0.09126706421375275
1768416586545623600,6.00662353515625,0.024517061188817024,-0.31878677010536194,0.08922628313302994
1768416586555624700,6.016624755859375,0.05987505242228508,-0.298194944858551,0.08195371925830841
1768416586565626600,6.026626708984375,0.0786689817905426,-0.2697316110134125,0.09717635065317154
1768416586575627500,6.03662744140625,0.09134376049041748,-0.24850301444530487,0.1304517537355423
1768416586585628700,6.046628662109375,0.09977240115404129,-0.22831332683563232,0.16146878898143768
1768416586595629600,6.056629638671875,0.11458410322666168,-0.1907893866300583,0.1778797209262848
1768416586605631500,6.066631591796875,0.13788463175296783,-0.14316195249557495,0.18893156945705414
1768416586615632600,6.076632568359375,0.16307227313518524,-0.1090649664402008,0.19962921738624573
1768416586625633800,6.0866337890625,0.19252444803714752,-0.08406933397054672,0.19683237373828888
1768416586635635700,6.0966357421875,0.21735362708568573,-0.04896621033549309,0.18423455953598022
1768416586645636600,6.10663671875,0.2356753796339035,-0.015978433191776276,0.17949146032333374
1768416586655637800,6.1166376953125,0.24319028854370117,0.02028609625995159,0.18607506155967712
1768416586665639700,6.1266396484375,0.24504517018795013,0.06028624251484871,0.2028851956129074
1768416586675640600,6.136640625,0.2468249648809433,0.088307224214077,0.2313898205757141
1768416586685641700,6.146641845703125,0.2519606053829193,0.11030174046754837,0.2617780864238739
1768416586695642600,6.156642578125,0.25220054388046265,0.12891536951065063,0.2814106345176697
1768416586705644500,6.16664453125,0.24293488264083862,0.137385293841362,0.2973211705684662
1768416586715645400,6.1766455078125,0.22824834287166595,0.15075382590293884,0.2979145050048828
1768416586725646800,6.186646728515625,0.21276873350143433,0.17008624970912933,0.29058921337127686
1768416586735648500,6.1966484375,0.19111137092113495,0.17242635786533356,0.28615373373031616
1768416586745649700,6.206649658203125,0.18169309198856354,0.1760682314634323,0.2833835184574127
1768416586755650800,6.21665087890625,0.18374958634376526,0.19331832230091095,0.27089008688926697
1768416586765652700,6.22665283203125,0.18716536462306976,0.2024923861026764,0.2626742422580719
1768416586775653600,6.236653564453125,0.18367528915405273,0.18481992185115814,0.2394336313009262
1768416586785654500,6.246654541015625,0.17201703786849976,0.17980705201625824,0.2086232453584671
1768416586795655700,6.25665576171875,0.1396990418434143,0.17852260172367096,0.20238666236400604
1768416586805657600,6.26665771484375,0.08481475710868835,0.15816433727741241,0.19835783541202545
1768416586815658500,6.276658447265625,0.030010096728801727,0.1223224475979805,0.17025668919086456
1768416586825659600,6.28665966796875,-0.010369816794991493,0.11482005566358566,0.12905918061733246
1768416586835661600,6.29666162109375,-0.04146381840109825,0.16296495497226715,0.09260929375886917
1768416586845662700,6.306662841796875,-0.07061584293842316,0.24865108728408813,0.055576976388692856
1768416586855663600,6.31666357421875,-0.09702455252408981,0.3423442840576172,0.013855627737939358
1768416586865665800,6.326665771484375,-0.11211082339286804,0.38254231214523315,-0.019093001261353493
1768416586875666700,6.336666748046875,-0.13498525321483612,0.2998013496398926,-0.00917672086507082
1768416586885667600,6.34666748046875,-0.1636190265417099,0.16249489784240723,0.06762059032917023
1768416586895669800,6.356669677734375,-0.150013729929924,0.07544974982738495,0.14024819433689117
1768416586905670700,6.366670654296875,-0.07191067188978195,0.03692472726106644,0.13786917924880981
1768416586915671600,6.376671630859375,0.030888939276337624,0.03171718493103981,0.06569672375917435
1768416586925672400,6.38667236328125,0.0991968885064125,0.04463298246264458,0.009812682867050171
1768416586935674600,6.396674560546875,0.1157044917345047,0.05911045894026756,-0.018187260255217552
1768416586945675500,6.406675537109375,0.1003822609782219,0.08898340165615082,-0.030668962746858597
1768416586955676700,6.4166767578125,0.06778916716575623,0.14995354413986206,-0.04312323406338692
1768416586965678600,6.4266787109375,0.024707211181521416,0.11721690744161606,-0.008992429822683334
1768416586975679700,6.4366796875,-0.00788269005715847,0.013486780226230621,0.0716366395354271
1768416586985680600,6.4466806640625,-0.006075735669583082,-0.0797148048877716,0.10229042172431946
1768416586995682800,6.456682861328125,0.048108141869306564,-0.12322685867547989,0.08022373169660568
1768416587005683700,6.46668359375,0.12140712141990662,-0.10150638222694397,0.05524248257279396
1768416587015684600,6.4766845703125,0.19173455238342285,-0.06816547363996506,0.04764128848910332
1768416587025685500,6.486685546875,0.2453993707895279,-0.020923124626278877,0.08465337008237839
1768416587035687700,6.496687744140625,0.27948516607284546,0.023486416786909103,0.14411988854408264
1768416587045688600,6.5066884765625,0.2811129093170166,0.048659149557352066,0.19643715023994446
1768416587055689500,6.516689453125,0.24176841974258423,-0.05167970433831215,0.21810410916805267
1768416587065691600,6.526691650390625,0.2074727714061737,-0.21131038665771484,0.17272889614105225
1768416587075692500,6.536692626953125,0.20134297013282776,-0.2508186399936676,0.06811860203742981
1768416587085693700,6.546693603515625,0.21071302890777588,-0.15118126571178436,-0.03578249737620354
1768416587095695600,6.556695556640625,0.22734500467777252,-0.015078019350767136,-0.07876565307378769
1768416587105696800,6.56669677734375,0.21524226665496826,0.05489680543541908,-0.028848160058259964
1768416587115697700,6.57669775390625,0.14897537231445312,0.03424398973584175,0.007157777901738882
1768416587125698600,6.586698486328125,0.06087373569607735,-0.07836245000362396,0.008416121825575829
1768416587135700700,6.59670068359375,-0.03326421231031418,-0.22712182998657227,0.004954544827342033
1768416587145701600,6.60670166015625,-0.10880344361066818,-0.3633451759815216,0.024757809937000275
1768416587155702500,6.61670263671875,-0.14768053591251373,-0.46588221192359924,0.06246337667107582
1768416587165704700,6.62670458984375,-0.13501693308353424,-0.4837570786476135,0.12517283856868744
1768416587175705600,6.63670556640625,-0.04017538204789162,-0.399216890335083,0.1707427203655243
1768416587185706500,6.64670654296875,0.10519406199455261,-0.22738149762153625,0.10144247114658356
1768416587195708700,6.656708740234375,0.12390623241662979,-0.3736364245414734,0.06362824141979218
1768416587205709600,6.66670947265625,0.15192721784114838,-0.39510124921798706,0.2071388065814972
1768416587215710700,6.676710693359375,0.17260345816612244,-0.3195953071117401,0.14487169682979584
1768416587225711600,6.686711669921875,0.1548319160938263,-0.17892447113990784,0.015134477987885475
1768416587235713800,6.6967138671875,0.16456738114356995,-0.09023775160312653,0.07389260083436966
1768416587245714700,6.706714599609375,0.16809260845184326,-0.10393225401639938,0.15532700717449188
1768416587255715600,6.716715576171875,0.08836741000413895,-0.12847408652305603,0.18060439825057983
1768416587265717800,6.7267177734375,-0.036513801664114,-0.17330120503902435,0.11765233427286148
1768416587275718700,6.73671875,-0.1355128139257431,-0.2228274792432785,0.009080047719180584
1768416587285719600,6.746719482421875,-0.2014702707529068,-0.20485727488994598,-0.04355200380086899
1768416587295720700,6.756720703125,-0.2206021547317505,-0.24805614352226257,-0.10963461548089981
1768416587305722600,6.76672265625,-0.24057479202747345,-0.08592555671930313,-0.025105087086558342
1768416587315724000,6.77672412109375,-0.102045938372612,0.0051835766062140465,-0.0924641564488411
1768416587325725200,6.78672509765625,-0.019814450293779373,0.007558317389339209,-0.2665965259075165
1768416587335727000,6.79672705078125,-0.07476851344108582,0.17142927646636963,-0.3402659595012665
1768416587345728000,6.80672802734375,-0.15640105307102203,0.27732136845588684,-0.4015064239501953
1768416587355729200,6.816729248046875,-0.18212319910526276,0.18944129347801208,-0.454541951417923
1768416587365731000,6.82673095703125,-0.16385631263256073,0.09296722710132599,-0.5345022678375244
1768416587375732000,6.83673193359375,-0.11121653765439987,0.08211111277341843,-0.590789794921875
1768416587385733000,6.846733154296875,-0.053052566945552826,0.099860280752182,-0.5841391086578369
1768416587395735000,6.856735107421875,-0.019364377483725548,0.10123900324106216,-0.5555378198623657
1768416587405736000,6.86673583984375,-0.029883597046136856,0.09052351117134094,-0.5608819723129272
1768416587415736800,6.87673681640625,-0.05854799970984459,0.049487657845020294,-0.5751216411590576
1768416587425738000,6.886738037109375,-0.08476921916007996,0.020017649978399277,-0.5731852054595947
1768416587435740000,6.896739990234375,-0.08799057453870773,0.04688708111643791,-0.5415037274360657
1768416587445741000,6.906740966796875,-0.08862973749637604,0.10174473375082016,-0.4824201762676239
1768416587455742200,6.9167421875,-0.09824161231517792,0.1328137069940567,-0.40952572226524353
1768416587465744100,6.926744140625,-0.1192220002412796,0.16119900345802307,-0.3391932547092438
1768416587475745000,6.9367451171875,-0.1512635499238968,0.19582223892211914,-0.3011060357093811
1768416587485746000,6.946745849609375,-0.187447652220726,0.21004830300807953,-0.29605403542518616
1768416587495748000,6.956748046875,-0.2104690819978714,0.2036559283733368,-0.29636350274086
1768416587505749000,6.9667490234375,-0.20660243928432465,0.1886948198080063,-0.2788715660572052
1768416587515750000,6.97675,-0.16438893973827362,0.16982604563236237,-0.21729476749897003
1768416587525751000,6.9867509765625,-0.09713000804185867,0.11954370886087418,-0.14078988134860992
1768416587535753000,6.9967529296875,-0.04303774982690811,0.05703186243772507,-0.062640480697155
1768416587545753900,7.00675390625,-0.009276323020458221,0.013748835772275925,-0.004970257636159658
1768416587555755300,7.01675537109375,-0.015186942182481289,-0.022252840921282768,0.024537567049264908
1768416587565757000,7.0267568359375,-0.04824129864573479,-0.014494254253804684,0.10585692524909973
1768416587575758000,7.036758056640625,-0.034281276166439056,-0.036916472017765045,0.1720852106809616
1768416587585759000,7.046759033203125,-0.025857962667942047,-0.007167099043726921,0.2204468846321106
1768416587595760000,7.056760009765625,-0.041436657309532166,0.09594383835792542,0.2529715299606323
1768416587605762000,7.066761962890625,-0.05669283866882324,0.159352645277977,0.2638835608959198
1768416587615763000,7.076762939453125,-0.06221330538392067,0.1313636153936386,0.25922277569770813
1768416587625764000,7.08676416015625,-0.060860954225063324,0.10674215853214264,0.21818746626377106
1768416587635766000,7.09676611328125,-0.04647136107087135,0.06323330104351044,0.18848896026611328
1768416587645767000,7.106766845703125,-0.021649101749062538,0.0194940734654665,0.1657724529504776
1768416587655767800,7.116767822265625,0.010743457823991776,-0.009427323937416077,0.13631470501422882
1768416587665770000,7.12677001953125,0.05355936661362648,0.007048055995255709,0.11861719191074371
1768416587675771000,7.13677099609375,0.08944013714790344,0.07395625114440918,0.09737129509449005
1768416587685772000,7.14677197265625,0.09871219843626022,0.13541294634342194,0.05512663349509239
1768416587695773200,7.156773193359375,0.08522435277700424,0.17189106345176697,0.01318397931754589
1768416587705775000,7.166775146484375,0.053411293774843216,0.19139578938484192,-0.02622707560658455
1768416587715776000,7.17677587890625,0.016873521730303764,0.2134840488433838,-0.06855829060077667
1768416587725777000,7.18677685546875,-0.013746971264481544,0.2528120279312134,-0.11867525428533554
1768416587735779000,7.196779052734375,-0.040757548063993454,0.28107160329818726,-0.17140211164951324
1768416587745780000,7.206780029296875,-0.0635286420583725,0.27526646852493286,-0.1999272257089615
1768416587755780900,7.21678076171875,-0.0709037333726883,0.24007438123226166,-0.20319172739982605
1768416587765782000,7.226781982421875,-0.07500313967466354,0.2052367776632309,-0.19218675792217255
1768416587775784000,7.236783935546875,-0.06151316314935684,0.16851924359798431,-0.1991083025932312
1768416587785784800,7.246784912109375,-0.028296619653701782,0.12371661514043808,-0.19800789654254913
1768416587795786200,7.2567861328125,0.0017973673529922962,0.08351326733827591,-0.1857171356678009
1768416587805788200,7.2667880859375,-0.0018106831703335047,0.054605454206466675,-0.19107674062252045
1768416587815789000,7.2767890625,-0.01065157912671566,0.02299133501946926,-0.1920836865901947
1768416587825790000,7.2867900390625,-0.021494640037417412,0.009412409737706184,-0.17292118072509766
1768416587835792100,7.296792236328125,-0.03747520223259926,0.004236822947859764,-0.13491787016391754
1768416587845793000,7.30679296875,-0.057005494832992554,0.007390538230538368,-0.08662916719913483
1768416587855794000,7.3167939453125,-0.07248831540346146,0.022841399535536766,-0.05241979658603668
1768416587865795000,7.326795166015625,-0.0847734734416008,0.025904567912220955,-0.042509641498327255
1768416587875797000,7.336796875,-0.08409623801708221,0.02568858489394188,-0.044615406543016434
1768416587885798000,7.3467978515625,-0.07477676868438721,0.008796687237918377,-0.05073881149291992
1768416587895799000,7.356799072265625,-0.06415421515703201,-0.030790669843554497,-0.03918894752860069
1768416587905801000,7.366801025390625,-0.04635125398635864,-0.0573011077940464,-0.017912687733769417
1768416587915802000,7.376802001953125,-0.04174265265464783,-0.06400561332702637,-0.0000655137628200464
1768416587925803000,7.386802978515625,-0.05176572501659393,-0.07042489945888519,0.004731904715299606
1768416587935805200,7.39680517578125,-0.05595514550805092,-0.05951312929391861,0.013828730210661888
1768416587945806000,7.40680615234375,-0.046305447816848755,-0.04923572391271591,0.041302699595689774
1768416587955807000,7.416806884765625,-0.02953951619565487,-0.05458388477563858,0.05621134117245674
1768416587965807900,7.426807861328125,-0.026038259267807007,-0.0632692500948906,0.06399975717067719
1768416587975810000,7.43681005859375,-0.027782894670963287,-0.06629326939582825,0.051903676241636276
1768416587985811000,7.44681103515625,-0.030410636216402054,-0.08398304879665375,0.02743322215974331
1768416587995811800,7.456811767578125,-0.02683214657008648,-0.08360301703214645,0.00634950865060091
1768416588005814000,7.46681396484375,-0.020624052733182907,-0.09605862200260162,0.007574030198156834
1768416588015815000,7.47681494140625,-0.010087521746754646,-0.11205542832612991,0.01901150867342949
1768416588025816000,7.486816162109375,-0.0014330470003187656,-0.09880673885345459,0.03002314642071724
1768416588035817000,7.49681689453125,0.00951201282441616,-0.08864251524209976,0.048768073320388794
1768416588045819100,7.506819091796875,0.017582455649971962,-0.08971976488828659,0.06316006183624268
1768416588055820000,7.516820068359375,0.019482621923089027,-0.08828139305114746,0.06448125839233398
1768416588065821000,7.526821044921875,0.018453842028975487,-0.07934276014566422,0.05546645447611809
1768416588075823000,7.536822998046875,0.010396447964012623,-0.051951080560684204,0.03431802615523338
1768416588085824000,7.546823974609375,0.006315686274319887,-0.03092862106859684,0.018938271328806877
1768416588095825000,7.556824951171875,0.002356364857405424,-0.015671636909246445,0.02022084966301918
1768416588105827000,7.5668271484375,-0.003973436541855335,-0.0037268276792019606,0.021465877071022987
1768416588115828000,7.576827880859375,-0.012762400321662426,-0.006089583970606327,0.030219953507184982
1768416588125828900,7.586828857421875,-0.011158112436532974,-0.016399214044213295,0.04344814270734787
1768416588135830000,7.596830078125,-0.005805158521980047,-0.003721501212567091,0.04893718287348747
1768416588145832000,7.60683203125,0.00001997370782191865,0.0037643781397491693,0.043185021728277206
1768416588155833000,7.6168330078125,0.0068360683508217335,-0.005396629683673382,0.023677632212638855
1768416588165834000,7.626833984375,0.008377505466341972,-0.009195095859467983,0.003055178327485919
1768416588175836200,7.636836181640625,0.00010333064710721374,-0.0019430422689765692,-0.011174623854458332
1768416588185837000,7.646837158203125,-0.00941853504627943,0.01613556034862995,-0.009639311581850052
1768416588195838000,7.656837890625,-0.014720622450113297,0.025424133986234665,0.013793043792247772
1768416588205840100,7.666840087890625,-0.01660267822444439,0.027228157967329025,0.03362853452563286
1768416588215841000,7.676841064453125,-0.012035624124109745,0.022719694301486015,0.03400936722755432
1768416588225842000,7.686842041015625,-0.006460562348365784,0.015329687856137753,0.023437682539224625
1768416588235842800,7.6968427734375,0.0002247707889182493,0.0031353395897895098,0.00923504400998354
1768416588245845000,7.706844970703125,0.0027361316606402397,-0.005633650813251734,-0.0019062906503677368
1768416588255846100,7.71684619140625,0.0006964165950194001,-0.005554288625717163,-0.008706672117114067
1768416588265847000,7.726846923828125,-0.006931409239768982,-0.01925811730325222,-0.006875749211758375
1768416588275849200,7.73684912109375,-0.0106505136936903,-0.028504878282546997,0.002984072081744671
1768416588285850000,7.74685009765625,-0.01865171454846859,-0.019778231158852577,0.004472779110074043
1768416588295851000,7.75685107421875,-0.024718396365642548,-0.009743707254529,-0.006684800609946251
1768416588305852000,7.766851806640625,-0.024471787735819817,-0.010920558124780655,-0.014169614762067795
1768416588315854000,7.77685400390625,-0.02130262553691864,-0.015086008235812187,-0.006518353242427111
1768416588325855200,7.786855224609375,-0.019114306196570396,-0.014848454855382442,-0.01239195466041565
1768416588335856000,7.796856201171875,-0.01534673199057579,-0.021805429831147194,-0.024942101910710335
1768416588345858000,7.806858154296875,-0.016751550137996674,-0.023510118946433067,-0.033306024968624115
1768416588355859000,7.81685888671875,-0.021450163796544075,-0.017944112420082092,-0.03539340943098068
1768416588365860000,7.826860107421875,-0.02508724294602871,-0.020779579877853394,-0.024521054700016975
1768416588375861200,7.836861328125,-0.025499233976006508,-0.031377363950014114,-0.013093431480228901
1768416588385863200,7.84686328125,-0.02323395013809204,-0.036807816475629807,-0.01161297969520092
1768416588395864300,7.8568642578125,-0.017559019848704338,-0.04855235666036606,-0.003344397759065032
1768416588405865200,7.866865234375,-0.011100854724645615,-0.05541399121284485,0.0008849684381857514
1768416588415867100,7.8768671875,-0.010867827571928501,-0.05329491198062897,-0.006961503066122532
1768416588425868000,7.886867919921875,-0.014671887271106243,-0.057617224752902985,-0.009376457892358303
1768416588435869200,7.896869140625,-0.022282136604189873,-0.0552281029522419,-0.0026133600622415543
1768416588445871000,7.90687109375,-0.03485145792365074,-0.03375529870390892,0.013160543516278267
1768416588455872000,7.9168720703125,-0.03937830030918121,-0.020472250878810883,0.028302744030952454
1768416588465873200,7.926873046875,-0.039254993200302124,-0.012078500352799892,0.027720311656594276
1768416588475874300,7.936874267578125,-0.04559598118066788,-0.008842227049171925,0.024418789893388748
1768416588485876000,7.9468759765625,-0.05437988415360451,-0.02466300129890442,0.02640417590737343
1768416588495877400,7.95687744140625,-0.07043315470218658,-0.04705113172531128,0.028870264068245888
1768416588505878300,7.966878173828125,-0.0854259505867958,-0.061044979840517044,0.023313311859965324
1768416588515880200,7.976880126953125,-0.09574170410633087,-0.06479071080684662,0.021947376430034637
1768416588525881000,7.986881103515625,-0.0981084555387497,-0.06145830079913139,0.03050917387008667
1768416588535882200,7.99688232421875,-0.09845893085002899,-0.06528792530298233,0.028623122721910477
1768416588545883100,8.006883056640625,-0.1058606505393982,-0.07294531166553497,0.012657738290727139
1768416588555885000,8.016885009765625,-0.12059325724840164,-0.08412366360425949,-0.005037635564804077
1768416588565886200,8.02688623046875,-0.13753283023834229,-0.09132777899503708,-0.019698070362210274
1768416588575887000,8.03688720703125,-0.15497653186321259,-0.08874265104532242,-0.0162399560213089
1768416588585889000,8.046888916015625,-0.17026947438716888,-0.07949642091989517,-0.008918926119804382
1768416588595890000,8.056889892578125,-0.1846148520708084,-0.0648500993847847,-0.009792976081371307
1768416588605891300,8.066891357421875,-0.19914399087429047,-0.05204136297106743,-0.011407916434109211
1768416588615892200,8.076892333984375,-0.20941340923309326,-0.03755536302924156,-0.018280470743775368
1768416588625894100,8.08689404296875,-0.2086930274963379,-0.025727201253175735,-0.030667897313833237
1768416588635895300,8.096895263671875,-0.20270010828971863,-0.018865033984184265,-0.03460085391998291
1768416588645896200,8.106896240234375,-0.18619251251220703,-0.02659086510539055,-0.023485084995627403
1768416588655898000,8.116898193359376,-0.16199715435504913,-0.03852049261331558,-0.011887019500136375
1768416588665899000,8.12689892578125,-0.1402527093887329,-0.04471207782626152,-0.006195844151079655
1768416588675900200,8.136900146484376,-0.1177908182144165,-0.0540163628757,-0.006689327768981457
1768416588685902000,8.146902099609376,-0.0994967594742775,-0.05217026174068451,-0.007445399183779955
1768416588695903000,8.156903076171876,-0.0742926076054573,-0.047923315316438675,-0.005743106827139854
1768416588705904000,8.166904052734376,-0.059350673109292984,-0.04456986486911774,-0.003745469730347395
1768416588715905300,8.1769052734375,-0.049064215272665024,-0.044010601937770844,0.0021992383990436792
1768416588725907200,8.1869072265625,-0.05818181484937668,-0.025181785225868225,0.010844924487173557
1768416588735908000,8.196908203125,-0.063239686191082,-0.015910789370536804,0.003951864782720804
1768416588745909200,8.2069091796875,-0.06887707114219666,-0.013543505221605301,0.006964965257793665
1768416588755911200,8.2169111328125,-0.06773483753204346,-0.021137243136763573,0.010297378525137901
1768416588765912000,8.226912109375,-0.061999186873435974,-0.03498275205492973,0.010598049499094486
1768416588775913200,8.236913330078124,-0.05074040964245796,-0.03816523030400276,0.006862965878099203
1768416588785914000,8.2469140625,-0.040777258574962616,-0.036618996411561966,0.00734313391149044
1768416588795916000,8.256916015625,-0.03501364216208458,-0.038848064839839935,0.015277223661541939
1768416588805917200,8.266917236328124,-0.027101658284664154,-0.04252748563885689,0.00392842898145318
1768416588815918000,8.27691796875,-0.025133848190307617,-0.06268654763698578,-0.0017425062833353877
1768416588825920000,8.286919921875,-0.018430139869451523,-0.07881172746419907,-0.0049340385012328625
1768416588835921200,8.296921142578125,-0.011933358386158943,-0.07346756011247635,-0.01781601458787918
1768416588845922300,8.30692236328125,-0.007613444700837135,-0.057074204087257385,-0.025887522846460342
1768416588855923200,8.316923095703125,-0.011293134652078152,-0.040523458272218704,-0.028851620852947235
1768416588865925000,8.326925048828125,-0.007232612930238247,-0.036375585943460464,-0.040973000228405
1768416588875926300,8.33692626953125,-0.003049852093681693,-0.038896530866622925,-0.06678329408168793
1768416588885927200,8.34692724609375,-0.002013882389292121,-0.043170105665922165,-0.0782197043299675
1768416588895929000,8.35692919921875,-0.00005379585491027683,-0.04364361613988876,-0.07133729755878448
1768416588905930000,8.366929931640625,0.006927414797246456,-0.02792324312031269,-0.07486012578010559
1768416588915931100,8.37693115234375,0.014594122767448425,-0.012880911119282246,-0.08155371248722076
1768416588925932300,8.386932373046875,0.02251356467604637,-0.008926116861402988,-0.09053709357976913
1768416588935934000,8.396933837890625,0.02165895700454712,0.0024833977222442627,-0.10341720283031464
1768416588945935400,8.406935302734375,0.0182314682751894,0.025356754660606384,-0.1000903844833374
1768416588955936300,8.416936279296875,0.018379006534814835,0.032225046306848526,-0.09194004535675049
1768416588965938200,8.426938232421875,0.01703517697751522,0.02804761379957199,-0.0921698734164238
1768416588975939000,8.43693896484375,0.015850069001317024,0.01649002730846405,-0.09505753964185715
1768416588985940200,8.446940185546875,0.01625566929578781,0.015748336911201477,-0.08419424295425415
1768416588995942100,8.456942138671875,0.021687451750040054,0.028116589412093163,-0.07403561472892761
1768416589005943000,8.466943115234375,0.02684306539595127,0.0234637800604105,-0.06973566859960556
1768416589015944200,8.476944091796875,0.02430720441043377,0.009542372077703476,-0.07010212540626526
1768416589025945000,8.486945068359375,0.019091669470071793,-0.003358512418344617,-0.07032103091478348
1768416589035947000,8.496947021484376,0.01599760912358761,-0.008142614737153053,-0.06709461659193039
1768416589045948200,8.5069482421875,0.012894493527710438,-0.004341219086199999,-0.06184685602784157
1768416589055949300,8.51694921875,0.0116148442029953,0.010145844891667366,-0.056288573890924454
1768416589065951200,8.526951171875,0.012562663294374943,0.021193169057369232,-0.05136518552899361
1768416589075952000,8.5369521484375,0.010298177599906921,0.027812989428639412,-0.04326145350933075
1768416589085953300,8.546953369140626,0.0054845139384269714,0.03032514825463295,-0.03952717036008835
1768416589095954200,8.5569541015625,0.00007483482477255166,0.02570030279457569,-0.03839452564716339
1768416589105956000,8.5669560546875,-0.002386192325502634,0.018875420093536377,-0.040585510432720184
1768416589115957200,8.576957275390624,-0.003918042406439781,0.011012704111635685,-0.038846466690301895
1768416589125958100,8.586958251953124,-0.004835501778870821,0.016992565244436264,-0.039207324385643005
1768416589135960000,8.5969599609375,-0.007379619404673576,0.026881948113441467,-0.030480943620204926
1768416589145961000,8.6069609375,-0.0054914383217692375,0.03340163081884384,-0.03116830624639988
1768416589155962000,8.616962158203124,-0.007931692525744438,0.03578196465969086,-0.028502747416496277
1768416589165963300,8.62696337890625,-0.008237689733505249,0.03844379633665085,-0.030479878187179565
1768416589175965200,8.636965087890625,-0.013990916311740875,0.03893435001373291,-0.0356229767203331
1768416589185966300,8.64696630859375,-0.020204870030283928,0.033133719116449356,-0.03400590270757675
1768416589195967200,8.65696728515625,-0.02436632663011551,0.03128308802843094,-0.03105751797556877
1768416589205969200,8.66696923828125,-0.022174278274178505,0.030830083414912224,-0.03214328736066818
1768416589215970000,8.676969970703125,-0.023238210007548332,0.022061891853809357,-0.03229695186018944
1768416589225971200,8.68697119140625,-0.0263620987534523,0.018016017973423004,-0.03405357524752617
1768416589235972000,8.69697216796875,-0.01823040284216404,0.019281286746263504,-0.03175419941544533
1768416589245974000,8.70697412109375,-0.015170164406299591,0.028144553303718567,-0.02846546284854412
1768416589255975200,8.71697509765625,-0.014113422483205795,0.028060397133231163,-0.030913973227143288
1768416589265976000,8.72697607421875,-0.01882668398320675,0.026218021288514137,-0.030846862122416496
1768416589275978000,8.73697802734375,-0.024149278178811073,0.018918562680482864,-0.03586292639374733
1768416589285979100,8.746979248046875,-0.02522066794335842,0.002380866091698408,-0.03953063115477562
1768416589295980300,8.756980224609375,-0.02394181862473488,-0.007002782076597214,-0.04653234779834747
1768416589305981200,8.766981201171875,-0.018145713955163956,-0.008918393403291702,-0.054304517805576324
1768416589315983000,8.776983154296875,-0.0139594916254282,-0.01329796202480793,-0.05744731426239014
1768416589325984000,8.78698388671875,-0.01407667063176632,-0.015163240022957325,-0.06106308847665787
1768416589335985000,8.79698486328125,-0.021406488493084908,-0.006021939683705568,-0.05878502130508423
1768416589345987000,8.806987060546875,-0.028495024889707565,0.00347435986623168,-0.05991073697805405
1768416589355988000,8.816988037109375,-0.028620991855859756,0.002551840851083398,-0.05751655623316765
1768416589365988900,8.82698876953125,-0.027044400572776794,0.00004394215648062527,-0.06096721440553665
1768416589375991000,8.836990966796876,-0.02474369667470455,-0.00498170917853713,-0.055412657558918
1768416589385992000,8.846991943359376,-0.01961737684905529,-0.008746087551116943,-0.043842822313308716
1768416589395993000,8.8569931640625,-0.013517939485609531,-0.016941431909799576,-0.034624289721250534
1768416589405994000,8.866993896484376,-0.0041097900830209255,-0.019357718527317047,-0.025345303118228912
1768416589415996200,8.87699609375,0.004524976946413517,-0.018022144213318825,-0.02833683229982853
1768416589425997000,8.8869970703125,0.0035976641811430454,-0.012797287665307522,-0.031692150980234146
1768416589435998000,8.896998046875,0.0022146848496049643,-0.0014207963831722736,-0.023696541786193848
1768416589446000000,8.907000244140624,0.004224838688969612,0.009849434718489647,-0.015739815309643745
1768416589456001000,8.9170009765625,0.0034091125708073378,0.011468370445072651,-0.011217234656214714
1768416589466002000,8.927001953125,-0.0010404969798400998,0.002659432590007782,-0.022900255396962166
1768416589476002800,8.9370029296875,0.0004942826926708221,-0.007511978503316641,-0.02557806484401226
1768416589486005000,8.9470048828125,0.003561178920790553,-0.0023499734234064817,-0.020007263869047165
1768416589496006000,8.957005859375,0.003472495824098587,0.002043976215645671,-0.034026674926280975
1768416589506007000,8.967007080078124,0.00666456064209342,-0.000035420041967881843,-0.055629439651966095
1768416589516009200,8.97700927734375,0.007089600898325443,0.015164039097726345,-0.0420134961605072
1768416589526010000,8.987010009765624,0.006659766659140587,0.027997013181447983,-0.025489114224910736
1768416589536011000,8.997010986328124,0.003771835006773472,0.02726064994931221,-0.005103149451315403
1768416589546012000,9.007011962890624,0.0017507621087133884,0.02087545394897461,0.008215585723519325
1768416589556014000,9.01701416015625,-0.00058323226403445,0.0054328483529388905,0.0017177389236167073
1768416589566015000,9.027014892578125,0.0038333539851009846,-0.006882673595100641,-0.010613495483994484
1768416589576016000,9.037015869140625,0.009632653556764126,-0.00887738075107336,-0.022335665300488472
1768416589586018000,9.04701806640625,0.00740198977291584,-0.005420598201453686,-0.027000458911061287
1768416589596019000,9.05701904296875,0.0001448759576305747,-0.010951184667646885,-0.02737995982170105
1768416589606020000,9.06702001953125,-0.0026144252624362707,-0.023609988391399384,-0.020504476502537727
1768416589616021000,9.07702099609375,-0.0005669869715347886,-0.019281286746263504,-0.015413844026625156
1768416589626023200,9.087023193359375,0.0027537085115909576,0.001484712352976203,-0.008638495579361916
1768416589636024000,9.097024169921875,0.0049460227601230145,0.01841735653579235,-0.006053631659597158
1768416589646025000,9.10702490234375,-0.00003968110104324296,0.024048877879977226,-0.00558225205168128
1768416589656027100,9.117027099609375,0.0020208065398037434,0.02111487276852131,-0.00811891257762909
1768416589666028000,9.127028076171875,0.005146292503923178,0.010157296434044838,-0.008444351144134998
1768416589676029000,9.13702880859375,0.004601676017045975,0.012986105866730213,-0.0027502465527504683
1768416589686029800,9.14702978515625,0.00788535363972187,0.02479642629623413,-0.0051689292304217815
1768416589696032000,9.157031982421875,0.009748234413564205,0.03707572817802429,-0.006216883193701506
1768416589706033000,9.167032958984375,0.015253787860274315,0.04210031405091286,-0.0045585329644382
1768416589716034000,9.177033935546875,0.021459486335515976,0.04290885105729103,-0.004480235744267702
1768416589726036000,9.187035888671875,0.020605942234396935,0.04006139934062958,-0.009040366858243942
1768416589736037000,9.197037109375,0.018543057143688202,0.04373150318861008,-0.008140751160681248
1768416589746038000,9.2070380859375,0.014407968148589134,0.04724474251270294,0.0028032432310283184
1768416589756039200,9.2170390625,0.01389823853969574,0.04394455626606941,0.0051806471310555935
1768416589766041000,9.227041015625,0.012355469167232513,0.0501321442425251,0.01221352256834507
1768416589776042000,9.2370419921875,0.010744789615273476,0.05023147910833359,0.017061807215213776
1768416589786043000,9.24704296875,0.010305368341505527,0.04411206766963005,0.01792440563440323
1768416589796045000,9.257045166015626,0.012122975662350655,0.039196137338876724,0.018620556220412254
1768416589806046000,9.2670458984375,0.017182182520627975,0.030730215832591057,0.023261379450559616
1768416589816046800,9.277046875,0.018743593245744705,0.008019044063985348,0.0325361043214798
1768416589826048300,9.28704833984375,0.01894626021385193,-0.014129933901131153,0.030958447605371475
1768416589836050000,9.2970498046875,0.01793212816119194,-0.02232607826590538,0.026748523116111755
1768416589846051000,9.307051025390624,0.014722753316164017,-0.01926051266491413,0.02274952083826065
1768416589856052000,9.317052001953124,0.011479821987450123,-0.0028522454667836428,0.01786261983215809
1768416589866054100,9.32705419921875,0.009754892438650131,0.00902438722550869,0.020484767854213715
1768416589876055000,9.337054931640624,0.010821222327649593,0.018977154046297073,0.02197400853037834
1768416589886056000,9.347055908203124,0.008508000522851944,0.023195067420601845,0.01961577869951725
1768416589896057000,9.35705712890625,0.00953651312738657,0.02978053316473961,0.015837285667657852
1768416589906059000,9.36705908203125,0.006626211106777191,0.039813458919525146,0.013188772834837437
1768416589916060000,9.377059814453125,0.0018911106744781137,0.038768965750932693,0.011215370148420334
1768416589926060800,9.387060791015625,-0.0014269216917455196,0.02901007980108261,0.012642824091017246
1768416589936063000,9.39706298828125,-0.004518052563071251,0.00962626188993454,0.017797106876969337
1768416589946064000,9.40706396484375,-0.005077316425740719,-0.014070545323193073,0.015458851121366024
1768416589956065000,9.41706494140625,-0.008468053303658962,-0.021933261305093765,0.008205997757613659
1768416589966066200,9.427066162109375,-0.01191098801791668,-0.010437726974487305,0.009211874566972256
1768416589976068000,9.437068115234375,-0.007698399480432272,-0.0014397049089893699,0.01531663816422224
1768416589986069000,9.447069091796875,-0.00908271037042141,-0.011321097612380981,0.021397167816758156
1768416589996070000,9.45706982421875,-0.006587861571460962,-0.018924422562122345,0.02155136503279209
1768416590006072000,9.467072021484375,0.0014085458824411035,-0.02149250917136669,0.018703913316130638
1768416590016073000,9.477072998046875,0.0062488410621881485,-0.022426478564739227,0.022187061607837677
1768416590026073900,9.487073974609375,0.00948138628154993,-0.019750801846385002,0.030603183433413506
1768416590036075000,9.497074951171875,0.007680024020373821,-0.019652530550956726,0.027965322136878967
1768416590046077000,9.507076904296875,0.0012857741676270962,-0.025891784578561783,0.015214638784527779
1768416590056078000,9.517078125,-0.0019560917280614376,-0.03315688669681549,0.01017114520072937
1768416590066079200,9.527079345703125,-0.003802727675065398,-0.028973061591386795,0.021564681082963943
1768416590076081200,9.5370810546875,-0.008158061653375626,-0.021469606086611748,0.023632358759641647
1768416590086082000,9.54708203125,-0.007987619377672672,-0.015929430723190308,0.020680511370301247
1768416590096083000,9.5570830078125,-0.007772435434162617,-0.01335655152797699,0.015185077674686909
1768416590106084000,9.567083984375,-0.005437908694148064,-0.02008715830743313,0.018543856218457222
1768416590116086000,9.5770859375,-0.007754592224955559,-0.03205007687211037,0.021575599908828735
1768416590126087000,9.5870869140625,-0.011621235869824886,-0.038477882742881775,0.02190982550382614
1768416590136088000,9.597088134765626,-0.011138671077787876,-0.05064213648438454,0.016682041808962822
1768416590146090000,9.607090087890626,-0.00932292826473713,-0.06714494526386261,0.012518455274403095
1768416590156091000,9.6170908203125,-0.008138353936374187,-0.06302583962678909,0.017375528812408447
1768416590166092000,9.627092041015626,-0.012842029333114624,-0.054132744669914246,0.012180499732494354
1768416590176093200,9.63709326171875,-0.018098842352628708,-0.04633607342839241,0.005824333056807518
1768416590186095000,9.64709521484375,-0.020329773426055908,-0.04055594652891159,0.0038932752795517445
1768416590196096000,9.657095947265624,-0.019275693222880363,-0.02979118563234806,0.003347327234223485
1768416590206097200,9.66709716796875,-0.01883147843182087,-0.020973458886146545,0.0047260457649827
1768416590216099000,9.67709912109375,-0.01623835787177086,-0.011810586787760258,0.017475929111242294
1768416590226100000,9.687099853515624,-0.012982644140720367,-0.0031502533238381147,0.019903667271137238
1768416590236100900,9.697100830078124,-0.01146783772855997,-0.0024056334514170885,0.01709483005106449
1768416590246102000,9.70710205078125,-0.00717695290222764,-0.001496430253610015,0.020188359543681145
1768416590256104000,9.71710400390625,-0.0008500810363329947,-0.005043228156864643,0.02376977726817131
1768416590266104800,9.727104736328124,-0.004127100575715303,-0.002441585995256901,0.01882535219192505
1768416590276106200,9.737106201171875,-0.0065322015434503555,0.00800253264605999,0.011996475048363209
1768416590286108000,9.74710791015625,-0.009710950776934624,0.026555445045232773,0.007564442697912455
1768416590296109000,9.757109130859375,-0.008274974301457405,0.03916071727871895,0.005064533557742834
1768416590306110000,9.76710986328125,-0.003659183392301202,0.044855356216430664,0.0041223070584237576
1768416590316111000,9.777111083984375,-0.005673864856362343,0.041307494044303894,0.009156214073300362
1768416590326113000,9.787113037109375,-0.003943609073758125,0.038297854363918304,0.012219647876918316
1768416590336114000,9.797114013671875,-0.005201419815421104,0.0471976064145565,0.015927568078041077
1768416590346115000,9.807114990234375,-0.006196376867592335,0.06472280621528625,0.008449144661426544
1768416590356117000,9.817116943359375,-0.014600514434278011,0.07124142348766327,-0.0025875272694975138
1768416590366118000,9.827117919921875,-0.0217156819999218,0.059670787304639816,-0.01617790386080742
1768416590376119000,9.837119140625,-0.03203490003943443,0.024208933115005493,-0.024276310577988625
1768416590386120200,9.8471201171875,-0.03361361846327782,-0.02383049763739109,-0.014659903012216091
1768416590396121900,9.857121826171875,-0.025670742616057396,-0.06091421842575073,-0.004600078333169222
1768416590406123000,9.867123046875,-0.020909275859594345,-0.07040306180715561,0.0014101437991485
1768416590416124200,9.877124267578125,-0.006695186719298363,-0.06512520462274551,0.007964715361595154
1768416590426126000,9.8871259765625,-0.0005848301807418466,-0.040461670607328415,0.021522335708141327
1768416590436127000,9.897126953125,-0.00250496924854815,-0.02322569489479065,0.027968518435955048
1768416590446128000,9.907128173828125,-0.009844641201198101,-0.013379454612731934,0.025241173803806305
1768416590456129000,9.91712890625,-0.01974068209528923,-0.003192331176251173,0.017486847937107086
1768416590466131000,9.927130859375,-0.02588006667792797,0.0002407497668173164,0.004752411041408777
1768416590476131800,9.9371318359375,-0.02754986844956875,0.01022973470389843,0.004652009811252356
1768416590486133000,9.947133056640626,-0.02429921366274357,0.006673615425825119,0.009706955403089523
1768416590496135000,9.957135009765626,-0.024831846356391907,0.016521984711289406,0.01110644731670618
1768416590506136000,9.967135986328126,-0.028074776753783226,0.014725416898727417,0.014188523404300213
1768416590516137200,9.97713720703125,-0.028813539072871208,0.010264355689287186,0.013773069716989994
1768416590526138000,9.98713818359375,-0.02377137541770935,0.002463157754391432,0.012983176857233047
1768416590536140000,9.99714013671875,-0.01811428926885128,0.0019257317762821913,0.012285428121685982
1768416590546141000,10.007140869140626,-0.011796471662819386,0.0006578007596544921,0.011590076610445976
1768416590556142000,10.01714208984375,-0.010657970793545246,0.003341201925650239,0.01028539426624775
1768416590566143000,10.02714306640625,-0.01034504920244217,-0.002813629573211074,0.008435828611254692
1768416590576145000,10.037144775390624,-0.015836486592888832,-0.004721251782029867,0.005046690348535776
1768416590586146000,10.04714599609375,-0.014532869681715965,-0.006798251066356897,-0.00004367584188003093
1768416590596147000,10.05714697265625,-0.012878247536718845,-0.005994243081659079,-0.008694954216480255
1768416590606148900,10.06714892578125,-0.01709403283894062,0.000258859246969223,-0.01401888020336628
1768416590616150000,10.07714990234375,-0.01600533165037632,-0.005241899751126766,-0.006987335626035929
1768416590626151200,10.087151123046874,-0.016705477610230446,-0.010850517079234123,-0.006178533658385277
1768416590636152000,10.097152099609374,-0.013887053355574608,-0.023481357842683792,-0.020835241302847862
1768416590646154000,10.107154052734375,-0.013365340419113636,-0.027117371559143066,-0.0348953977227211
1768416590656155100,10.117155029296875,-0.008747152984142303,-0.029945116490125656,-0.023926371708512306
1768416590666156000,10.127156005859375,-0.00726377172395587,-0.015181882306933403,-0.01770070008933544
1768416590676158000,10.137157958984375,-0.01085584331303835,0.002013349672779441,-0.030413566157221794
1768416590686159000,10.1471591796875,-0.012011389248073101,0.0033039175905287266,-0.03742007538676262
1768416590696160000,10.157159912109375,-0.013555755838751793,-0.006204898934811354,-0.0316077284514904
1768416590706161000,10.167160888671875,-0.01540825143456459,-0.01269715279340744,-0.024539964273571968
1768416590716162800,10.177162841796875,-0.012591691687703133,-0.013439109548926353,-0.01014105137437582
1768416590726164200,10.187164306640625,-0.005705822724848986,-0.01558162271976471,-0.0037822213489562273
1768416590736165000,10.1971650390625,-0.0019595539197325706,-0.01637178286910057,-0.008741027675569057
1768416590746167000,10.2071669921875,0.008550611324608326,-0.009227586910128593,-0.020657608285546303
1768416590756168200,10.217168212890625,0.013718741945922375,0.003751328680664301,-0.03189055621623993
1768416590766169000,10.227169189453125,0.014801849611103535,0.006655239500105381,-0.04000920057296753
1768416590776170000,10.237169921875,0.018029334023594856,0.007991880178451538,-0.04205690696835518
1768416590786172000,10.247171875,0.020726317539811134,0.006724481470882893,-0.03874925896525383
1768416590796173000,10.257173095703125,0.02041046693921089,0.01926477439701557,-0.03177177906036377
1768416590806174000,10.267174072265625,0.02389148436486721,0.040473923087120056,-0.02225923351943493
1768416590816175900,10.27717578125,0.02798076719045639,0.050282612442970276,-0.017826667055487633
1768416590826177000,10.287177001953125,0.02683960273861885,0.060386642813682556,-0.016157131642103195
1768416590836178200,10.29717822265625,0.02183499187231064,0.06396885961294174,-0.018511898815631866
1768416590846179000,10.307178955078125,0.021829664707183838,0.06909624487161636,-0.02148345485329628
1768416590856181000,10.317180908203126,0.02159051224589348,0.06765387952327728,-0.02718954347074032
1768416590866182100,10.32718212890625,0.018516426905989647,0.062752865254879,-0.026796992868185043
1768416590876183000,10.33718310546875,0.014215687289834023,0.054127149283885956,-0.025131186470389366
1768416590886185000,10.34718505859375,0.011913117952644825,0.044680118560791016,-0.032696958631277084
1768416590896186000,10.35718603515625,0.007917843759059906,0.04121161997318268,-0.03748905286192894
1768416590906187000,10.36718701171875,0.003849599277600646,0.03954847529530525,-0.03964434936642647
1768416590916188000,10.37718798828125,-0.000502804818097502,0.034389398992061615,-0.042152781039476395
1768416590926190000,10.387190185546874,-0.003400856629014015,0.030541930347681046,-0.037327930331230164
1768416590936191000,10.39719091796875,-0.00316037330776453,0.02394687756896019,-0.02767583541572094
1768416590946192100,10.407192138671874,-0.006614759564399719,0.021031782031059265,-0.02750219777226448
1768416590956194000,10.417194091796874,-0.012942430563271046,0.016637565568089485,-0.03659156709909439
1768416590966195200,10.4271953125,-0.018389659002423286,0.01059458777308464,-0.0464138388633728
1768416590976196000,10.437196044921874,-0.020780645310878754,0.009350624866783619,-0.04752038046717644
1768416590986197000,10.447197021484374,-0.022249113768339157,0.0046506780199706554,-0.041010282933712006
1768416590996199200,10.45719921875,-0.0158292967826128,0.0009070726810023189,-0.03529860079288483
1768416591006200000,10.467199951171875,-0.007419033907353878,0.006557767745107412,-0.028028437867760658
1768416591016201000,10.477200927734375,0.0015568839153274894,0.011484615504741669,-0.017437312752008438
1768416591026203000,10.487202880859375,0.003055711043998599,0.014250574633479118,-0.01444205641746521
1768416591036204000,10.4972041015625,0.002008556155487895,0.02521747164428234,-0.016709737479686737
1768416591046205000,10.507204833984375,-0.00023169501218944788,0.041608963161706924,-0.018555574119091034
1768416591056206000,10.5172060546875,-0.011696336790919304,0.07666148990392685,-0.017532387748360634
1768416591066208000,10.5272080078125,-0.009327455423772335,0.06618088483810425,-0.026010561734437943
1768416591076209200,10.537209228515625,-0.00224903947673738,0.05801483243703842,-0.029023928567767143
1768416591086210000,10.5472099609375,-0.0007856325246393681,0.04481460899114609,-0.031033016741275787
1768416591096211000,10.5572109375,0.003469566348940134,0.02851899340748787,-0.03773113340139389
1768416591106213000,10.567213134765625,0.007822769694030285,0.026392191648483276,-0.04394082725048065
1768416591116214000,10.577214111328125,0.006981743033975363,0.04006992280483246,-0.04845115542411804
1768416591126215000,10.58721484375,0.010131197050213814,0.055211588740348816,-0.053302101790905
1768416591136217000,10.597217041015625,0.011373828165233135,0.05974748730659485,-0.06018717214465141
1768416591146218000,10.607218017578125,0.010075537487864494,0.07156898826360703,-0.06640352308750153
1768416591156219000,10.617218994140625,0.008898153901100159,0.07731236517429352,-0.06749755144119263
1768416591166220000,10.627219970703125,0.005558549892157316,0.0784980058670044,-0.06196696311235428
1768416591176222200,10.63722216796875,0.0013680658303201199,0.07887724041938782,-0.05107223987579346
1768416591186223000,10.64722314453125,0.0009632653673179448,0.07162412256002426,-0.04454749450087547
1768416591196224000,10.65722412109375,0.005517803598195314,0.05963403359055519,-0.04074449837207794
1768416591206226200,10.66722607421875,0.014632738195359707,0.04422232136130333,-0.03129826858639717
1768416591216227000,10.67722705078125,0.0211284551769495,0.02267921343445778,-0.021226724609732628
1768416591226228000,10.68722802734375,0.022248847410082817,0.0070613715797662735,-0.00935275573283434
1768416591236228900,10.697228759765625,0.0181177519261837,-0.00971414614468813,-0.004037352278828621
1768416591246231000,10.70723095703125,0.005389971658587456,-0.0194258950650692,-0.00493244081735611
1768416591256232000,10.71723193359375,-0.004376106429845095,-0.025720277801156044,0.0048887645825743675
1768416591266233000,10.727233154296876,-0.012447615154087543,-0.023900005966424942,0.0226840078830719
1768416591276235000,10.737235107421874,-0.020837103947997093,-0.012076636776328087,0.0230544526129961
1768416591286236200,10.747236083984374,-0.022662168368697166,-0.001401355373673141,0.01429531630128622
1768416591296237000,10.757237060546874,-0.024227308109402657,-0.003078614128753543,0.012990633025765419
1768416591306238000,10.767238037109376,-0.03569115325808525,-0.008974320255219936,0.02148558385670185
1768416591316240000,10.777239990234374,-0.041438519954681396,-0.015193333849310875,0.03737986087799072
1768416591326241000,10.787240966796874,-0.04507986083626747,-0.03309883177280426,0.04664979502558708
1768416591336242000,10.797241943359374,-0.034633077681064606,-0.058344267308712006,0.04717789962887764
1768416591346243800,10.807243896484374,-0.02166827768087387,-0.06863392144441605,0.04808017611503601
1768416591356245000,10.817244873046874,-0.010318683460354805,-0.062488678842782974,0.04265372082591057
1768416591366246000,10.827245849609374,-0.007655522786080837,-0.06958679854869843,0.03681713715195656
1768416591376247000,10.8372470703125,-0.008623847737908363,-0.07974676042795181,0.034271154552698135
1768416591386248700,10.847248779296875,-0.011378888040781021,-0.08431807905435562,0.03430018201470375
1768416591396250000,10.85725,-0.011432151310145855,-0.08170098811388016,0.03531910851597786
1768416591406251000,10.8672509765625,-0.011846805922687054,-0.08188927173614502,0.03652765229344368
1768416591416253000,10.8772529296875,-0.008735700510442257,-0.08157182484865189,0.0426555834710598
1768416591426254000,10.887254150390625,-0.011413509026169777,-0.09353341162204742,0.03891384229063988
1768416591436255000,10.8972548828125,-0.00965715479105711,-0.09868050366640091,0.029158683493733406
1768416591446255900,10.907255859375,-0.009938917122781277,-0.08961404114961624,0.019271697849035263
1768416591456258000,10.917258056640625,-0.009942645207047462,-0.07553204149007797,0.005511678289622068
1768416591466259000,10.927259033203125,-0.005982791539281607,-0.06318748742341995,-0.0009422263829037547
1768416591476259800,10.937259765625,0.0030740867368876934,-0.06454570591449738,-0.0037555897142738104
1768416591486261800,10.94726171875,0.01028486154973507,-0.06324687600135803,-0.00569889834150672
1768416591496263000,10.957262939453125,0.015247396193444729,-0.052568137645721436,-0.011080347932875156
1768416591506264000,10.96726416015625,0.020922591909766197,-0.035589154809713364,-0.015857793390750885
1768416591516265000,10.977264892578125,0.02406645379960537,-0.03266899660229683,-0.01330089196562767
1768416591526267100,10.98726708984375,0.02328215353190899,-0.030658576637506485,-0.010817227885127068
1768416591536268000,10.99726806640625,0.02335512451827526,-0.018556639552116394,-0.01266972254961729
1768416591546269000,11.00726904296875,0.023440344259142876,-0.008746886625885963,-0.015869244933128357
1768416591556270800,11.017270751953125,0.02010233886539936,-0.0076059880666434765,-0.022491194307804108
1768416591566272000,11.02727197265625,0.016631707549095154,-0.009814813733100891,-0.022523151710629463
1768416591576273000,11.03727294921875,0.015230085700750351,-0.010730408132076263,-0.0164178553968668
1768416591586273800,11.047273681640625,0.010312558151781559,-0.015615444630384445,-0.013243633322417736
1768416591596276000,11.05727587890625,0.014364025555551052,-0.021820344030857086,-0.00646615494042635
1768416591606276900,11.06727685546875,0.017590977251529694,-0.02809075638651848,0.0028999161440879107
1768416591616278000,11.077278076171876,0.017728131264448166,-0.03243676945567131,0.009001750499010086
1768416591626280000,11.087280029296876,0.017293237149715424,-0.029332056641578674,0.007392402272671461
1768416591636281000,11.097281005859376,0.013099290430545807,-0.03224262595176697,0.008988700807094574
1768416591646282000,11.107281982421876,0.008331965655088425,-0.028744030743837357,0.007961519993841648
1768416591656283000,11.117282958984376,0.0032032502349466085,-0.023865118622779846,0.007699464913457632
1768416591666285000,11.12728515625,0.0025012409314513206,-0.022170282900333405,0.005961752496659756
1768416591676286000,11.137285888671874,0.004099670331925154,-0.02075481228530407,0.005502090789377689
1768416591686286800,11.147286865234374,0.006718888878822327,-0.02261742763221264,0.011771172285079956
1768416591696288800,11.157288818359374,0.009129316546022892,-0.024161262437701225,0.007413974031805992
1768416591706290000,11.1672900390625,0.01357253361493349,-0.02720392309129238,0.0023076289799064398
1768416591716291000,11.177291015625,0.015537414699792862,-0.02575915865600109,0.001347293145954609
1768416591726292000,11.1872919921875,0.017840249463915825,-0.02161075361073017,0.0023150858469307423
1768416591736294100,11.197294189453125,0.02051805891096592,-0.017729993909597397,-0.0013084110105410218
1768416591746295000,11.207294921875,0.0227348729968071,-0.012076636776328087,-0.0051873051561415195
1768416591756296000,11.2172958984375,0.026315759867429733,-0.005366535857319832,-0.003040797309949994
1768416591766296800,11.227296875,0.037105824798345566,0.003727093804627657,-0.005835785064846277
1768416591776299000,11.237299072265625,0.03987843915820122,0.007097324356436729,0.0008559399866499007
1768416591786300000,11.2472998046875,0.043721381574869156,0.003578489413484931,0.013154949992895126
1768416591796300800,11.25730078125,0.046852193772792816,0.004216316621750593,0.018336929380893707
1768416591806303000,11.267302978515625,0.047208789736032486,0.008252870291471481,0.012415923178195953
1768416591816303900,11.277303955078125,0.04117380082607269,0.015448731370270252,0.010525344870984554
1768416591826305000,11.287304931640625,0.03880971297621727,0.023501064628362656,0.0014732606941834092
1768416591836306000,11.297305908203125,0.02972141094505787,0.021688517183065414,0.0004916195175610483
1768416591846308000,11.30730810546875,0.024452878162264824,0.019217902794480324,0.008743956685066223
1768416591856309000,11.31730908203125,0.02045920304954052,0.013263607397675514,0.011098990216851234
1768416591866310000,11.327309814453125,0.021208083257079124,0.004544417839497328,0.0021499700378626585
1768416591876312000,11.33731201171875,0.014371749013662338,-0.01731880195438862,-0.005850166082382202
1768416591886313000,11.34731298828125,0.010178335011005402,-0.02948758378624916,0.0008037420338951051
1768416591896313900,11.35731396484375,0.009100819937884808,-0.022604644298553467,0.008085357025265694
1768416591906314800,11.367314697265625,0.004062652122229338,-0.010846256278455257,0.0025798040442168713
1768416591916317000,11.37731689453125,0.002263420494273305,-0.007601726800203323,-0.007366036996245384
1768416591926317800,11.38731787109375,-0.004519384354352951,-0.007532751187682152,-0.010772486217319965
1768416591936319000,11.397319091796875,-0.00881133507937193,-0.005419266410171986,-0.007041397970169783
1768416591946321000,11.40732080078125,-0.010028665885329247,-0.003695402294397354,-0.005406483076512814
1768416591956322000,11.417322021484376,-0.008823052980005741,-0.006356965284794569,-0.010513094253838062
1768416591966323000,11.427322998046876,-0.006712231319397688,-0.008076302707195282,-0.015540610067546368
1768416591976323800,11.43732373046875,-0.00518810423091054,-0.0007563377148471773,-0.01775609329342842
1768416591986326000,11.447325927734376,-0.006508233025670052,-0.0017060210229828954,-0.028062527999281883
1768416591996327000,11.457326904296876,-0.010176471434533596,-0.004385693464428186,-0.03513987734913826
1768416592006327800,11.467327880859376,-0.012685434892773628,-0.005124454386532307,-0.03837215527892113
1768416592016330000,11.477330078125,-0.01149686612188816,-0.008212389424443245,-0.033914290368556976
1768416592026331000,11.487330810546876,-0.01113414391875267,-0.0005611280212178826,-0.02659379318356514
1768416592036331800,11.497331787109376,-0.013098224997520447,0.01281912624835968,-0.022311696782708168
1768416592046333000,11.5073330078125,-0.01576724462211132,0.017977667972445488,-0.021399565041065216
1768416592056334800,11.5173349609375,-0.015263641253113747,0.019419237971305847,-0.024657942354679108
1768416592066336000,11.5273359375,-0.013029515743255615,0.01678883284330368,-0.027241740375757217
1768416592076337000,11.5373369140625,-0.012522449716925621,0.015384016558527946,-0.028024710714817047
1768416592086339000,11.547339111328125,-0.009140235371887684,0.011169297620654106,-0.034804850816726685
1768416592096340000,11.557340087890625,-0.008972988463938236,0.009333580732345581,-0.03519101068377495
1768416592106340900,11.5673408203125,-0.00797323789447546,0.010040650144219398,-0.033785928040742874
1768416592116341800,11.577341796875,-0.007190268486738205,0.013892645947635174,-0.0324370339512825
1768416592126344000,11.587343994140625,-0.007937285117805004,0.016093216836452484,-0.02792910300195217
1768416592136344800,11.5973447265625,-0.007791876792907715,0.021204087883234024,-0.027830298990011215
1768416592146345700,11.607345703125,-0.005021123681217432,0.02056865766644478,-0.026941070333123207
1768416592156347100,11.61734716796875,-0.003593403147533536,0.01576804369688034,-0.022602247074246407
1768416592166349000,11.62734912109375,-0.002168612089008093,0.013696370646357536,-0.020863203331828117
1768416592176350000,11.637349853515625,-0.0018301242962479591,0.013448962941765785,-0.022640597075223923
1768416592186350800,11.647350830078125,-0.0035598473623394966,0.014491857029497623,-0.021794777363538742
1768416592196353000,11.65735302734375,-0.0072928001172840595,0.017793910577893257,-0.024835841730237007
1768416592206354000,11.66735400390625,-0.00917245913296938,0.02274392731487751,-0.0210695993155241
1768416592216354800,11.677354736328125,-0.009153550490736961,0.02105521783232689,-0.011848137713968754
1768416592226356000,11.68735595703125,-0.005243497900664806,0.018672486767172813,-0.0029353362042456865
1768416592236358000,11.69735791015625,-0.0037649108562618494,0.021857362240552902,-0.00785392802208662
1768416592246358800,11.70735888671875,-0.003171292133629322,0.028932316228747368,-0.007708253338932991
1768416592256360000,11.71735986328125,-0.006095442920923233,0.03314517065882683,-0.01227664016187191
1768416592266361900,11.72736181640625,-0.008853944949805737,0.03680381923913956,-0.017485516145825386
1768416592276363000,11.737363037109375,-0.011208712123334408,0.03742833063006401,-0.02093937061727047
1768416592286364000,11.747364013671875,-0.00936207640916109,0.03497902303934097,-0.024168984964489937
1768416592296365000,11.757364990234375,-0.010149306617677212,0.024105070158839226,-0.033777136355638504
1768416592306367000,11.767366943359375,-0.007090666331350803,0.01673636958003044,-0.04902373626828194
1768416592316368400,11.777368408203126,-0.005911951418966055,0.012925120070576668,-0.060017798095941544
1768416592326369300,11.787369384765626,-0.003724164329469204,0.013006346300244331,-0.0591682493686676
1768416592336370200,11.7973701171875,0.002727875951677561,0.015870574861764908,-0.04536055773496628
1768416592346372400,11.807372314453126,0.005042695440351963,0.01902429200708866,-0.036440297961235046
1768416592356373200,11.817373291015626,0.008022506721317768,0.012899553403258324,-0.03800756856799126
1768416592366374100,11.8273740234375,0.008430502377450466,0.00947712454944849,-0.04301084950566292
1768416592376376300,11.837376220703124,0.009839314967393875,0.002743588527664542,-0.042999133467674255
1768416592386377200,11.847377197265626,0.010389523580670357,0.0031763522420078516,-0.04350832849740982
1768416592396378400,11.85737841796875,0.012498214840888977,0.0041345576755702496,-0.04573286697268486
1768416592406379300,11.867379150390626,0.011839082464575768,0.005077316425740719,-0.0486234612762928
1768416592416381400,11.87738134765625,0.013994112610816956,0.0026261431630700827,-0.05157344415783882
1768416592426382300,11.88738232421875,0.016511332243680954,-0.0006482133758254349,-0.05097982659935951
1768416592436383200,11.89738330078125,0.022372683510184288,-0.00037230990710668266,-0.04838910326361656
1768416592446385400,11.907385498046875,0.02803083509206772,0.009592706337571144,-0.045043107122182846
1768416592456386300,11.91738623046875,0.031201861798763275,0.010540791787207127,-0.037332989275455475
1768416592466387200,11.92738720703125,0.036489035934209824,0.014174141921103,-0.028965871781110764
1768416592476388000,11.93738818359375,0.03811036795377731,0.015388011001050472,-0.026310166344046593
1768416592486390300,11.947390380859375,0.036445893347263336,0.017849303781986237,-0.02834189310669899
1768416592496391400,11.957391357421875,0.03303012251853943,0.02118624560534954,-0.027948543429374695
1768416592506392300,11.967392333984375,0.031864188611507416,0.028506210073828697,-0.01677791401743889
1768416592516394500,11.97739453125,0.031562987715005875,0.035102859139442444,-0.010661965236067772
1768416592526395400,11.9873955078125,0.030349915847182274,0.037402231246232986,-0.02093351073563099
1768416592536396300,11.997396240234375,0.028798891231417656,0.04194851592183113,-0.03272385895252228
1768416592546397200,12.007397216796875,0.027239609509706497,0.037510089576244354,-0.030794396996498108
1768416592556399400,12.0173994140625,0.027359185740351677,0.03533242270350456,-0.02303927205502987
1768416592566400300,12.027400146484375,0.01924852840602398,0.04410061612725258,-0.026757577434182167
1768416592576401200,12.037401123046875,0.010814564302563667,0.04869936406612396,-0.038780950009822845
1768416592586402300,12.04740234375,0.008016914129257202,0.0516434870660305,-0.04151521995663643
1768416592596404200,12.057404296875,0.003457848448306322,0.049485526978969574,-0.0343015156686306
1768416592606405400,12.0674052734375,0.000011185276889591478,0.044681183993816376,-0.02016305923461914
1768416592616406300,12.07740625,0.009909622371196747,0.03731115162372589,-0.016520120203495026
1768416592626408400,12.087408447265625,0.0031427964568138123,0.0349436029791832,-0.024821992963552475
1768416592636409300,12.097409423828125,0.0022096247412264347,0.04369235411286354,-0.026137594133615494
1768416592646410200,12.10741015625,-0.0005587312043644488,0.05606832727789879,-0.027298199012875557
1768416592656411100,12.1174111328125,-0.00854288786649704,0.05168290063738823,-0.03201465681195259
